id,timestamp,acc_x,acc_y,acc_z,gyro_x,gyro_y,gyro_z
0,1715673273330,-0.000365875,0.3269093,0.8548669,0.038789943,-0.22907446,0.23441954
1,1715673273340,0.0111165015,0.347782488,0.8681421199999999,0.032162056,-0.24371995800000001,0.24040601
2,1715673273350,0.02876184,0.37567231333333334,0.9105002999999999,0.06678793922222222,-0.272395,0.18473582666666666
3,1715673273360,0.0494297118,0.38298575,0.9864966200000002,0.119485244,-0.22983805200000001,0.12284500039999999
4,1715673273370,0.063308575,0.366301844,1.05831177,0.264871156,-0.025992315999999998,0.0021380291999999997
5,1715673273380,0.0405877319,0.342440714,0.9990704950000001,0.334830513,0.132175966,-0.0818864844
6,1715673273390,0.022257395,0.29837108,0.9281639499999998,0.29138273,0.20082195,-0.1385137
7,1715673273400,-0.01603752,0.32245782,0.8732827000000001,0.04917465,0.12308934,-0.10338894000000001
8,1715673273410,-0.019769446500000003,0.33546471,0.822846736,-0.208396674,0.012996157386,0.017012597400000003
9,1715673273420,-0.0248490102,0.335976944,0.788265494,-0.4308127199999999,-0.1498147,0.114689946
10,1715673273430,-0.015214301599999999,0.335928153,0.773740234,-0.5512142520000001,-0.390205456,0.1865735256
11,1715673273440,-0.0043904999,0.3429773275,0.80097659,-0.55508565,-0.596624435,0.22777638
12,1715673273450,0.004573437466666667,0.34182889333333333,0.8377928333333333,-0.5058982466666666,-0.7546730666666667,0.24404066333333332
13,1715673273460,0.032210551366666666,0.3424657811111111,0.91134716,-0.39349902999999997,-0.8498662333333333,0.23828835333333334
14,1715673273470,0.0681869044,0.355106092,0.9610316859999999,-0.21685715600000002,-0.78227404,0.17534886200000002
15,1715673273480,0.12079973,0.37636343,0.960056,-0.07745771,-0.6320622699999999,0.0461814108
16,1715673273490,0.126690321,0.360319803,0.93192637,-0.025610524699999998,-0.45817947400000003,-0.0969748582
17,1715673273500,0.11214068500000002,0.32892162,0.8750511,-0.043982297,-0.30543262,-0.19226983
18,1715673273510,0.0757544185,0.304499472,0.80480304,-0.12522738,-0.25137106,-0.2098322
19,1715673273520,0.0576070195,0.281918904,0.74047005,-0.168934782,-0.278447659,-0.20680843399999999
20,1715673273530,0.0515578859,0.265966757,0.6895829250000001,-0.20103575199999998,-0.37284161,-0.188024316
21,1715673273540,0.06305246,0.25861263,0.6272317,-0.22790363999999996,-0.49220467666666656,-0.16793702666666666
22,1715673273550,0.072443254,0.254130677,0.59628477,-0.27834074099999995,-0.6500064130000001,-0.150440844
23,1715673273560,0.089493028,0.248148626,0.5579959800000001,-0.323880752,-0.775798862,-0.156045534
24,1715673273570,0.1083477856,0.26358855400000003,0.52394522,-0.354729456,-0.926988022,-0.153113378
25,1715673273580,0.16847188533333332,0.33069678,0.4514152344444444,-0.3523504688888889,-1.1847052333333332,-0.13988814444444445
26,1715673273590,0.22939142,0.353215716,0.40798722600000004,-0.336739476,-1.3618628999999998,-0.15564847199999998
27,1715673273600,0.323464011,0.369936227,0.391669188,-0.334066924,-1.5930602,-0.186955308
28,1715673273610,0.41819513199999997,0.433391168,0.429055516,-0.39585593799999996,-1.75241967,-0.259113769
29,1715673273620,0.5483857,0.5397266,0.4131339,-0.592692,-1.887879,-0.3652974
30,1715673273630,0.6241461399999999,0.6394397439999999,0.40888973999999995,-0.7717976799999999,-2.0782246,-0.41575488
31,1715673273640,0.688893838,0.727481472,0.44112331200000005,-0.86532116,-2.2755341000000002,-0.4269948
32,1715673273650,0.849634958,0.86000142,0.563764608,-0.83942048,-2.5889079,-0.396268284
33,1715673273660,1.080733848,0.9820817000000002,0.737274766,-0.640950352,-2.8122403,-0.388571386
34,1715673273670,1.3366836111111111,1.2057681333333334,0.9879438777777777,-0.40921184,-2.814578666666667,-0.6252375444444445
35,1715673273680,1.5672866,1.44295,1.205924,-0.22036964,-2.5450172,-1.2513574
36,1715673273690,1.6593773900000002,1.54821238,1.23363905,-0.0984562034,-2.4162317,-1.6575064300000002
37,1715673273700,1.6820432799999998,1.7146487000000001,1.2493777700000002,0.44758096700000005,-2.63475344,-2.278894
38,1715673273710,1.6589383,1.7780914999999997,1.2634274,0.9201157700000001,-2.973692,-2.526844
39,1715673273720,1.7070509,1.7351011999999997,1.3252603,1.7739527,-3.6798522,-2.6682594
40,1715673273730,1.7372354599999997,1.7557366699999999,1.48661113,2.6048057899999995,-4.35608025,-2.63527269
41,1715673273740,1.7832477888888887,1.8815595444444446,1.7076402444444443,3.1923309777777775,-4.7009476333333335,-2.5785300777777778
42,1715673273750,1.9354787000000002,2.180676,1.9707248,4.03601736,-5.001993700000001,-2.52640121
43,1715673273760,2.0441740800000003,2.31444602,2.08107877,4.40519367,-5.255716550000001,-2.6234371399999996
44,1715673273770,2.3733702,2.6737535,2.456119,5.0245194,-5.9455514,-2.9814806
45,1715673273780,2.6546364899999997,2.68994351,2.8455562,5.24980653,-6.2814663699999995,-3.31628046
46,1715673273790,3.0024922,2.5914316,3.3464758,5.5669675,-6.3175683,-3.6538904
47,1715673273800,3.1770146,2.531855,3.5669154999999995,5.981287,-6.061616,-3.903887
48,1715673273810,3.33406017,2.39378592,3.5726660000000003,6.63030094,-5.49534365,-4.385355769999999
49,1715673273820,3.3410487000000004,2.2931826,3.3966004999999995,7.03840474,-5.03317826,-4.981835370000001
50,1715673273830,3.2403923666666667,2.1490684,3.1729695666666666,7.163616700000001,-4.8966956,-5.3989797
51,1715673273840,3.00591928,1.8330093600000001,2.7602586000000002,7.23598879,-5.23600079,-5.52523023
52,1715673273850,2.7100604400000003,1.55174291,2.4267940599999998,7.426441479999999,-5.94521546,-5.439556260000001
53,1715673273860,2.59899304,1.4479991,2.3581254,7.5436666400000005,-6.30742806,-5.281754600000001
54,1715673273870,2.3915894222222223,1.3091414888888888,2.2574014444444446,7.7471458,-6.952511933333334,-4.959004166666667
55,1715673273880,2.15544286,1.31504014,2.1759319,7.767915100000001,-7.527524679999999,-4.69028466
56,1715673273890,1.9548152899999998,1.24224326,2.12126406,7.3491364500000005,-7.534243909999999,-4.75126389
57,1715673273900,1.6152772,1.0103029,2.039875,6.306573,-7.013344000000001,-4.940984
58,1715673273910,1.3689077444444446,0.7245409444444445,1.8877253888888892,5.2784867,-6.2451806,-5.122105
59,1715673273920,1.0785385,0.4434405,1.6613165000000003,4.65858054,-5.68257372,-5.12931332
60,1715673273930,0.8495617799999999,0.197950571,1.3668236999999999,3.86683808,-5.0076596,-5.00588804
61,1715673273940,0.5711919,-0.030306645000000004,1.0376825,3.229542777777778,-4.584136311111111,-4.7428596
62,1715673273950,0.52097554,-0.0686625425,0.9713371500000001,3.06745985,-4.50383305,-4.6213484000000005
63,1715673273960,0.39569382000000003,-0.17016237,0.809376475,2.8590937,-4.46441698,-4.38763132
64,1715673273970,0.269601092,-0.25096586,0.67866153,2.62586532,-4.51279746,-4.07007294
65,1715673273980,0.15160776666666667,-0.2925374,0.5864569666666667,2.4275785,-4.6297986,-3.771278366666667
66,1715673273990,0.1125309595,-0.33001316,0.5792533,2.25235178,-4.71517728,-3.50923752
67,1715673274000,0.09939604722222223,-0.3329530355555555,0.6090870111111111,2.0270375777777776,-4.63874091111111,-3.324192844444444
68,1715673274010,0.1445816,-0.33863255999999997,0.6092123700000001,1.846607425,-4.497800975,-3.295999775
69,1715673274020,0.21726878,-0.37672928,0.6217436,1.6447546,-4.2954516,-3.2785137
70,1715673274030,0.252929396,-0.35155709599999996,0.6444766399999999,1.49356549,-4.07279142,-3.2939075700000005
71,1715673274040,0.29965162999999995,-0.318579546,0.64089102,1.30839704,-3.83459966,-3.40103806
72,1715673274050,0.356411018,-0.31953691900000003,0.65553214,1.13643838,-3.6598311199999998,-3.51803394
73,1715673274060,0.41675192666666666,-0.32038453,0.69087364,1.0233010800000002,-3.5668930000000003,-3.5709655333333337
74,1715673274070,0.479436474,-0.31637820099999997,0.7231336620000001,0.97524637,-3.5288157,-3.5915823
75,1715673274080,0.621200866,-0.33721480400000003,0.841366156,0.479926268,-3.12518646,-3.7549580399999996
76,1715673274090,0.7015531349999999,-0.391711877,0.8975645780000001,0.22592850800000003,-2.79800704,-3.7390756599999997
77,1715673274100,0.80919355,-0.44264776,1.0024976,0.021991149,-2.3628268,-3.5631769
78,1715673274110,0.8343292449999999,-0.422561254,1.12658402,-0.0711963441,-1.83077839,-3.39563191
79,1715673274120,0.8032176200000001,-0.369253268,1.24471892,-0.153846412,-0.93214982,-3.3675321400000002
80,1715673274130,0.6934889666666666,-0.4375187811111111,1.0541536222222223,-0.1576711033333333,-0.016646077777777775,-3.497339377777778
81,1715673274140,0.6320490879999999,-0.50574906,0.9261394279999999,-0.12244793600000001,0.370428696,-3.56256604
82,1715673274150,0.477113212,-0.64564742,0.7000164520000001,-0.0430354564,0.646142734,-3.56293266
83,1715673274160,0.276320999,-0.81349868,0.468765166,0.0594219158,0.73108351,-3.48364242
84,1715673274170,0.14981226111111112,-0.8955400466666666,0.33922712444444447,0.10651114244444443,0.7242485911111111,-3.4259529777777775
85,1715673274180,-0.316286748,-1.079306842,0.0619609326,0.1304197324,0.500481888,-3.2784221600000003
86,1715673274190,-0.62168264,-1.2976977,0.006890646,0.16264287,0.2744312,-3.0870075
87,1715673274200,-0.8776304500000001,-1.53036978,-0.039477912999999996,0.364243682,0.1651168826,-2.59823906
88,1715673274210,-1.0578055,-1.6492425,-0.08470006,0.6200282,0.11316278600000002,-2.035403
89,1715673274220,-1.1803493399999998,-1.7010992200000001,-0.18182769199999999,0.8357858,0.02666426792,-1.45129364
90,1715673274230,-1.25991498,-1.75226076,-0.2938708,1.0619892,-0.18958202432,-0.70185366
91,1715673274240,-1.27823923,-1.7974829499999998,-0.37612560800000006,1.21995901,-0.504467754,0.14941763300000002
92,1715673274250,-1.2783876333333333,-1.7897385333333335,-0.36892396,1.2423981555555557,-0.6178732055555556,0.4689578311111111
93,1715673274260,-1.23407205,-1.7985257000000001,-0.295895305,1.2276864499999998,-0.727479455,1.0647075400000001
94,1715673274270,-1.1637332333333332,-1.8324443888888888,-0.15188555222222222,1.1567242444444443,-0.5769622444444444,1.455114911111111
95,1715673274280,-1.10946718,-1.86185258,-0.02786748,1.03007152,-0.04587597199999999,1.68360568
96,1715673274290,-1.15267703,-1.93424082,-0.069473566,0.8515156100000001,1.191339974,1.74756329
97,1715673274300,-1.2590978,-2.0510342,-0.29202923,0.8156578,2.0178406,1.7550159
98,1715673274310,-1.3294678,-2.1740901,-0.54216576,0.9454667,2.4286475,1.9149097999999998
99,1715673274320,-1.3381878,-2.2870238,-0.7501047,1.0934488,2.5007296,2.2579107
100,1715673274330,-1.3447465555555556,-2.292931888888889,-0.8881615266666666,1.0088778666666667,2.3891448,2.6062396777777774
101,1715673274340,-1.30941784,-2.3118667200000003,-0.9483967659999999,0.8437576199999999,2.24618214,2.8506331200000004
102,1715673274350,-1.23330365,-2.31406795,-0.921242765,0.56963184,2.07411665,3.1122056000000002
103,1715673274360,-1.07695308,-2.23513042,-0.781484606,-0.052839841,1.83873499,3.5320229
104,1715673274370,-0.9751991888888889,-2.2492099333333333,-0.6833325311111111,-0.34337412777777776,1.7891564999999998,3.7251411111111117
105,1715673274380,-0.765532503,-2.35422283,-0.49068105700000003,-0.558483536,1.81216234,4.02645716
106,1715673274390,-0.40185273,-2.5311232,-0.21409786,-0.7851145,2.0379992,4.9028044
107,1715673274400,0.044575773,-2.4545333,-0.058844898,-0.777173276,2.36261296,5.84463632
108,1715673274410,0.4212441,-2.3089151,-0.026586918,-0.6582073,2.7203357,6.8003044
109,1715673274420,0.8300545830000001,-2.12758751,-0.029330979299999997,-0.56900569,2.94931847,7.438597540000001
110,1715673274430,1.3940448,-2.0099344,-0.05372265,-0.66588894,3.0711097799999996,8.0929719
111,1715673274440,1.85817561,-1.9198741900000003,-0.016293634499999998,-1.1580478,2.983466,8.8372345
112,1715673274450,2.449594,-1.8201060999999998,0.17281497,-1.7505191666666666,2.834754111111111,9.429824555555555
113,1715673274460,2.6544109,-1.7946413199999998,0.253417224,-2.23976788,2.73041496,9.888228000000002
114,1715673274470,2.9329759799999997,-1.7562732799999998,0.37227780800000004,-2.6498417200000004,2.631577,10.2806174
115,1715673274480,3.8923613,-1.5838729,0.8355975000000001,-3.7472765499999996,2.28868305,11.462428
116,1715673274490,4.8451549,-1.2261995300000001,1.3727508800000001,-4.4311552800000005,2.14812298,12.0744087
117,1715673274500,5.2312877222222225,-0.7738053222222222,1.7231155666666667,-4.7100763,2.2850943,11.812454
118,1715673274510,5.36441655,-0.316036735,2.0008972199999997,-4.6520443,2.4399486,10.841789
119,1715673274520,5.161521,-0.38282722,1.9925553,-3.9249045624999996,2.284941525,9.800664874999999
120,1715673274530,4.8618083,-0.5588741,1.8975497,-2.9153545,1.9268217000000003,9.222996
121,1715673274540,4.71650699,-0.58627812,1.83625343,-1.99482636,1.48296703,9.0592233
122,1715673274550,4.47030349,-0.56105717,1.8511749599999998,-0.7101614039999999,0.89507032,8.8671062
123,1715673274560,4.297432411111111,-0.5286826222222223,1.937884044444444,-0.15015406888888888,0.7564208355555555,8.735763555555556
124,1715673274570,4.141473400000001,-0.52764058,1.9997875200000004,-0.06227771,1.126832588,8.5758152
125,1715673274580,3.9349795,-0.491699448,1.9519370900000002,-0.278646174,1.6361109200000001,8.456695999999999
126,1715673274590,3.6627685100000003,-0.432622816,1.7739754,-0.715475918,2.4160483299999997,8.2631892
127,1715673274600,3.424163,-0.40459678,1.5351505,-0.9903652700000001,2.9944615,8.063574
128,1715673274610,3.19865603,-0.40591393,1.2139306,-1.097495807,3.32109113,7.803940900000001
129,1715673274620,3.034933,-0.39258388,0.9440795,-1.1343768,3.3982433999999997,7.649254999999999
130,1715673274630,2.8952666000000002,-0.336483032,0.69835782,-1.15978872,3.2812016400000004,7.52268356
131,1715673274640,2.7194202222222223,-0.2825097133333333,0.39745543555555557,-1.246640188888889,2.879720577777778,7.351355633333333
132,1715673274650,2.6103961,-0.20556077,0.2862972,-1.3833044,2.3321307,7.2825828
133,1715673274660,2.59929788,-0.12689155000000002,0.26508255199999997,-1.48026392,2.15189491,7.28568296
134,1715673274670,2.63659286,0.11932403,0.21945183999999998,-1.72499184,1.93183076,7.218716720000001
135,1715673274680,2.6869047666666663,0.25708816333333334,0.21909815666666665,-1.9074776666666666,1.9056959333333334,7.1107259
136,1715673274690,2.83928141,0.642482594,0.215658925,-2.50845707,2.07578132,6.587341820000001
137,1715673274700,2.8555934,0.9853624,0.19470648,-3.1316006,2.2973115,5.8035254
138,1715673274710,2.9006509100000004,1.1955026800000002,0.176924964,-3.43521596,2.29483749,5.27986121
139,1715673274720,2.9533701555555556,1.4892875,0.23010827555555555,-3.5745628222222217,2.1076377111111113,4.769907144444444
140,1715673274730,3.01090744,1.85613266,0.3834858,-3.5938728600000003,1.98372378,4.3470392
141,1715673274740,3.0898957666666664,2.1792328333333333,0.6044458166666666,-3.740175133333333,2.0816760333333333,3.7932186666666663
142,1715673274750,3.2425673,2.506183,0.895723,-4.1601260875,2.5716281375000003,3.0330795
143,1715673274760,3.3502991900000003,2.68136377,0.98671606,-4.60053325,3.60456307,2.1494669
144,1715673274770,3.4861045333333336,2.7318937555555554,0.8736078655555555,-4.471957777777778,4.124578777777778,1.6879055111111112
145,1715673274780,3.6999111,2.70124298,0.559154587,-3.6797911599999997,4.171659780000001,1.3215458400000002
146,1715673274790,4.04791918,2.63669039,0.2675948946,-1.85000545,3.3970981,0.9564622500000001
147,1715673274800,4.8099756,2.5957613,0.044880666,0.92289522,1.70519982,0.47036624399999993
148,1715673274810,5.478185,2.6017983,0.17013188,2.6332026222222225,0.49525899777777777,-0.2686788955555556
149,1715673274820,6.048463,2.5250864,0.31898203,3.1341968,0.0022907446,-1.6088663
150,1715673274830,6.103051240000001,2.33424608,0.43625717399999997,2.51319136,0.24639249292,-2.5560740600000003
151,1715673274840,6.2970138,1.8196794,0.58564395,0.9578367,0.9790642999999999,-3.7749946000000003
152,1715673274850,6.1965203,1.4812449,0.6182068,-0.23167065,1.6197093,-4.418541
153,1715673274860,6.09753886,1.19776506,0.564740288,-0.85108797,1.94383434,-4.818169
154,1715673274870,5.937480777777777,0.7512159111111111,0.5537925022222221,-1.2400564444444444,2.034605477777778,-5.333447444444444
155,1715673274880,5.7054975,0.35122780200000003,0.6364395789999999,-0.99436645,1.74127136,-5.700670779999999
156,1715673274890,5.28721086,-0.021873226500000002,0.860409913,0.060750548000000015,1.00933262,-6.01693099
157,1715673274900,5.0613318,-0.0928834725,0.9922895820000001,0.8499273460000001,0.51428744,-6.21914245
158,1715673274910,4.750887,-0.14000817,1.1704341,1.68385,-0.0346666,-6.497926
159,1715673274920,4.53306324,-0.18056540999999998,1.38271485,2.21177506,-0.399307333,-6.77501467
160,1715673274930,4.35908989,-0.25131345299999996,1.5547005299999999,2.54092444,-0.434462633,-7.07271989
161,1715673274940,4.19211048,-0.35544758,1.62800966,2.6234675899999997,-0.198683917,-7.30527632
162,1715673274950,3.9271057999999996,-0.5259859933333334,1.6688169222222222,2.6542094,0.2764165,-7.600995999999999
163,1715673274960,3.7498529888888887,-0.625415908888889,1.5872268,2.7040968444444444,0.5823921388888889,-7.7441253111111115
164,1715673274970,3.52830334,-0.748726596,1.3621892,2.88939264,0.86370235,-7.91867668
165,1715673274980,3.3639157600000003,-0.827438564,1.17721502,3.0941088,0.83528185,-8.021119
166,1715673274990,3.1510313699999997,-0.9472686899999999,0.94815892,3.6783252000000006,0.25213462,-8.218581
167,1715673275000,3.0741496666666666,-1.0043405,0.8809796277777777,3.9188533,-0.26984972,-8.328537
168,1715673275010,3.01452352,-1.0598606,0.851720455,3.9643626,-0.64996064,-8.430245
169,1715673275020,2.9700269,-1.0873438700000002,0.9257917800000002,3.82719297,-0.989998784,-8.5204097
170,1715673275030,2.9682015777777777,-1.1390434444444444,1.040006488888889,3.5624473666666665,-1.1257907555555555,-8.579432444444445
171,1715673275040,2.977186,-1.1995821,1.1046985,3.268587,-1.0204504,-8.644506
172,1715673275050,2.99238808,-1.2845384100000001,1.10118625,2.9289612,-0.749684365,-8.7312336
173,1715673275060,2.987843777777778,-1.3807038666666667,1.0332039111111113,2.502579044444444,-0.45719869888888887,-8.807386888888889
174,1715673275070,2.98459495,-1.425693,1.0032292699999998,2.3545800399999997,-0.383806632,-8.825047999999999
175,1715673275080,2.96431935,-1.5042952,0.9654831700000001,2.2172881,-0.4011094,-8.8030265
176,1715673275090,2.9285673099999996,-1.55132831,1.0258769099999998,2.20931636,-0.58157426,-8.7099004
177,1715673275100,2.9479158,-1.5410655,1.1337856,2.4153612,-0.68294734,-8.692613
178,1715673275110,2.9585506,-1.56467662,1.20213104,2.67375704,-0.615996508,-8.755409799999999
179,1715673275120,2.9576726,-1.5739334,1.246963,2.8678596,-0.49724430000000003,-8.782715
180,1715673275130,2.9722464,-1.5694817,1.2504388,2.8429668,-0.3885103,-8.739191
181,1715673275140,3.01416352,-1.56717674,1.26294563,2.68304221,-0.272308459,-8.6694913
182,1715673275150,3.070545,-1.5256377,1.2508656,2.4252708333333337,-0.13685079,-8.579075999999999
183,1715673275160,3.09683932,-1.5492976999999999,1.23788928,2.12978176,-0.060048056,-8.514697600000002
184,1715673275170,3.0763109,-1.5847876444444444,1.2546328666666668,1.8932241333333333,0.0041233400000000005,-8.447961
185,1715673275180,2.9516661500000003,-1.6521391,1.3592867,1.5364023999999998,0.27481299249999996,-8.264625
186,1715673275190,2.50025568,-1.7816588,1.50189253,0.857456264,1.42441553,-7.75583546
187,1715673275200,2.0448754,-1.820899,1.3302605,0.4918381480000001,2.6331957600000004,-7.3692950800000006
188,1715673275210,1.7641272666666667,-1.8435426000000001,1.0949215666666667,0.2711223566666667,3.701079733333333,-7.010595133333333
189,1715673275220,1.044878,-1.9334664,0.3518498,0.16600263,4.62257,-6.5380907
190,1715673275230,0.38825434,-2.074816,-0.28343117,0.330661347,4.51852433,-6.111599870000001
191,1715673275240,-0.06088160599999999,-2.18899951,-0.6997420160000001,0.7707897659999999,3.97416717,-5.7081234
192,1715673275250,-0.4503989111111111,-2.3114355222222223,-1.09912235,1.2517137666666667,3.3100752222222223,-5.343747333333333
193,1715673275260,-0.9253954200000001,-2.4452402399999995,-1.6210091599999998,2.02446852,1.9618854200000002,-4.7834412
194,1715673275270,-1.2704277400000001,-2.5195861,-1.84798586,2.74866462,0.10074696600000002,-4.188916699999999
195,1715673275280,-1.5702745500000002,-2.79312025,-1.8579133499999998,2.8086821,-0.81397791,-3.85455975
196,1715673275290,-1.8185614,-3.1727867,-1.8117724333333334,2.1486167333333333,-1.3709852333333332,-3.3206635
197,1715673275300,-2.0657120499999997,-3.66891539,-1.58368996,1.22409762,-1.50735583,-2.30806269
198,1715673275310,-2.2060615300000004,-3.86828048,-1.16190934,0.6365216,-1.1777482,-1.1385001
199,1715673275320,-2.26011971,-3.74743206,-0.9746971200000001,0.4937318299999999,-0.3715588,-0.020922136
200,1715673275330,-2.2236933666666667,-3.639975222222222,-1.0248768555555554,0.5151121,0.43417248,0.97326106
201,1715673275340,-2.10691565,-3.48530724,-1.22602882,0.43786821400000003,0.7930405410000001,1.555614196
202,1715673275350,-1.9762129000000002,-3.2628610399999998,-1.3236016000000002,0.26114489,0.9875858479999999,1.9347936000000001
203,1715673275360,-1.8162645333333332,-3.0880459333333334,-1.3021491666666667,-0.12899436333333336,1.1794789666666667,2.3538674
204,1715673275370,-1.6550831333333333,-2.8936038444444443,-1.1291037444444445,-0.5499992977777778,1.377450211111111,2.619644666666667
205,1715673275380,-1.5763907700000002,-2.81409721,-1.0675195800000001,-0.698478589,1.53840304,2.84179097
206,1715673275390,-1.4565483,-2.7386353,-1.0331091,-0.68279463,1.6749926,3.3411274
207,1715673275400,-1.3198269599999999,-2.63939168,-1.004467151,-0.536919966,1.5621046,3.9082546000000002
208,1715673275410,-0.9068211999999999,-2.3871515,-0.755349,-0.3463606,1.3487904,4.9305987
209,1715673275420,-0.45606318,-2.2469604,-0.4557583,-0.43463063,1.3868169,5.8264327
210,1715673275430,-0.117610521,-2.15185101,-0.21971404,-0.807105728,1.64961105,6.606568900000001
211,1715673275440,0.313439006,-2.02279488,-0.0018964525,-1.31079469,2.04264168,7.261110700000001
212,1715673275450,0.6712722155555556,-1.9048130555555558,0.13445229222222224,-1.7491108666666666,2.3728551666666666,7.707083233333332
213,1715673275460,0.98036206,-1.8084591800000003,0.236989438,-2.18621035,2.68314925,8.083198
214,1715673275470,1.3212763,-1.7455693,0.3351414966666667,-2.7352000000000003,3.0305025000000003,8.519075666666668
215,1715673275480,1.5639327,-1.7094289500000002,0.38535784,-3.1421380599999997,3.14668902,8.8279186
216,1715673275490,1.9153740200000002,-1.65079745,0.452062965,-3.4834895799999996,3.0524324999999997,9.0667062
217,1715673275500,2.26626638,-1.6087401200000002,0.5820949320000001,-3.9794818,2.42577648,9.3254694
218,1715673275510,2.7621734,-1.4943554,0.84224427,-4.3896775,1.4781412,9.320888
219,1715673275520,3.12006,-1.4012403,1.2179369,-4.67982355,0.6710660199999999,9.096440600000001
220,1715673275530,3.3323285999999994,-1.3212357,1.7593099000000003,-5.06056,-0.04046982,8.676883
221,1715673275540,3.2747643,-1.2543415,2.2518997,-5.299476444444445,0.10355862444444446,8.191312333333334
222,1715673275550,3.1598306999999997,-1.2386332599999998,2.43151994,-5.487814800000001,0.6718906880000001,7.7782084
223,1715673275560,2.930293,-1.32587,2.4288611,-5.64726597,1.52155836,7.4336499599999994
224,1715673275570,2.80477332,-1.39426432,2.25158262,-5.65911646,1.9468580199999999,7.30576488
225,1715673275580,2.6616321777777774,-1.4173591222222222,2.0437710555555557,-5.516622133333334,1.9196949333333333,7.279222799999999
226,1715673275590,2.44917952,-1.41205801,1.7864213899999999,-5.00906427,1.23852932,7.26670031
227,1715673275600,2.3445148500000004,-1.37630589,1.7773537000000001,-4.318939240000001,0.423696146,7.13380643
228,1715673275610,2.247936,-1.2539756,1.8308995,-3.7186422,-0.1049161,6.8943777
229,1715673275620,2.1296365,-1.2106804,1.8552911,-3.3318117000000003,-0.24969117000000002,6.5435886
230,1715673275630,2.02048991,-1.25020709,1.81153851,-3.2622953000000003,-0.11982121800000001,6.33039668
231,1715673275640,1.8607671199999998,-1.32356495,1.7011906199999998,-3.376863,0.12370021,6.211583
232,1715673275650,1.733956088888889,-1.469679288888889,1.5126831555555558,-3.570032244444445,0.24098633444444445,6.3596840666666665
233,1715673275660,1.68774486,-1.53086982,1.3652809700000001,-3.69263459,0.20497583600000002,6.55586699
234,1715673275670,1.69392816,-1.56427416,1.21514408,-3.75077372,-0.0017409580000000036,6.8111475200000005
235,1715673275680,1.79262901,-1.56005443,1.12091902,-3.59313995,-0.585926685,7.174306769999999
236,1715673275690,2.0213509666666667,-1.4650516111111112,1.1915329555555556,-3.0942359222222224,-1.3291409222222224,7.413969411111111
237,1715673275700,2.2540584000000004,-1.3672871,1.35006656,-2.60619548,-1.6187318000000002,7.476562800000001
238,1715673275710,2.5964015,-1.13431014,1.6387113899999999,-2.2947000799999997,-1.382769815,7.596964730000001
239,1715673275720,2.781077,-0.8618796,1.717905,-2.289065,-0.64675355,7.692626
240,1715673275730,2.9459035,-0.5633255,1.5374067,-2.5328,0.54443365,7.709272
241,1715673275740,3.2064676,-0.38746163,1.1218338,-2.89290494,1.4221553649999998,7.8178534
242,1715673275750,3.7361997199999997,-0.19074892999999998,0.6562943999999999,-3.29056299,1.83728409,8.0222488
243,1715673275760,4.220612,0.13567865,0.2681254,-3.3756413,1.6902641,8.001266
244,1715673275770,4.6662479999999995,0.488626074,0.09235904800000001,-3.20395769,1.2450196500000001,7.76405161
245,1715673275780,4.777657,0.57686293,0.04841746,-3.03236564,0.8635495759999999,7.463460039999999
246,1715673275790,5.59253356,1.090606393,0.195224812,-2.6730242300000002,0.1101542746,5.70178573
247,1715673275800,6.854146777777777,1.3099206444444444,0.48878870444444444,-3.3415517,0.489642386,4.702321855555556
248,1715673275810,7.317927000000001,1.3945936,0.74321413,-4.167509288888889,0.8919820222222222,4.098108366666667
249,1715673275820,7.4335516,1.7152678875,1.0112784912500001,-5.5779443749999995,1.807321225,3.03073165
250,1715673275830,7.355124000000001,2.0892682,1.270501,-6.069557,2.35626,2.0360138
251,1715673275840,7.0273004,2.0646937,1.4955751,-5.945399,2.8464794,0.5513059
252,1715673275850,6.703445819999999,1.85237642,1.4949348099999997,-5.5144335,3.0070605,-0.21983512499999996
253,1715673275860,6.3131425,1.52585125,1.3617563,-4.37303165,3.0383673,-1.654070425
254,1715673275870,5.81738811,1.10275952,1.13891403,-3.16817615,2.65084975,-2.6288586
255,1715673275880,5.400579166666667,0.8922065777777779,1.0824276777777777,-1.8114868355555558,1.7517409622222222,-3.3499001444444443
256,1715673275890,4.7167689,0.657855463,1.18066649,-0.06246096499999998,0.43768494750000003,-4.1786237
257,1715673275900,4.108959,0.48167443,1.472464,1.4083804400000002,-0.45546111950000007,-5.00462017
258,1715673275910,3.9074657699999995,0.340666201,1.51017347,1.7546951700000002,-0.338342979,-5.4060505800000005
259,1715673275920,3.66412233,0.1613020985,1.4900746699999998,1.75756619,0.17321084,-5.846744
260,1715673275930,3.5138028,0.093359105,1.422461,1.496009,0.5693264,-6.040541
261,1715673275940,3.3662329,0.006768687,1.352335,1.04807675,1.2106433600000002,-6.338795960000001
262,1715673275950,3.2490554599999997,-0.0706992466,1.2935510799999999,0.8951925,1.61897616,-6.58732652
263,1715673275960,3.15253164,-0.209762234,1.20361294,1.01977844,1.98775543,-6.959633630000001
264,1715673275970,3.128258411111111,-0.31195587888888887,1.1505346555555556,1.3588698,2.019673,-7.248985299999999
265,1715673275980,3.114694,-0.404999264,1.11721154,1.5749938799999998,1.9322582400000001,-7.37378502
266,1715673275990,3.09329038,-0.64951352,1.06181804,2.33287914,1.5332412,-7.789219180000001
267,1715673276000,3.0881274333333333,-0.8080349333333333,1.0563624333333332,2.835992777777778,1.1960741488888889,-8.042397555555555
268,1715673276010,3.0869484,-1.167873,1.0784166,3.5805867,0.61529404,-8.436355
269,1715673276020,3.1220725,-1.273306,1.1355541,3.7713294,0.37033707,-8.622516
270,1715673276030,3.20988235,-1.39141039,1.27028752,3.7639989999999997,0.26099217,-8.894045
271,1715673276040,3.28686875,-1.4944286400000002,1.33959645,3.61157266,0.37204748099999996,-9.1022735
272,1715673276050,3.3425730000000002,-1.6321075,1.4058747,3.4779612999999996,0.5662721,-9.25186
273,1715673276060,3.380807,-1.7454678,1.3539814,3.427191522222222,0.8201205444444445,-9.310909777777779
274,1715673276070,3.42690716,-1.79639764,1.2968562,3.43965994,0.9224676,-9.3396714
275,1715673276080,3.44013975,-1.8189172499999997,1.24464585,3.46872185,0.9532552000000001,-9.37533075
276,1715673276090,3.41194306,-1.842266,1.1255900799999998,3.5431100100000004,0.9720546000000001,-9.5324297
277,1715673276100,3.407455,-1.9671270000000003,0.9904846499999999,3.551876,0.86391616,-9.753532
278,1715673276110,3.39797861,-2.0405458,0.953604485,3.47234136,0.684566112,-9.826836
279,1715673276120,3.3199438,-2.11986147,0.8998696,3.3677458900000006,0.514256906,-9.8965973
280,1715673276130,3.2327495,-2.1773221,0.7941317,3.244,0.34804046,-9.947177
281,1715673276140,3.1816247,-2.2119584199999998,0.74803146,3.132456,0.19886718,-9.9165114
282,1715673276150,3.0243959,-2.17729766,0.7358234400000001,2.9175229600000003,0.10427469679999998,-9.9098226
283,1715673276160,2.8326652,-2.2046163400000003,0.7601907320000001,2.6062871299999997,0.2466673718,-9.9211844
284,1715673276170,2.6768024,-2.233728,0.7666911,2.1965187,0.6243043,-9.830044
285,1715673276180,2.5214885,-2.2263372,0.7593003899999999,1.75791742,0.9401216600000002,-9.64935
286,1715673276190,2.258776788888889,-2.2136047111111115,0.7326104722222222,1.4349224333333332,1.2233086000000002,-9.446878333333334
287,1715673276200,1.7075752700000002,-2.19338407,0.601821685,0.49162435000000004,2.12715494,-8.5852679
288,1715673276210,1.2193395,-2.1628091,0.418683,-0.311694,2.9539917,-7.692321
289,1715673276220,0.85163504,-2.0976834,0.30763993,-0.44974952999999995,3.3179144999999997,-7.002959299999999
290,1715673276230,0.3605698,-2.0295696,0.0307335,-0.35170567,3.7184894000000006,-5.8554487
291,1715673276240,-0.06097916999999999,-1.9756641,-0.20629252,-0.228555232,3.8986793900000003,-5.02624477
292,1715673276250,-0.47868645,-1.9176729,-0.61759704,0.0022907446,4.1060834,-4.2192464
293,1715673276260,-0.6938616166666667,-1.9136482333333333,-0.8477324133333334,0.17272215,4.006207,-3.7151295999999996
294,1715673276270,-1.01990096,-1.9977385399999998,-1.19042314,0.372719438,3.7237430000000002,-3.19332864
295,1715673276280,-1.27812332,-2.11645885,-1.4594326800000001,0.507812293,3.3703726400000003,-2.6944961199999997
296,1715673276290,-1.5665142222222221,-2.3066657,-1.727512688888889,0.43483425,2.7195720666666667,-2.194737066666667
297,1715673276300,-1.9618220000000002,-2.6197139399999996,-1.96018748,0.17240144419999998,2.06189925,-1.6631111699999999
298,1715673276310,-2.1852676300000002,-2.81709117,-2.07073668,0.07315111,1.3778065,-0.9402743599999999
299,1715673276320,-2.3083663,-2.9337687,-2.03457,0.5186246,0.66889745,-0.0804815
300,1715673276330,-2.3388804399999996,-2.95928838,-1.9842438899999997,1.15829213,0.24240659300000003,0.84232207
301,1715673276340,-2.2390669888888888,-2.9645088777777775,-1.909217077777778,1.7982854999999998,0.0026640506666666675,1.8935973111111108
302,1715673276350,-2.046217,-2.8023586,-1.7394918000000001,2.076331,0.15149458,2.9072604
303,1715673276360,-1.9005988,-2.497341,-1.5389313,1.8713518000000002,0.7380609622222222,3.435862355555556
304,1715673276370,-1.8673894700000002,-2.37748021,-1.5085819599999999,1.64464782,1.241552998,3.6477511700000003
305,1715673276380,-1.73202794,-2.20454322,-1.60953294,1.07588644,2.26084274,3.93333078
306,1715673276390,-1.4726198333333336,-2.1494412,-1.8063927,0.2829493966666667,2.8944491888888892,4.425260511111111
307,1715673276400,-1.1641472199999998,-2.0212826,-1.74488235,-0.364426922,2.97115692,5.0084840999999996
308,1715673276410,-0.7252862,-1.8062639,-1.3197112,-0.9841039,2.8247936,5.771455
309,1715673276420,-0.46514907,-1.7380283000000003,-0.9615805,-1.2063061,2.8860328,6.124535
310,1715673276430,-0.16458277,-1.7027214000000002,-0.59765685,-1.5028812,3.152981,6.463565300000001
311,1715673276440,-0.07257198244444445,-1.7038054444444444,-0.5010116366666666,-1.6443983555555555,3.276918777777778,6.557299211111111
312,1715673276450,0.3220066102,-1.78012825,-0.19503578100000002,-2.37450968,3.7764148200000003,6.98550372
313,1715673276460,0.59127836,-1.9004646399999998,-0.08601721,-2.9918653600000003,3.8684569599999996,7.27980348
314,1715673276470,0.8617942,-2.0336187900000002,0.087675845,-3.9244733600000004,3.72502576,7.6063108999999995
315,1715673276480,1.0601973444444444,-2.1202863222222224,0.2593240755555556,-4.688153088888889,3.557645277777778,7.798322644444444
316,1715673276490,1.2517498,-2.18872525,0.42926285000000003,-5.6440892499999995,3.3253213,7.90681055
317,1715673276500,1.7976413999999998,-2.40178644,0.8388050400000001,-7.685295600000001,2.5121834,7.938499500000001
318,1715673276510,1.9968238000000003,-2.546917,1.012864,-8.251873577777777,1.7993884111111111,7.892531666666667
319,1715673276520,2.2645343799999997,-2.72390884,1.50915514,-8.744719,0.21138991499999998,7.85067207
320,1715673276530,2.36068641,-2.69588306,1.82564312,-8.3948611,-0.684214905,7.838546630000001
321,1715673276540,2.452582122222222,-2.6912478333333336,2.063460522222222,-7.170947,-1.5929838,7.843051400000001
322,1715673276550,2.5673936500000005,-2.7357267700000003,2.34252693,-5.8731637,-1.8393152999999998,7.584808300000001
323,1715673276560,2.5192444800000002,-2.5661925400000003,2.48168757,-4.9400214899999995,-1.5917316,7.46251319
324,1715673276570,2.3265313555555553,-2.268106622222222,2.4872995,-4.1464346,-0.804034388888889,7.301095666666667
325,1715673276580,2.2076837300000003,-2.15144885,2.42187901,-4.353041,-0.0002443360000000172,7.1622883
326,1715673276590,2.0824569200000003,-2.03496027,2.28899328,-5.04090589,1.0898141410000002,6.9789675
327,1715673276600,1.9571128222222223,-1.9460484777777778,1.9587593,-6.118002077777778,2.0383047,6.750044133333334
328,1715673276610,1.9883844,-2.10246401,1.6455228600000003,-6.744929539999999,1.8465539800000002,6.702230279999999
329,1715673276620,2.05645529,-2.31528138,1.51466166,-6.76782195,0.45381178499999997,6.84854758
330,1715673276630,2.1068912,-2.3846514,1.5547248,-6.1813455,-0.657291,7.0023484
331,1715673276640,2.224025422222222,-2.375545088888889,1.6877949333333335,-4.571104522222222,-2.2749978444444445,7.360315333333332
332,1715673276650,2.39815224,-2.13260011,1.9159410299999997,-3.1453299400000003,-3.18230243,7.55006542
333,1715673276660,2.4281661999999997,-1.8728166000000002,2.06585226,-2.27009744,-3.3692273,7.50047838
334,1715673276670,2.412498466666667,-1.5077708666666667,2.2237070333333335,-1.5376496,-3.0047443,7.229335766666667
335,1715673276680,2.3849256700000003,-1.37111049,2.26872998,-1.4964365599999998,-2.48315189,7.01656632
336,1715673276690,2.259115566666667,-1.2401333333333333,2.1777288,-2.1911736,-0.7009678799999999,6.566648799999999
337,1715673276700,2.1732425500000003,-1.20611909,1.7196308200000001,-3.3040631400000002,1.058598863,6.30281603
338,1715673276710,2.2364176111111114,-1.2217582666666666,1.480838411111111,-3.898694688888889,1.5883174777777778,6.361414755555555
339,1715673276720,2.5315502,-1.1354321,1.1689097,-4.966029,2.0250182,6.808857000000001
340,1715673276730,3.00014457,-0.7090901140000001,1.09137464,-5.258786,1.7302758,7.0231175
341,1715673276740,3.3597083,-0.29904184,1.1301879,-5.1595206,1.3568845,6.913315
342,1715673276750,3.645524477777778,0.02981203555555556,1.2095963444444444,-4.6704213999999995,1.0731714333333333,6.366522466666666
343,1715673276760,4.0047823,0.426939514,1.3187963999999999,-4.10257108,1.0946857600000002,5.55424651
344,1715673276770,4.378548,0.6857717,1.264769,-3.495269111111111,1.5959873222222223,4.181474566666667
345,1715673276780,4.61485488,0.5899124600000001,1.048512392,-3.41296509,2.0812635800000003,3.35769727
346,1715673276790,5.074345119999999,0.296614858,0.683698448,-3.5349549600000003,2.22324396,2.8794660399999996
347,1715673276800,5.518157499999999,0.058539992,0.44795298499999997,-3.490255,1.7670804,2.8343383999999996
348,1715673276810,6.382343799999999,-0.037502189444444445,0.3362323488888889,-2.8374521555555554,-0.02039609888888888,3.0365940888888887
349,1715673276820,7.0986457000000005,0.60857207,0.8340729999999998,-2.02016192,-1.210628021,2.8839405200000003
350,1715673276830,7.315243699999999,1.2574514,1.3952644,-0.63621616,-2.1856759,1.4605788
351,1715673276840,7.1531615,1.3621526,1.8096786999999999,-0.06650795434000001,-1.7481894099999997,-0.56233203
352,1715673276850,6.7411047,0.9146468222222224,1.8334199444444446,-0.05085453,-0.29092458,-2.9023736
353,1715673276860,6.21088704,0.32989729600000006,1.61505768,-0.293734546,0.659948244,-3.87548168
354,1715673276870,5.74575632,-0.128208695,1.40469172,-0.421161036,1.3281584350000002,-4.414662
355,1715673276880,5.184984455555555,-0.3873532333333334,1.1605825777777778,-0.38857816333333334,1.7492634777777778,-4.6825875888888895
356,1715673276890,4.655704890000001,-0.332830416,0.957007041,-0.37110063,1.8168659000000003,-4.7229047
357,1715673276900,4.212227700000001,-0.25263671,0.8695019150000001,0.23510677099999996,1.503629547,-5.12861064
358,1715673276910,3.64468221,-0.256045414,0.9177364239999999,0.8749117,0.97524637,-5.6731057
359,1715673276920,3.4051986,-0.2824555,1.0057294,1.0365704777777778,0.88378626,-5.9145839222222225
360,1715673276930,3.25182388,-0.329921684,1.0571958000000001,1.20529822,0.8567995999999999,-6.3014721
361,1715673276940,3.0310307,-0.48728454,1.0886002,1.317331,0.8999572399999999,-6.753268
362,1715673276950,2.91521894,-0.610218548,1.0834291600000001,1.4633276,0.8526152,-7.0495377
363,1715673276960,2.81938408,-0.72232265,1.09843,1.7277101599999998,0.71089448,-7.215448739999999
364,1715673276970,2.7962363999999997,-0.7654715,1.11386992,1.8760893199999997,0.639820292,-7.283453339999999
365,1715673276980,2.76523462,-0.96084874,1.25076818,2.43689404,0.501382923,-7.43685659
366,1715673276990,2.840965311111111,-1.1149227444444445,1.3528296666666666,3.053375844444444,0.6031276255555557,-7.624039333333333
367,1715673277000,2.9476536500000003,-1.2372367999999998,1.36175628,3.3695325599999997,0.794460778,-7.853924959999999
368,1715673277010,3.09111344,-1.35321923,1.22819361,3.6826011999999997,1.1429288,-8.441394
369,1715673277020,3.2225661,-1.5505784,1.027377,3.7207801,1.0668762,-8.905041
370,1715673277030,3.3030221400000004,-1.7480411,0.95559237,3.773162,0.7819075,-9.184512
371,1715673277040,3.34719535,-1.9358874,0.94289643,3.8700605,0.39087739,-9.372123300000002
372,1715673277050,3.3448537600000003,-1.9508638699999998,0.95894622,3.980245,-0.024740042,-9.528276
373,1715673277060,3.3752986666666667,-1.9710500333333334,0.9844476866666666,4.008650333333333,-0.18112154733333333,-9.632632666666666
374,1715673277070,3.4134917000000002,-2.0270085,0.98688686,3.9871176,-0.28309021,-9.75188305
375,1715673277080,3.4081499,-2.06037618,0.964788044,3.9002219000000005,-0.26484062,-9.808816
376,1715673277090,3.3841424700000005,-2.1206541899999998,0.9081810800000001,3.6580137200000005,-0.190895392,-9.8371296
377,1715673277100,3.3394360222222224,-2.1341760555555553,0.8748884555555556,3.2125232555555554,0.029236691111111116,-9.779290666666666
378,1715673277110,3.2382376,-2.1124403,0.81724274,2.4314726700000002,0.597074962,-9.740185700000001
379,1715673277120,3.20891872,-2.1555160599999996,0.7822163879999999,1.881465,1.0818423,-9.772164
380,1715673277130,3.15120817,-2.30332341,0.76325182,1.18544514,1.67519106,-9.73958985
381,1715673277140,3.040455188888889,-2.4667428777777776,0.7482956977777778,0.5910121,2.2105687,-9.625098
382,1715673277150,3.0273108,-2.485267,0.74656796,0.5910121,2.2105687,-9.625098
383,1715673277160,2.9101088,-2.61553677,0.726493598,0.10448849600000001,2.7086223699999996,-9.413250600000001
384,1715673277170,2.51572,-2.6378246599999997,0.6586603799999999,-0.4404338360000001,3.2211536,-8.821688
385,1715673277180,2.2934265000000003,-2.5903545,0.60531985,-0.2590068566666667,3.0839532,-8.357145333333333
386,1715673277190,1.97471282,-2.4539604,0.5349946400000001,0.42650615,2.51975806,-7.7256736
387,1715673277200,1.7911776400000001,-2.31137892,0.48845534199999996,1.13046726,1.9279518199999999,-7.3427834
388,1715673277210,1.58840972,-2.11417224,0.435013176,2.0653049,1.12936768,-6.97574502
389,1715673277220,1.2693423,-1.8323629000000001,0.430208,3.163671,0.18524489,-6.6685104
390,1715673277230,0.94542104,-1.6377175000000002,0.44539183,3.61630696,0.0501367648,-6.65644582
391,1715673277240,0.63686645,-1.5852754,0.3989867,3.6697728999999994,0.27870727,-6.726542499999999
392,1715673277250,0.286846018,-1.69025724,0.21424421200000002,3.2596380199999997,0.952735934,-6.773701300000001
393,1715673277260,-0.3401485744444444,-1.9268130111111113,-0.18090486777777778,2.5572345,1.7644843,-6.6691213
394,1715673277270,-0.910461641,-2.16461422,-0.6516661100000001,1.93433532,2.20953007,-6.29843308
395,1715673277280,-1.4239733700000001,-2.35007616,-1.0708063600000002,1.59145671,2.2381338800000004,-5.753205250000001
396,1715673277290,-1.9088856800000003,-2.50537777,-1.53840072,1.57148139,1.94152823,-5.0067892
397,1715673277300,-2.1361069666666666,-2.568245933333333,-1.7189824444444446,1.7875445,1.4999456466666665,-4.586155688888889
398,1715673277310,-2.3686748,-2.6308851,-1.8926715,2.044108,0.98792183,-4.1340303
399,1715673277320,-2.60312754,-2.91399924,-1.50378294,2.4683689899999997,-0.045982873,-2.6054318899999998
400,1715673277330,-2.7787599,-3.0736243,-1.04993325,2.4507914,0.25961772,-1.0809261
401,1715673277340,-2.833641,-3.078838,-1.1168334,2.0657935,1.3755158,-0.29764408
402,1715673277350,-2.8255734,-3.16165402,-1.33987086,1.7226399999999997,2.1745276,0.21456642
403,1715673277360,-2.730633444444445,-3.2675551777777776,-1.7008242666666666,1.1302534,2.7614164,1.0555751
404,1715673277370,-2.6057984000000003,-3.2886674,-1.8702676999999999,0.81701704,2.7361264000000003,1.83502388
405,1715673277380,-2.46037532,-3.24153046,-1.9083797,0.604909328,2.53191428,2.25800232
406,1715673277390,-2.24755792,-3.12701162,-1.77751838,0.404377517,2.2438914,2.7614927700000003
407,1715673277400,-1.83964995,-2.9021206,-1.3426698,0.132328682,1.7867808500000002,3.86761695
408,1715673277410,-1.2407295666666667,-2.6471394999999998,-0.7416760644444444,-0.03408967488888889,1.839654611111111,5.145487755555556
409,1715673277420,-0.7422871950000001,-2.55099031,-0.3410442885,-0.1730581192,2.1722979,6.005263520000001
410,1715673277430,-0.16328391400000003,-2.45684443,0.1134273535,-0.43050727,2.9880474,7.0608387
411,1715673277440,0.19799936,-2.3986156,0.2836141,-0.7449502,4.006665,7.8413715
412,1715673277450,0.709218206,-2.2906640200000004,0.37735129599999995,-1.4732238,4.880202280000001,8.3802767
413,1715673277460,1.0808191,-2.23076436,0.350496068,-2.46126776,5.6557874,8.9317354
414,1715673277470,1.53710183,-2.15161336,0.333934125,-3.8589885,5.94097,9.426872
415,1715673277480,1.7434961,-2.0731291,0.3549190866666667,-4.545702833333333,5.843231333333333,9.546398
416,1715673277490,1.9345641999999998,-1.9895367499999999,0.397401245,-5.4268505,5.47885035,9.581497500000001
417,1715673277500,2.14018585,-1.9798105499999998,0.4979254,-6.290843000000001,4.56659965,9.467342499999999
418,1715673277510,2.4632602333333335,-2.182620722222222,0.8810270155555556,-6.708030222222223,2.392351877777778,9.31763
419,1715673277520,2.6463862,-2.19878694,1.40930176,-6.3362454,0.9701150399999999,9.158993200000001
420,1715673277530,2.707231,-2.0829265,1.8700482,-5.438075,0.030543262000000005,8.737969
421,1715673277540,2.66386266,-1.9431011999999999,2.01303813,-4.94025044,0.0064446283000000005,8.4192802
422,1715673277550,2.47855314,-1.7200393900000002,2.1164101000000004,-4.2913284,0.41844270000000006,7.589542400000001
423,1715673277560,2.303976,-1.7359549,2.037436,-4.534453,1.0838276,7.007388
424,1715673277570,2.1401858,-1.837851,1.9098064999999997,-5.0249777,1.5848899,6.758002299999999
425,1715673277580,1.9829817000000003,-1.9562727,1.7584562,-5.8769817,1.9089538999999998,6.7720523
426,1715673277590,1.94676,-2.00862936,1.67843936,-6.178825600000001,1.8842902,6.851922650000001
427,1715673277600,1.9250378222222224,-2.079077888888889,1.5978845555555556,-6.539923388888889,1.7159035,7.0057756
428,1715673277610,1.9598095199999999,-2.22269066,1.52363772,-6.6480464,0.9429010960000002,7.3723186400000005
429,1715673277620,2.2263799300000002,-2.19050577,1.8154352200000001,-5.416496270000001,-0.9662055840000001,8.03519948
430,1715673277630,2.3990058500000004,-1.90182434,2.0453815700000004,-4.363822969999999,-1.50563016,8.0037391
431,1715673277640,2.4189827,-1.6192409,2.152016,-3.5731034,-1.3846788,7.575187
432,1715673277650,2.3217208,-1.5332602,2.0556076,-3.1891747,-0.7538077,7.0237284
433,1715673277660,2.25517425,-1.5727441899999999,1.8948544200000002,-3.25481216,-0.2324494941,6.795921730000001
434,1715673277670,2.19410967,-1.65245008,1.63848588,-3.6169331299999996,0.5703190737,6.704337580000001
435,1715673277680,2.26415656,-1.65396234,1.41354588,-3.9628966400000003,0.874759032,6.923088300000001
436,1715673277690,2.4397359,-1.5840964666666666,1.2826764333333334,-4.319580866666667,0.9837475800000001,7.256875333333334
437,1715673277700,2.64333718,-1.46227431,1.2514449300000001,-4.64967716,0.9732763199999999,7.5445369499999995
438,1715673277710,3.1881805777777776,-0.9044294222222222,1.3738944444444445,-5.4689237,0.8249225933333333,8.008035833333333
439,1715673277720,3.6519202999999996,-0.13122717,1.5289917,-5.6613464,0.7837401,7.772191000000001
440,1715673277730,3.83043082,0.215683323,1.59806884,-5.24443102,0.8527678850000001,7.012442780000001
441,1715673277740,4.1031055,0.72705466,1.6855861,-4.2197046,1.1349876,5.6900573
442,1715673277750,4.22993575,0.883411291,1.50244744,-3.65164566,1.5990008699999998,4.5823903999999995
443,1715673277760,4.372084,0.9622512499999999,1.2142782,-3.44723475,1.9793255600000002,3.49844066
444,1715673277770,4.552853777777778,0.93894365,0.9804976222222224,-3.7569740000000005,2.02624,2.5444064
445,1715673277780,4.7362521,0.8437748,0.892606975,-3.9842465,1.8233411499999999,2.26795932
446,1715673277790,5.1011878,0.606864636,1.10215571,-4.430574999999999,1.16925722,1.73494888
447,1715673277800,5.407815222222222,0.4921357422222223,1.5209085222222223,-4.568168777777777,0.6712560555555556,1.3254587666666666
448,1715673277810,5.64043872,0.5493125200000001,1.8255333399999998,-4.3662507999999995,0.54718254,1.11467634
449,1715673277820,6.1262599600000005,1.02635866,2.31711079,-3.15809695,0.7015023850000001,0.5547573069999999
450,1715673277830,6.277988,1.4134362,2.4098969,-2.0048597,1.0626001,-0.30650163
451,1715673277840,6.24676106,1.60667304,2.2313132300000005,-1.1679744,1.2212723,-1.426065
452,1715673277850,5.91735154,1.2879897900000001,1.92581366,-0.022647833400000005,0.8980024249999999,-3.08076135
453,1715673277860,5.53269515,0.9032904939999999,1.79183022,0.8431009273999999,0.44658829899999997,-4.07980122
454,1715673277870,4.940532,0.5375314,1.7347963,1.7332622444444443,-0.021617839999999992,-4.781106455555555
455,1715673277880,4.7565336,0.46267334799999993,1.7287960000000002,2.0792936400000004,-0.14996741600000002,-5.012393640000001
456,1715673277890,4.2759447999999995,0.312323116,1.6852814000000003,2.5103202,-0.100426248,-5.42698796
457,1715673277900,3.909902933333333,0.25033980666666666,1.6330018666666666,2.434824022222222,0.22126896,-5.755199244444444
458,1715673277910,3.6908372,0.1958101948,1.59277588,2.14288468,0.582948712,-6.0265828599999995
459,1715673277920,3.3112052800000003,-0.025099024799999998,1.4914041199999999,1.5705346,1.1656836,-6.439131000000001
460,1715673277930,3.1031201299999998,-0.20767064600000001,1.40273428,1.5117387599999998,1.3224468799999998,-6.596092539999999
461,1715673277940,2.9555993,-0.40502363,1.273306,1.7357736,1.3497068,-6.7891564
462,1715673277950,2.95318442,-0.483613583,1.1996005,2.29146249,1.024100327,-6.94446877
463,1715673277960,2.9254756,-0.50332206,1.135798,2.904749077777778,0.6241176522222223,-7.122586855555555
464,1715673277970,2.93562248,-0.5098590279999999,1.14326192,3.29749646,0.366763519,-7.2599655
465,1715673277980,2.96801472,-0.586387868,1.18189824,3.92685572,0.066126172,-7.6147104
466,1715673277990,3.0236764799999998,-0.70939504,1.20265556,4.4251994,-0.015118915160000001,-8.0710882
467,1715673278000,3.088581233333333,-0.9121128911111112,1.069201988888889,4.435119444444444,0.15003528578888886,-8.447537222222222
468,1715673278010,3.15464125,-1.1063145479999998,0.889454368,4.2521106,0.205754685,-8.8048899
469,1715673278020,3.184515,-1.2363525999999998,0.80102235,3.8998246500000002,0.0954629662,-9.1072679
470,1715673278030,3.2042723000000004,-1.363982,0.8682213400000001,3.4643695,0.018936822,-9.310961
471,1715673278040,3.225106911111111,-1.3816997777777777,0.8865489844444444,3.258711566666667,0.13693562733333334,-9.374796
472,1715673278050,3.3031319199999998,-1.43862661,0.8543974200000001,2.9601002,0.44654249999999995,-9.527513
473,1715673278060,3.33964004,-1.5753662199999998,0.7145721899999999,2.819296,0.592692,-9.606467
474,1715673278070,3.301656,-1.6869277,0.56302065,2.726308622222222,0.5587550222222222,-9.620041222222222
475,1715673278080,3.2734592,-1.7009773000000004,0.444867434,2.65616424,0.322628484,-9.6440964
476,1715673278090,3.2630806,-1.71916132,0.39055937199999996,2.6368609,0.142331612,-9.652159800000002
477,1715673278100,3.2514398,-1.733607325,0.42947627,2.58014205,-0.50892709,-9.64487525
478,1715673278110,3.249485122222222,-1.738617688888889,0.4828804822222222,2.4797565333333336,-0.7789040866666667,-9.673305666666668
479,1715673278120,3.1949179400000003,-1.7943120000000001,0.49126037999999994,2.27996294,-0.92109317,-9.7334046
480,1715673278130,3.07673424,-1.87484107,0.48171102899999996,1.9759047299999999,-0.876942874,-9.7507841
481,1715673278140,2.8905954,-1.9741396,0.47124702000000007,1.3932309,-0.6047566,-9.713216
482,1715673278150,2.7156586000000003,-2.01019048,0.397145116,0.72295904,-0.20219639000000003,-9.577603
483,1715673278160,2.50649984,-2.0306672800000003,0.320811384,0.284357776,0.0379958212,-9.4342942
484,1715673278170,2.197431788888889,-2.0117436111111116,0.19773511555555556,-0.3335324333333334,0.36261640377777776,-9.148419888888888
485,1715673278180,1.90609908,-2.05468078,0.008683434,-0.626503396,0.433195098,-8.8241928
486,1715673278190,1.62478989,-2.03591746,-0.0911455602,-0.7385971720000001,0.29665144099999996,-8.4953485
487,1715673278200,1.375290222222222,-1.9609476666666668,-0.0880268131111111,-0.7758328133333333,0.14336668155555554,-8.166572555555554
488,1715673278210,0.916980328,-1.85301058,0.0185376686,-0.780594172,0.0989296264,-7.543880400000001
489,1715673278220,0.6524364322222221,-1.8477501,0.05473219333333333,-0.8393797333333333,0.49729523333333325,-6.717074333333333
490,1715673278230,0.1924746415,-1.8042028399999999,0.012250715499999999,-0.9097005499999999,1.077993868,-5.99089315
491,1715673278240,-0.16095451249999998,-1.76309065,-0.20178006750000002,-0.849484515,1.5673275,-5.47816335
492,1715673278250,-0.7179748220000001,-1.8277711799999998,-0.908790838,-0.573541368,1.88522174,-4.531474810000001
493,1715673278260,-1.0362799,-1.9921894,-1.2087901,-0.48915034999999996,1.452943,-3.9704714
494,1715673278270,-1.44026083,-2.05365634,-1.11713833,-0.621509579,0.94549726,-3.32819234
495,1715673278280,-1.7089168000000001,-2.09268304,-1.03924352,-0.8244848319999999,0.869322352,-3.0513329600000003
496,1715673278290,-1.95361403,-2.1967744000000002,-1.0229987600000001,-1.04184597,0.9659306620000001,-2.86547716
497,1715673278300,-2.1299210666666664,-2.3394453333333334,-1.0451626666666667,-1.1690603444444445,1.0329391555555556,-2.6258042222222224
498,1715673278310,-2.4563323,-2.69604145,-1.0753981,-1.100321,0.9020188749999999,-1.9343812
499,1715673278320,-2.68636404,-2.93152478,-0.8599282,-0.61999764,0.508514774,-0.645837288
500,1715673278330,-2.6567404,-2.9196827,-0.58381456,-0.09239337,0.5688683,0.57619864
501,1715673278340,-2.4775226,-2.813274,-0.43856218,0.11911871999999998,0.93844175,1.2151637
502,1715673278350,-2.3097445199999997,-2.62162245,-0.48005848,0.15499179300000002,1.5155719250000002,1.7670041
503,1715673278360,-2.1998234,-2.3992865,-0.65253806,0.1956296,2.0810652,2.0059288
504,1715673278370,-2.1405211700000004,-2.28938972,-0.836298762,0.39616139,2.20064217,2.0989788999999996
505,1715673278380,-1.9939578,-2.2231784,-1.0431097,0.459111053,2.1918304300000004,2.12176418
506,1715673278390,-1.8587303599999998,-2.23854512,-1.08077042,1.0750923660000002,1.64805332,2.4227832
507,1715673278400,-1.5270741666666667,-2.226830533333333,-0.9763577777777778,1.3368615888888888,1.1688397444444445,2.7769595555555555
508,1715673278410,-1.1904841,-2.19470132,-0.7883752580000001,1.45019408,0.8983384400000001,3.2451605
509,1715673278420,-0.6085111,-2.087378,-0.39801103,1.52604829,0.78374011,4.1774322900000005
510,1715673278430,-0.3520733933333333,-2.014419777777778,-0.27296309222222226,1.4564555,1.0812315,5.001154
511,1715673278440,0.03561183,-1.9049891000000003,-0.1723881,1.3367258,1.3889549,5.578574
512,1715673278450,0.36270407,-1.8537057999999997,-0.19696271,1.1458305,1.7667749999999998,6.296799
513,1715673278460,0.666197417,-1.8255515500000001,-0.27368671099999997,0.91533573,1.95741075,6.9639555
514,1715673278470,1.0423779222222223,-1.7394375222222225,-0.34763545777777777,0.5511701333333333,1.9348816555555557,7.691166666666667
515,1715673278480,1.43148595,-1.6308817700000002,-0.355923204,-0.005879581000000002,1.68215486,8.3016897
516,1715673278490,1.7052945999999998,-1.5886049199999999,-0.257295504,-0.664774128,1.45822696,8.6622222
517,1715673278500,1.9108066000000001,-1.5675183,-0.1093722362,-1.0722976,1.3820063,8.8050115
518,1715673278510,2.1977299111111113,-1.5969698888888888,0.12721609688888888,-1.9027603888888887,1.3965567555555554,9.037462333333332
519,1715673278520,2.7432759,-1.73319874,0.5331469529999999,-2.79023393,1.44585695,9.5001458
520,1715673278530,3.0885339,-1.7001601000000002,0.8427321300000001,-3.6829066,1.4986051,10.373561
521,1715673278540,3.3592202999999996,-1.4835012,1.1374444,-4.0571838399999995,1.85568644,10.701565200000001
522,1715673278550,3.5051436,-1.2898313,1.171044,-4.180456,2.1105394,10.658682
523,1715673278560,3.5061860699999996,-1.04978078,1.07533098,-4.249728370000001,2.1531472899999997,10.2273813
524,1715673278570,3.3600984599999997,-0.8624649,0.8913202800000001,-4.13977289,1.8828546400000001,9.382417199999999
525,1715673278580,3.069874177777778,-0.7226776888888888,0.6590221666666667,-3.7675114000000005,1.1273518,8.222551
526,1715673278590,2.880229,-0.70876086,0.54192185,-3.41125477,0.397520542,7.488871900000001
527,1715673278600,2.6579722,-0.7905705239999999,0.508212562,-2.91584294,-0.5243667160000001,6.77962672
528,1715673278610,2.3797932444444445,-1.0595469044444445,0.6238033377777779,-2.436486866666667,-1.2138910133333334,6.390770466666667
529,1715673278620,2.28565155,-1.1663485,0.688424325,-1.95699844,-1.6933490199999999,6.3251127799999995
530,1715673278630,2.23708164,-1.32367476,0.8034737200000001,-1.54509202,-1.93595412,6.64939052
531,1715673278640,2.3133423300000002,-1.38723335,0.9429208929999999,-1.3592362,-1.91043524,7.35643643
532,1715673278650,2.45249071,-1.28875202,1.0660926769999999,-1.7315891399999999,-1.32956355,8.07374507
533,1715673278660,2.6561644666666666,-1.0332920555555554,1.1548098999999998,-2.2879788555555556,-0.6654697933333333,8.361998888888888
534,1715673278670,2.77199114,-0.73233542,1.1165286,-3.09803356,0.136894906,8.267664
535,1715673278680,2.75538026,-0.510090756,0.9883259800000002,-3.8079659300000004,0.750814464,7.9345134999999996
536,1715673278690,2.61482332,-0.398937914,0.70612654,-4.62938105,1.2488222759999998,7.059769660000001
537,1715673278700,2.5050039666666666,-0.39382378,0.4960451833333333,-4.606025666666667,1.0419833666666667,6.683884
538,1715673278710,2.3891517,-0.35495972400000003,0.35067898799999997,-3.9982045999999998,0.27858510000000003,6.37477596
539,1715673278720,2.3376365,-0.32471406,0.30270058,-3.622889,-0.1498147,6.2664084
540,1715673278730,2.4884318,-0.091871214,0.5869671550000001,-1.87931159,-1.42236922,6.40133313
541,1715673278740,2.8487296444444445,0.22658506,0.947541748888889,-1.2745703,-1.3999504,6.570314
542,1715673278750,3.17948423,0.525122103,1.084423046,-2.01222076,-0.42467351999999997,6.5024927
543,1715673278760,3.4045887,0.71601737,1.0532932,-2.7171285,0.3736968,6.335589
544,1715673278770,3.64313942,1.093600354,0.849671552,-3.6364809,1.38956576,5.690759399999999
545,1715673278780,3.8094052300000003,1.36044516,0.674935762,-4.051578900000001,1.9008445999999999,5.0285053
546,1715673278790,4.023080333333334,1.5314307666666667,0.5114119533333333,-4.009210333333333,1.9735528666666668,4.224184133333334
547,1715673278800,4.545204,1.6120452999999997,0.29410252,-3.5379483,1.4989412,3.1918318999999995
548,1715673278810,4.83728208,1.46035345,0.406993264,-3.01312345,0.76497124,2.20394056
549,1715673278820,4.955810888888888,1.3404033777777777,0.5096774444444444,-2.8485834000000003,0.5024366333333333,1.8097051777777777
550,1715673278830,5.098724300000001,1.22607154,0.78607028,-2.39770708,0.07687738879999999,1.080681728
551,1715673278840,5.0689238,1.40796027,0.9166388399999998,-1.9712163099999997,0.0825278951,0.853363496
552,1715673278850,4.984986,1.7853479999999997,0.8812099,-1.4181237,0.19776763,0.5554292
553,1715673278860,4.960533,1.9257221,0.7299816,-0.8805622511111111,0.15419257222222224,0.14614950755555556
554,1715673278870,4.9532156,1.8698652,0.58021677,-0.095753126,-0.17684549,-0.49602258
555,1715673278880,4.88433352,1.7532242400000002,0.48879681,0.4418082868,-0.5542380179999999,-1.018556676
556,1715673278890,4.8198745999999995,1.7076131555555554,0.47591529111111114,0.7354308577777778,-0.8002165011111111,-1.3862738000000001
557,1715673278900,4.64002676,1.6882448499999998,0.541824309,1.0655323190000001,-1.145402842,-2.10798904
558,1715673278910,4.37715783,1.6188322800000001,0.690857384,1.08908114,-1.163255434,-2.93180189
559,1715673278920,3.9435227,1.3846539,0.88358814,0.8587238000000001,-0.82619524,-3.8087450000000005
560,1715673278930,3.6681678555555552,1.1119009222222223,0.91605614,0.4537880311111111,-0.1697187288888889,-4.320785888888889
561,1715673278940,3.38295354,0.9167242400000001,0.875331568,0.1128878986,0.4390288495,-4.6786473
562,1715673278950,3.0755575200000003,0.7787588540000001,0.75403789,-0.0253356362,0.771202084,-4.93258406
563,1715673278960,2.8720699,0.686430289,0.662556926,0.095753126,0.9129381000000001,-5.2732944
564,1715673278970,2.6800954,0.57710683,0.61717016,0.50793445,0.7834347,-5.5886536
565,1715673278980,2.5960904399999998,0.519396134,0.602925472,0.8524624580000001,0.65735206,-5.79011688
566,1715673278990,2.50454856,0.429744588,0.5649719799999999,1.5144876660000002,0.419252087,-6.22821422
567,1715673279000,2.4558141,0.3327633,0.5000902,1.9359847,0.23777929,-6.5625253
568,1715673279010,2.44566105,0.281510315,0.4683505250000001,2.0683897,0.1469130875,-6.701726150000001
569,1715673279020,2.455387211111111,0.17683958111111112,0.4391448677777778,2.2481028444444444,0.006091682777777777,-6.937494588888889
570,1715673279030,2.5548441,-0.06866254,0.4547826,2.4234552,-0.18402316,-7.3752813
571,1715673279040,2.62344576,-0.122080294,0.46012438199999994,2.36847726,-0.1102611784,-7.62781332
572,1715673279050,2.71762204,-0.239501776,0.481284152,2.18246874,0.1158505924,-8.0362376
573,1715673279060,2.8349216,-0.4806988,0.4802109600000001,1.7676912999999999,0.49602258,-8.446892
574,1715673279070,2.8504779555555557,-0.6464537333333333,0.4382030666666667,1.4509067666666668,0.7135075788888889,-8.568403444444444
575,1715673279080,2.8782165,-0.7724352999999999,0.347721504,1.1370493,0.8772177649999999,-8.626486799999999
576,1715673279090,2.8633920222222224,-0.8638105444444445,0.2983642888888889,1.1432343444444446,0.7509570000000001,-8.591785444444445
577,1715673279100,2.87974122,-0.91716332,0.29746858400000004,1.2339172600000001,0.60784144,-8.538796000000001
578,1715673279110,2.95889211,-0.9275663599999999,0.351508328,1.48121075,0.36812265,-8.479466
579,1715673279120,3.03023783,-0.8835454589999999,0.369021536,1.67477865,0.22684480699999998,-8.6316175
580,1715673279130,3.190911011111111,-0.9125870633333333,0.34598901777777774,1.6836464111111111,0.18689082999999998,-9.022090111111112
581,1715673279140,3.3084245,-0.9670686,0.31343293,1.4886786,0.15683965,-9.426109
582,1715673279150,3.27582533,-1.0638243600000001,0.238300498,1.29103311,0.15601497999999997,-9.761611
583,1715673279160,3.1883994299999996,-1.21979072,0.15602739499999999,1.118647,0.1414153,-10.0323925
584,1715673279170,3.054527811111111,-1.3917072222222222,0.04130322266666667,1.002582591111111,-0.009264789777777779,-10.131488055555556
585,1715673279180,2.91338944,-1.4607376799999998,-0.0139398376,0.91415983,-0.37293324,-10.141432
586,1715673279190,2.6888033800000004,-1.49341024,0.00324409165,0.878729646,-0.6073833200000001,-10.075092000000001
587,1715673279200,2.5408935555555554,-1.5425561666666665,-0.01823277172222222,0.8268739777777778,-0.7492601477777777,-9.96954088888889
588,1715673279210,2.44427674,-1.5682013000000001,-0.021050009,0.69829533,-0.851393425,-9.783312
589,1715673279220,2.10895228,-1.5990444799999999,0.013561768000000002,0.3468951,-0.9166033,-9.364488
590,1715673279230,1.6540261333333333,-1.6268698888888888,0.04184526011111111,-0.3950262,-0.6474493022222222,-8.605072
591,1715673279240,1.3140401,-1.5844827,0.049027253,-0.9592112,-0.29794952,-8.092743
592,1715673279250,0.9501164000000001,-1.4757568,0.032745812,-1.4613423,0.15118915,-7.6541414
593,1715673279260,0.63076854,-1.439962,0.005305188,-1.7259996999999998,0.49938235,-7.362606000000001
594,1715673279270,0.282437202,-1.4935261299999998,-0.044307463199999994,-1.90027957,0.8216901250000002,-6.8552976
595,1715673279280,-0.077156942,-1.58789154,-0.05832657299999999,-1.8885815799999999,0.9467037100000001,-6.2990439
596,1715673279290,-0.4037837266666667,-1.703432722222222,-0.10641542777777778,-1.653510388888889,1.0072149666666668,-5.607437444444445
597,1715673279300,-0.676149231,-1.7600905,-0.158137273,-1.26919474,0.9640064200000001,-4.868351720000001
598,1715673279310,-0.8425491900000001,-1.7696398599999998,-0.177242048,-0.96742732,0.893268224,-4.37831564
599,1715673279320,-1.177398,-1.7997513400000003,-0.229379246,-0.37626245599999997,0.8094575199999999,-3.1694133200000003
600,1715673279330,-1.3483240222222221,-1.7817232333333333,-0.2876048411111112,-0.15714508,0.8503244,-2.204002
601,1715673279340,-1.38586744,-1.74116256,-0.319671087,-0.37287214399999996,1.0253220200000002,-1.8627725800000001
602,1715673279350,-1.39768531,-1.66844502,-0.31451226,-0.9566914099999998,1.45547801,-1.50830263
603,1715673279360,-1.42707112,-1.67500621,-0.318896658,-1.4249959,1.9344881099999998,-1.43334941
604,1715673279370,-1.5010632,-1.709063,-0.38075393,-1.6174184,2.4010057,-1.5519031
605,1715673279380,-1.566067,-1.753456,-0.5050904,-1.3475688,2.550057,-1.711339
606,1715673279390,-1.6318147,-1.89653134,-0.66567299,-0.56866974,2.4763866,-1.83710095
607,1715673279400,-1.7060412444444446,-2.0550928,-0.8400287333333334,0.2754493277777778,2.240144577777778,-1.8795814555555554
608,1715673279410,-1.8147644,-2.1992136,-1.06801356,1.28358062,1.7777705999999998,-1.8993632999999999
609,1715673279420,-1.88379279,-2.32119021,-1.25193281,2.15264334,1.2094827000000001,-1.8715231199999998
610,1715673279430,-1.8474735800000002,-2.56732058,-1.171970784,3.1980323,0.0032833800000000024,-1.53548615
611,1715673279440,-1.6594871,-2.6878397,-0.67814934,3.195435977777778,-0.6570194711111111,-0.5269391377777778
612,1715673279450,-1.4449013,-2.696194,-0.25275865,2.32389925,-0.0030237716000000247,0.5930127119999999
613,1715673279460,-1.1972649,-2.7138777,0.032684833,1.3092369,1.0685561,1.7408133
614,1715673279470,-0.9606048,-2.6146648,0.11159187600000002,0.49388456,2.0554087,2.7128525
615,1715673279480,-0.61682864,-2.394408,0.08422442720000001,-0.358135009,3.12541573,3.9814668499999994
616,1715673279490,-0.324256732,-2.1683886199999995,-0.010646961500000001,-0.7885812050000001,3.65828866,4.8511558
617,1715673279500,0.004670999999999992,-2.00860488,-0.13882518,-1.0218554,3.7794232,5.80395296
618,1715673279510,0.3612338033333333,-1.8786597888888887,-0.24897118111111116,-1.1227534333333336,3.6456947222222222,6.424452711111111
619,1715673279520,0.5631853,-1.8022454499999998,-0.27488190700000004,-1.16915035,3.4177605200000003,6.785399389999999
620,1715673279530,1.2828188,-1.5335652,-0.23964813000000001,-1.4447302,2.2225313333333334,8.024054733333335
621,1715673279540,1.61295995,-1.463660125,-0.013415416249999992,-1.7682640250000001,1.51372405,8.657945999999999
622,1715673279550,1.9729199999999998,-1.4005696,0.25519782,-2.2107213,1.0893254,9.215818
623,1715673279560,2.2547901,-1.35364603,0.43114710900000003,-2.45056225,1.05404795,9.4264145
624,1715673279570,2.5519173,-1.3041614,0.49393123,-3.179859,0.9735665,9.986272
625,1715673279580,2.7556364199999996,-1.2769891599999998,0.520762086,-3.5194848,0.798736874,10.2202036
626,1715673279590,2.9687220400000003,-1.2162905,0.58859532,-3.79619148,0.548282112,10.3785088
627,1715673279600,3.1355975999999997,-0.99838144,0.7987051270000001,-4.126853,0.34223726,10.166631
628,1715673279610,3.054162,-0.8552464,0.8711009955555555,-4.239693466666666,0.4439123688888889,9.790693666666666
629,1715673279620,2.8875161,-0.831255809,0.79344263,-4.33595232,0.5437006,9.0747398
630,1715673279630,2.6929010888888887,-0.9026610833333333,0.6199277644444445,-4.235892422222222,0.3747997588888889,8.589546222222221
631,1715673279640,2.38670647,-1.10345465,0.329415555,-3.7341428700000003,-0.426765744,7.9162029
632,1715673279650,2.3483686,-1.3247725,0.19190145,-3.067918,-1.5378532,7.9302526
633,1715673279660,2.4435997499999997,-1.40963105,0.30224323399999997,-2.60353828,-2.38440562,8.26998563
634,1715673279670,2.625275111111111,-1.4375093222222222,0.6567253377777778,-1.9036087999999998,-3.2805670444444446,8.978937944444446
635,1715673279680,2.87016748,-1.3142961,1.0482684599999998,-1.6291471000000002,-3.13343324,9.4167314
636,1715673279690,3.1489642,-1.0498784,1.2506217,-1.6668984999999998,-2.1056526,9.577451
637,1715673279700,3.1620259,-0.87612431,1.0890512700000001,-1.9485227200000002,-1.33211394,9.3424205
638,1715673279710,3.1205478666666666,-0.7480314555555556,0.7760683333333334,-2.289047811111111,-0.8005049955555555,8.897116666666667
639,1715673279720,3.0253715399999996,-0.707358348,0.457660844,-2.42397432,-0.787924534,8.3366004
640,1715673279730,2.9343242444444444,-0.7030017222222222,0.33581226666666664,-2.207293688888889,-1.1819224333333334,8.029569222222221
641,1715673279740,2.84781248,-0.71643203,0.350233849,-1.4053107500000002,-2.14093008,7.845510419999999
642,1715673279750,2.9864668799999996,-0.66845362,0.5419950840000001,-0.8023104199999999,-2.5612969199999998,8.25926432
643,1715673279760,3.22476733,-0.33423291,0.87483764,-0.662636105,-2.38460406,8.8055611
644,1715673279770,3.4200773888888887,0.1371353688888889,1.0013117999999999,-1.1350554111111113,-1.4858788444444444,9.173991
645,1715673279780,3.7221074200000004,0.708303514,0.6929245500000001,-2.04190866,-0.33957999400000005,9.0717149
646,1715673279790,3.8518709899999997,1.21083889,0.333159675,-2.2568569,-0.149936873,8.7755827
647,1715673279800,3.905295277777778,1.8252080555555554,0.04130999755555556,-2.221377511111111,-0.26628633,7.069136555555556
648,1715673279810,3.85554202,2.13428903,-0.0051344456,-1.45782992,-0.581696416,5.6842234
649,1715673279820,3.8049294199999997,2.2880602800000003,-0.053393359200000004,-0.834365575,-0.686307105,4.7858237500000005
650,1715673279830,3.7423770000000003,2.5031339200000002,-0.141605824,-0.181121543,-0.68928507,3.94191335
651,1715673279840,3.7365392000000006,2.6217994,-0.21152318888888888,-0.08141476133333334,-0.5668320266666667,3.5997440000000003
652,1715673279850,3.7921723999999997,2.7302203,-0.32075045,-0.4700608,-0.24969117000000002,3.3081407999999994
653,1715673279860,4.175902160000001,2.5048229500000003,-0.47123484200000004,-2.87135674,0.253631265,2.99531664
654,1715673279870,4.341411688888889,2.4804225222222223,-0.47342194666666665,-3.5978435666666666,0.4218024688888889,2.990507733333333
655,1715673279880,4.8072925,2.7480872,-0.5255185,-4.212572400000001,0.547060416,3.0673834199999996
656,1715673279890,5.2058404,3.18236231,-0.492644632,-3.94189815,0.355141798,2.8308105599999998
657,1715673279900,5.5218467,3.50263102,-0.3444957,-3.51953066,0.263420362,1.91597892
658,1715673279910,5.6447602777777774,3.5580327777777776,-0.25223693555555554,-3.385754511111111,0.33768969444444447,1.3103060111111111
659,1715673279920,5.695234449999999,3.17778295,-0.17702251900000002,-2.998493,0.664651954,-0.7406130679999999
660,1715673279930,5.609338111111111,2.7758461666666667,-0.1653890477777778,-2.520684388888889,0.5981388999999999,-1.9350345333333334
661,1715673279940,5.245599199999999,2.11273294,0.010634768,-1.1392636,-0.010079277,-3.5411859
662,1715673279950,4.874656539999999,1.8238259499999998,0.232355029,-0.473054021,-0.1364367481,-4.00011367
663,1715673279960,4.4482474,1.6039351,0.37727812,0.3323107,-0.008246681,-4.647157
664,1715673279970,4.0437727,1.3427002,0.32099435,0.6348417,0.4821253999999999,-5.162422
665,1715673279980,3.71135662,1.11807136,0.18022392799999998,0.6593068499999999,1.01060018,-5.56527235
666,1715673279990,3.36653185,0.947829737,-0.037868067000000005,0.61130813,1.22476949,-5.79352235
667,1715673280000,3.128841,0.84035397,-0.19885308,0.531040427,1.21427796,-6.0478407
668,1715673280010,3.0476438,0.7887520155555556,-0.22522316888888888,0.4888958288888889,1.0924137555555555,-6.2680375
669,1715673280020,2.93288445,0.69836395,-0.20763406999999998,0.426903176,0.9686796000000001,-6.536380199999999
670,1715673280030,2.73707446,0.47149095600000007,-0.14080089999999998,0.268734883,0.9353416250000001,-6.99701855
671,1715673280040,2.656536977777778,0.2645140744444444,-0.13557701555555554,0.12376808422222224,0.9993755833333332,-7.2693135
672,1715673280050,2.6356414999999997,0.164570579,-0.131830858,0.0877966058,0.9782548679999999,-7.45414437
673,1715673280060,2.6333854,0.056893559999999996,-0.066772185,0.12599096,0.9257663,-7.7505054
674,1715673280070,2.6626554,-0.034880083,-0.01750102,0.1366811,1.0332786,-8.027075
675,1715673280080,2.7068043,-0.1568994,0.0056710625,0.0994335875,1.1679743999999999,-8.22265895
676,1715673280090,2.75680718,-0.28871196,0.0065979461,0.0095294974,1.35874764,-8.3824461
677,1715673280100,2.8091638199999998,-0.425524844,-0.019757249,-0.1282206144,1.5783842,-8.4822
678,1715673280110,2.8443732,-0.50307816,-0.06738198,-0.24801129,1.7666223,-8.59182
679,1715673280120,2.86023408,-0.52228659,-0.065461137,-0.23041837000000004,1.79704334,-8.672576
680,1715673280130,2.8930041799999997,-0.5683136440000001,-0.0480942712,-0.1202946375,1.83925413,-8.7589674
681,1715673280140,2.9613314,-0.6461353,-0.06018644199999999,0.056046885000000005,1.8547395000000002,-8.803179
682,1715673280150,2.991943,-0.67723465,-0.10464026,0.159486735,1.7818429666666669,-8.782206333333333
683,1715673280160,3.00609,-0.6854668,-0.1030548,0.3651447,1.5491543,-8.765763
684,1715673280170,3.0063949,-0.7068095,-0.06012545500000001,0.477437016,1.36896431,-8.7790956
685,1715673280180,2.96892938,-0.73422574,-0.037246075000000003,0.574304978,1.2253804,-8.8556217
686,1715673280190,2.9143165555555557,-0.7985154222222222,-0.04746211577777778,0.68019848,1.0920573333333334,-8.988848
687,1715673280200,2.8518738,-0.90054032,-0.0694308772,0.7355122940000001,0.9856005,-9.019608600000002
688,1715673280210,2.80685892,-0.9661417200000001,-0.0761263948,0.81840668,0.810007304,-8.9799024
689,1715673280220,2.7107679300000003,-1.016845975,-0.0726566778,0.8936042000000001,0.6419888119999999,-8.9123098
690,1715673280230,2.6048876888888888,-1.0417681222222221,-0.07749097,0.9208623666666667,0.48806435555555555,-8.840644777777777
691,1715673280240,2.43364192,-1.0533297400000001,-0.066308746,0.71669763,0.2959642,-8.657335
692,1715673280250,2.2655592,-1.0631108,-0.05372265,0.5297729,0.25320363,-8.531802
693,1715673280260,2.0338383,-1.0999422,-0.09585925,0.2773328,0.25992316,-8.3444195
694,1715673280270,1.8225575800000002,-1.12047996,-0.10756725,0.0789237864,0.17843374399999998,-8.0862671
695,1715673280280,1.5547005200000001,-1.14654248,-0.0735164868,-0.0950506374,0.047372601199999996,-7.6169701199999995
696,1715673280290,1.28092834,-1.18045914,-0.0424658924,-0.0667675736,-0.09831875920000001,-7.05641
697,1715673280300,0.9439032333333333,-1.245303011111111,-0.013381539777777778,0.151290957,-0.26927280333333337,-6.495228377777778
698,1715673280310,0.78510675,-1.2614150499999999,-0.0123482815,0.40103303500000004,-0.44264823,-6.1297274999999996
699,1715673280320,0.47588143800000005,-1.2458044000000001,0.012549513000000002,0.8751561200000001,-0.7730805000000001,-5.5757338
700,1715673280330,0.2485104411111111,-1.2314675555555556,0.03349111388888889,1.357274711111111,-1.1581326333333335,-5.056419888888889
701,1715673280340,-0.082230416,-1.26329932,0.0355691506,1.5534914199999998,-1.48223402,-4.57421985
702,1715673280350,-0.3026701,-1.30495415,0.075278784,1.5656476,-1.6509397,-4.28285275
703,1715673280360,-0.564032918,-1.3867272800000001,0.21881764399999998,1.4111598,-1.6083165000000001,-4.01595036
704,1715673280370,-0.9794812733333335,-1.5992058222222223,0.47083369777777784,1.0621249888888888,-1.0767348666666665,-3.7922174888888884
705,1715673280380,-1.40267944,-1.78686048,0.531116384,0.526657464,-0.243338184,-3.53671124
706,1715673280390,-1.8148010799999998,-2.12933776,0.361960149,0.0875675324,0.424872054,-3.09517788
707,1715673280400,-2.060370777777778,-2.3984393555555554,0.17630432777777777,0.24757010177777777,0.5185227666666666,-2.2097881333333333
708,1715673280410,-2.1290876,-2.48384006,0.10301821200000001,0.9013622480000001,0.21071796999999998,-1.07778012
709,1715673280420,-2.06213252,-2.50324364,0.134739576,1.3363899,-0.0038484476000000016,-0.3755905
710,1715673280430,-1.7621637999999997,-2.49929232,0.40680422400000005,1.61567744,-0.05329799279999999,0.47873508
711,1715673280440,-1.6597106666666666,-2.4834376666666667,0.5304984266666667,1.1706553666666666,0.3715587782222223,0.7805839555555555
712,1715673280450,-1.55272469,-2.51462848,0.709395038,-0.07360925100000001,1.42116272,0.296865234
713,1715673280460,-1.5405166555555556,-2.7639892222222224,0.6005431622222223,-0.72859255,2.0618060555555555,-0.15171516666666668
714,1715673280470,-1.7046727,-3.178661,0.28349215,-1.3077098,2.871983,-1.0792462
715,1715673280480,-1.85641945,-3.5920265899999997,-0.030648134,-0.895742248,2.55812044,-1.14961788
716,1715673280490,-1.8937689999999998,-3.9087577888888885,-0.11986471666666665,0.27076602,1.3516921,-0.4859433
717,1715673280500,-1.7057275600000001,-3.8888242699999997,0.20466436799999999,1.2510214320000002,0.469434682,0.57540456
718,1715673280510,-1.5074903100000001,-3.71270455,0.5209389520000001,1.79588267,0.253066201,1.3738665
719,1715673280520,-1.1785307333333332,-3.3584144222222223,0.8686346833333334,2.296055788888889,0.7150007911111111,2.5069570000000003
720,1715673280530,-0.7415554299999999,-3.16086736,0.9397255400000001,2.4169036299999997,1.6681508099999998,3.49599701
721,1715673280540,-0.04911261599999999,-2.9870889499999995,0.8252249700000001,2.14966537,3.11301498,4.80918959
722,1715673280550,0.44697732,-2.8787045,0.6919306,1.5005904,4.3104177,6.0460386
723,1715673280560,1.1059182,-2.6514351,0.40709692,0.75670934,5.123327,7.1260486
724,1715673280570,1.5055757,-2.4842913,0.15555786,0.22067507000000003,5.425858,7.9299474000000005
725,1715673280580,1.9438125,-2.3737157444444446,-0.006348609333333335,-0.13934514222222222,5.338436088888889,8.671723866666667
726,1715673280590,2.27080322,-2.30052452,-0.0548324668,-0.452467884,5.06385888,9.469235999999999
727,1715673280600,2.7012370399999996,-2.15588798,-0.0572289497,-0.7648032779999999,4.52438853,10.3897182
728,1715673280610,3.074922022222222,-2.0710828,0.015427730666666663,-1.0461916133333333,3.8949447000000004,11.095518888888888
729,1715673280620,3.5789833200000003,-2.0449119700000002,0.169686729,-1.33246516,3.2519717400000006,11.810743800000001
730,1715673280630,3.9670850399999997,-1.99083562,0.306908154,-1.51732822,2.8646526000000003,12.261103799999999
731,1715673280640,4.2140938666666665,-1.9017707666666668,0.40906858333333335,-1.7163616555555556,2.588134222222222,12.523314333333333
732,1715673280650,4.7508015299999995,-1.53305895,0.77764299,-2.3228152,2.435825,12.279307
733,1715673280660,4.8232510699999995,-1.4243331,0.8989731649999999,-2.53365532,2.57368205,12.0334189
734,1715673280670,4.52756891,-1.26274449,1.135694375,-3.6529283,3.26495242,11.084669000000002
735,1715673280680,4.271448411111112,-1.3597473444444443,1.0867504333333333,-4.443382688888889,3.588748433333334,10.671697777777776
736,1715673280690,4.04227868,-1.4427305499999998,0.9191573099999999,-4.67128651,3.3726786300000002,10.5095088
737,1715673280700,3.86305469,-1.5736954600000002,0.74820219,-4.438317670000001,2.49843882,10.367299500000001
738,1715673280710,3.7818181199999996,-1.682769,0.68329597,-3.6078311400000005,1.0853548229999999,10.314353
739,1715673280720,3.8954914666666665,-1.7979911666666668,0.7954123,-2.9262480666666666,0.007483103333333315,10.423805
740,1715673280730,4.169084700000001,-1.8424245499999998,1.156378475,-2.4271966,-0.68485629,10.6577665
741,1715673280740,4.4681692,-1.5558346,1.76417005,-2.53298318,-0.407798356,10.8479132
742,1715673280750,4.546607,-1.0618912,2.2431188,-3.7578902,1.472338,10.575452
743,1715673280760,4.3847817777777784,-0.8750713888888888,2.1163429666666667,-4.985355988888889,3.0297728999999998,10.053773111111111
744,1715673280770,3.98434227,-0.79326582,1.60501445,-6.48894655,4.57115023,9.2717889
745,1715673280780,3.6461580400000004,-0.8689714000000001,0.97630085,-6.987733400000001,4.49573925,8.7458344
746,1715673280790,3.27916686,-0.88239907,0.023781879,-6.01361705,2.48651164,8.3099514
747,1715673280800,3.19724738,-0.7687644,-0.15441143799999998,-4.1309303,-0.23579402,8.0777463
748,1715673280810,3.4116896222222217,-0.4146786655555556,0.36792119444444443,-1.594935188888889,-3.0503217,7.966429466666666
749,1715673280820,3.659283575,-0.03573379,0.8214656625000001,-0.33114623125,-3.8916888875000004,7.886804775
750,1715673280830,3.9040084,0.5134649233333334,1.2217785666666667,0.725690931111111,-3.8957421777777785,7.6384457333333335
751,1715673280840,4.10308092,1.2297913040000001,1.3705372800000002,0.91064734,-2.22107544,7.035060400000001
752,1715673280850,4.14430911,1.6847569,1.13549308,0.02942841900000001,-0.16307043999999998,6.31762965
753,1715673280860,4.127131,2.388737,0.57436275,-1.2562444,1.7402023,5.443573
754,1715673280870,4.119832000000001,2.7917848100000002,0.232891635,-2.01700063,2.39869972,4.6523038
755,1715673280880,3.981025,3.222932,-0.12171442000000002,-2.1164954,2.351373,3.4597880000000005
756,1715673280890,3.9632983299999998,3.2110775599999997,-0.32466528400000005,-1.38748884,1.53647876,2.6543012
757,1715673280900,4.031576611111111,3.057122711111111,-0.4209865977777778,0.15156244444444444,0.025910871111111122,1.864869766666667
758,1715673280910,4.37233439,2.93766528,-0.41412783500000006,1.48339459,-1.164568797,1.5089135900000001
759,1715673280920,4.739569299999999,2.84590988,-0.329360682,2.26007922,-1.8499138000000002,1.21015462
760,1715673280930,5.12024994,2.7383181999999997,-0.234086822,2.78493465,-2.3602306,0.7482335499999999
761,1715673280940,5.551855077777778,2.5439085555555554,-0.10457249666666667,2.3670010444444447,-2.355258888888889,-0.16114966666666664
762,1715673280950,5.76436082,2.25831476,0.05046636520000001,0.74475165,-1.69622014,-1.48680023
763,1715673280960,5.743262,1.7427236,0.26714975,-0.7866417,-0.7134906,-2.3823745
764,1715673280970,5.55414077,1.3023564799999998,0.370546007,-1.72664122,0.29736924,-3.0000813
765,1715673280980,5.25279413,0.87792934,0.282095744,-2.33562791,1.4298675900000002,-3.7255907600000002
766,1715673280990,4.8232083,0.5585082,0.012256813,-1.9900003800000001,1.65214611,-4.2375266400000005
767,1715673281000,4.543998288888889,0.41337777555555555,-0.08307395244444443,-1.0902756666666666,1.1119953555555557,-4.667180222222222
768,1715673281010,4.28447548,0.30694473,-0.08858443819999999,-0.23933699700000002,0.39249619,-4.97470337
769,1715673281020,4.0744754,0.225403387,-0.0048295516999999994,0.397917631,-0.251035079,-5.229907509999999
770,1715673281030,3.9198627000000004,0.13537375000000001,0.1322028295,0.80519675,-0.687757905,-5.42494155
771,1715673281040,3.5173392,0.03561183,0.46691746000000006,1.0379788333333333,-0.9447370422222221,-5.690226777777777
772,1715673281050,3.374014,0.037416817199999994,0.5665330120000001,0.861457437,-0.6612310939999999,-5.88452618
773,1715673281060,3.1838504100000002,0.0603083975,0.6155297909999999,0.572319628,-0.193018152,-6.08440104
774,1715673281070,3.0252984,0.075126335,0.55137366,0.34773505,0.25518894,-6.3197064
775,1715673281080,2.8670757,0.06102185449999999,0.454124061,0.29468138499999996,0.507903874,-6.62347434
776,1715673281090,2.7124753,0.0012195833,0.39063254,0.4231768799999999,0.5514586,-6.924921
777,1715673281100,2.61969561,-0.070558999,0.39688901600000004,0.747607428,0.40178134400000004,-7.17044316
778,1715673281110,2.6035056,-0.12933682,0.4290494,1.0542006,0.25686884,-7.349625
779,1715673281120,2.5806688,-0.165235256,0.43959273000000004,1.2824351799999998,0.173165031,-7.49832509
780,1715673281130,2.5605457,-0.201139785,0.432738685,1.46531295,0.10583240499999999,-7.64551305
781,1715673281140,2.5549052444444444,-0.3266179933333333,0.3908222622222222,1.610121988888889,0.050260632222222226,-7.873526988888888
782,1715673281150,2.61990888,-0.45412408800000004,0.353703572,1.52591078,0.03799581640000001,-7.982634139999999
783,1715673281160,2.6616187,-0.5748506,0.31696972,1.3712397800000002,0.0742812159,-8.06094718
784,1715673281170,2.6302755,-0.63643956,0.29660267,1.024421,0.18677205,-8.296466
785,1715673281180,2.64959355,-0.708169326,0.33123274399999997,0.8324108060000001,0.29851456499999995,-8.4618122
786,1715673281190,2.67364384,-0.78102114,0.367082386,0.8064337479999999,0.400727584,-8.597348
787,1715673281200,2.7194881,-0.9061504599999999,0.3699606,0.82909685,0.6239988,-8.797223
788,1715673281210,2.750648366666667,-0.9836956355555555,0.31636669444444443,0.8489160588888889,0.7057190133333333,-8.866455
789,1715673281220,2.7819061599999997,-1.05637872,0.27306470800000004,0.8802568199999999,0.696508536,-8.873459
790,1715673281230,2.79574839,-1.10222896,0.23955055600000003,0.9103571970000001,0.66605692,-8.8762992
791,1715673281240,2.7852776333333336,-1.1566596444444446,0.17854699999999998,0.93050049,0.5871942333333333,-8.893179666666667
792,1715673281250,2.780833,-1.2213822,0.13095276,0.873995455,0.43287439,-8.888012999999999
793,1715673281260,2.713817,-1.2150099,0.073845774,0.70952,0.16081028,-8.889922
794,1715673281270,2.6339343,-1.2217785,0.06799178,0.5551238,0.041233405,-9.031948
795,1715673281280,2.5647838,-1.2853799,0.093664,0.39431351000000003,0.0081092362,-9.1173013
796,1715673281290,2.4512894800000002,-1.34596889,0.10557323199999999,0.12189816,0.0506101868,-9.1381934
797,1715673281300,2.29439613,-1.41230188,0.050643194999999995,-0.17440203,0.16249016,-9.072876
798,1715673281310,2.079708077777778,-1.5217486444444444,-0.022169315777777778,-0.34924522999999996,0.2071511911111111,-8.933191555555554
799,1715673281320,1.9066965800000002,-1.56165822,-0.0369106907,-0.43432518,0.214245712,-8.7758116
800,1715673281330,1.7215272599999998,-1.56232288,-0.0526981948,-0.45756860999999993,0.197737078,-8.4906904
801,1715673281340,1.36600654,-1.5278696200000002,-0.090663826,-0.437318432,0.13603968760000001,-8.03736758
802,1715673281350,0.9024001869999999,-1.4469991500000001,-0.11613482099999999,-0.406714076,0.0666453988,-7.51581106
803,1715673281360,0.6092225177777778,-1.4307746,-0.1363426322222222,-0.48945575666666663,0.09203702899999999,-7.207446333333333
804,1715673281370,0.234977122,-1.4930627399999998,-0.18317531699999998,-0.7445530600000001,0.234541712,-6.8646136
805,1715673281380,-0.1478135,-1.7233931999999998,-0.2619665,-0.99280876,0.41844270000000006,-6.477615
806,1715673281390,-0.43173253999999994,-1.9870060999999999,-0.34136137,-1.0438007260000002,0.48015536699999994,-6.03504315
807,1715673281400,-0.83755566,-2.129128411111111,-0.4535630411111111,-0.8622363,0.4098906,-5.1637964
808,1715673281410,-1.279422155,-2.1671448700000004,-0.6525929699999999,-0.44220533999999995,0.22443189600000002,-4.50137424
809,1715673281420,-1.49076377,-2.2389722,-0.763129885,-0.03199406219999999,-0.076892667,-3.8868897099999997
810,1715673281430,-1.7280072333333334,-2.3393641333333335,-0.7858385333333334,0.34905859133333333,-0.5849543966666667,-3.0771318
811,1715673281440,-1.85488864,-2.3721262,-0.7147795050000001,0.530383756,-0.90346972,-2.3704014399999997
812,1715673281450,-1.9573459400000002,-2.36104022,-0.49290678000000004,0.51810535,-0.94635246,-1.3974764240000002
813,1715673281460,-1.9251062,-2.37623624,-0.346447026,-0.0940121658,-0.241612472,-0.345154123
814,1715673281470,-1.8701943499999998,-2.4410387399999998,-0.349630142,-0.880974614,0.48988339300000006,0.250622738
815,1715673281480,-1.8824879,-2.403006,-0.37355837,-1.4756978,1.0256428,0.72219545
816,1715673281490,-1.9332225,-2.338551,-0.40776767999999997,-1.8075502999999997,1.473407,1.0302242
817,1715673281500,-2.0638337300000003,-2.34578928,-0.621926526,-1.6488016399999998,1.6781995699999999,1.10554394
818,1715673281510,-2.138966,-2.415324,-0.80303466,-1.0968086,1.5526668,1.1817188
819,1715673281520,-2.1553391,-2.4635585,-0.90029643,-0.725173435,1.31656735,1.27434125
820,1715673281530,-2.1684741799999996,-2.5500999699999998,-1.07845326,0.5166240030000001,0.25538749099999997,1.6920203
821,1715673281540,-2.09367096,-2.54240454,-0.94450632,1.11702814,-0.465830548,2.02510997
822,1715673281550,-1.8902795666666665,-2.5481433555555553,-0.5396995044444445,1.5811568444444444,-0.9773504222222223,2.4640946333333336
823,1715673281560,-1.680525,-2.6073472,-0.27647954,1.8403841999999997,-1.0957395,3.2192597
824,1715673281570,-1.42686387,-2.66881432,-0.090651626,1.8284113300000002,-0.87915726,3.85575101
825,1715673281580,-0.9874967,-2.6806443,0.07421165,1.8822285,-0.3199407,5.3330064
826,1715673281590,-0.61361508,-2.63804419,0.13627624,1.9674289299999999,0.09195047199999999,6.28100807
827,1715673281600,0.13840442400000003,-2.48049832,0.179833663,2.05067464,0.918313726,7.83564455
828,1715673281610,0.72894496,-2.3362339,0.1589727,1.9766988400000003,1.53773104,8.6607246
829,1715673281620,1.3430052,-2.2427528,0.05512517,1.68553,2.2939517,9.686643
830,1715673281630,1.9536748800000001,-2.06410816,-0.029270000400000003,1.3391693,2.6988942099999997,10.3389555
831,1715673281640,2.61771365,-1.8254418600000002,-0.1384714909,0.9211083849999999,3.0388255,10.920591
832,1715673281650,3.463413422222222,-1.4365878222222221,-0.18295104333333334,-0.04897103888888889,3.149553288888889,11.415696888888888
833,1715673281660,3.800429,-1.22660812,-0.095786072,-0.586858238,3.00722844,11.290163999999999
834,1715673281670,4.019704150000001,-0.9651843549999999,0.089212527,-1.16831036,2.77903976,10.84021645
835,1715673281680,3.9373637777777777,-0.8063749322222222,0.3168748422222223,-1.7960457,2.4716287444444447,10.006125888888889
836,1715673281690,3.76101232,-0.802680982,0.43604980399999993,-1.95470772,2.265241,9.4052177
837,1715673281700,3.54895104,-0.8399392499999999,0.43829387000000003,-1.7476702100000001,1.9371453500000002,8.9114246
838,1715673281710,3.31649832,-0.8515253340000001,0.36133815199999997,-1.1642175,1.3937807,8.486964599999999
839,1715673281720,3.115025988888889,-0.7954935777777777,0.24011563444444445,0.02633508888888889,0.4052751555555556,7.958318511111112
840,1715673281730,3.04920236,-0.76880096,0.209182932,0.5179526579999999,-0.0039095339999999975,7.71305964
841,1715673281740,2.90876735,-0.7258350499999999,0.192053885,1.169654265,-0.550618665,7.2657077999999995
842,1715673281750,2.749455888888889,-0.7278270222222223,0.2476364033333333,1.6538837666666668,-0.9675596444444445,6.7641450222222215
843,1715673281760,2.52294595,-0.7767892300000001,0.36225285399999996,1.472338,-0.86849767,6.3433776
844,1715673281770,2.36893098,-0.8577390599999999,0.450392142,0.8852506339999999,-0.396970769,6.37792211
845,1715673281780,2.2797673,-0.9363961,0.46630769999999994,0.178494816,0.12110403299999999,6.572207400000001
846,1715673281790,2.2661078,-0.98969185,0.41142645,-0.5873469,0.57742035,6.9081225
847,1715673281800,2.31147636,-0.96705645,0.310298594,-1.23539865,0.7489513050000001,7.299839850000001
848,1715673281810,2.38804177,-0.9024916620000001,0.23912980300000003,-1.56867142,0.588522852,7.5773712
849,1715673281820,2.5389774,-0.7448970920000001,0.260149324,-1.6772221200000001,0.15766432400000002,7.7377688000000004
850,1715673281830,2.66038694,-0.574826236,0.38063194,-1.50552323,-0.117469385,7.6737652
851,1715673281840,2.6952792,-0.49620782666666663,0.4513474466666667,-1.3992377666666667,-0.15556701333333334,7.568060233333333
852,1715673281850,2.73279356,-0.316798972,0.5855890269999999,-1.23648288,0.009773849000000001,7.19609959
853,1715673281860,2.6833274,-0.19196242,0.57881427,-1.4643967,0.85062987,6.5677176
854,1715673281870,2.68305281,-0.238087082,0.46621621500000004,-2.0997271,1.2985773100000002,6.5349603
855,1715673281880,2.7618074,-0.12525122,0.35837457,-2.5357015,1.3799446,6.681339
856,1715673281890,2.8494954,0.35343525,0.35142294,-2.7649288,1.2241739,6.775259
857,1715673281900,2.97171612,0.831560745,0.425787051,-2.6981306199999997,1.1487168200000002,6.507104630000001
858,1715673281910,3.113162688888889,1.2754945111111111,0.5027258277777777,-2.6215281,1.3984233,5.772218
859,1715673281920,3.148141,1.42743085,0.500730455,-2.6490171,1.55046766,5.5565216
860,1715673281930,3.17869764,1.6850982399999999,0.316872148,-2.9261973,2.28643816,4.6785254
861,1715673281940,3.20733352,1.7820795,0.013366630000000008,-3.3374928600000002,2.76175236,4.142766180000001
862,1715673281950,3.4075838333333333,1.7283257555555556,-0.24010886555555558,-3.754598333333333,2.565209888888889,4.1579221888888895
863,1715673281960,3.7977275300000004,1.75352919,-0.286272812,-3.7374263,1.8102992,4.509407
864,1715673281970,4.570389,2.019935,-0.18964522,-3.0315104899999996,1.0850035999999998,4.6097417
865,1715673281980,5.0266347,2.4072137,-0.053783625,-1.681712,0.40790528,4.5072694
866,1715673281990,5.53774353,2.99329055,0.006256462199999998,-0.71258957,0.1360396925,4.19540734
867,1715673282000,6.0494995,3.6310046,0.007683375000000001,0.19996674,-0.002168571799999999,3.37530536
868,1715673282010,6.217192,3.8908367,-0.055247124,0.7691251720000001,0.013301591799999998,1.74621938
869,1715673282020,6.2456488666666665,3.764962311111111,-0.18557993422222221,0.8413650455555556,-0.04496647044444445,-0.1255667311111111
870,1715673282030,6.05514616,3.5021921399999996,-0.194352806,0.867367568,-0.18817703000000002,-1.249158344
871,1715673282040,5.687618639999999,3.08914967,-0.12122049060000002,0.921398608,-0.364121487,-2.32313581
872,1715673282050,4.708567,2.1004884,0.08250481,1.026559,-0.65026605,-3.8760927
873,1715673282060,4.149693,1.6829641,0.18671821,0.8229882,-0.49052480000000004,-4.1905355
874,1715673282070,3.697045,1.3761778,0.14006914,0.4259258,-0.14492778,-4.3869286
875,1715673282080,3.3334261999999995,1.1983626,0.057381395,-0.022449298,0.10231992600000002,-4.581184
876,1715673282090,3.0800579,1.0898806,0.005183229,-0.33263310422222225,0.12078162733333334,-4.758334666666666
877,1715673282100,2.96508164,1.0608484900000001,0.026971084200000002,-0.439334296,0.0496633432,-4.9094933
878,1715673282110,2.7548559,0.9867039,0.1653755,-0.35979962200000004,-0.1598939832,-5.27027044
879,1715673282120,2.6691191,0.9140573666666667,0.25123416666666665,-0.19792033333333336,-0.26165394333333336,-5.611306433333334
880,1715673282130,2.57848571,0.822627258,0.322720056,-0.0284510478,-0.26875016599999996,-5.94996499
881,1715673282140,2.5000055800000003,0.661392252,0.357752582,0.07463246030000001,-0.191277186,-6.27128011
882,1715673282150,2.4652453999999997,0.5418202433333333,0.37325348666666663,0.08450302500000001,-0.10781772,-6.455573
883,1715673282160,2.45364308,0.29209020999999996,0.385351756,-0.039522983,0.145508096,-6.74129484
884,1715673282170,2.5047193,0.17110755,0.38666892,-0.134130737,0.240787796,-6.82270817
885,1715673282180,2.6064327,0.13275166,0.44831883999999994,-0.20876319799999998,0.295170083,-6.932068340000001
886,1715673282190,2.7264261555555556,0.056629322333333336,0.5258640077777778,-0.2551041044444445,0.46707432666666665,-7.1023096444444445
887,1715673282200,2.8588131999999997,-0.0577106794,0.5685087940000001,-0.338541508,0.8564941599999999,-7.438475599999999
888,1715673282210,2.95150158,-0.195011373,0.539055795,-0.393549938,1.27895329,-7.849297900000001
889,1715673282220,3.01889577,-0.39121791899999997,0.45448381200000004,-0.322781184,1.61744892,-8.27954508
890,1715673282230,3.0277105,-0.5848444166666666,0.3926651755555556,-0.12527827555555557,1.8078217222222221,-8.652871888888889
891,1715673282240,3.0076754,-0.7083218,0.36388708999999997,0.12284500400000001,1.8000365600000001,-8.794016000000001
892,1715673282250,2.99643092,-0.8250847199999999,0.34973993,0.43395868000000004,1.7188525600000002,-8.8534532
893,1715673282260,3.03450622,-0.96255614,0.332836512,0.9935723,1.483028,-8.652448
894,1715673282270,3.093330866666667,-0.9715607766666666,0.30528205999999997,1.0277807666666667,1.4614441333333332,-8.584743999999999
895,1715673282280,3.225615,-0.9355423999999999,0.19635291,0.93584555,1.4712689,-8.544325
896,1715673282290,3.32846232,-0.96331226,0.100255851,0.717445925,1.46288486,-8.6354509
897,1715673282300,3.391966,-1.0182911,0.049759,0.37064248,1.4158329,-8.809441
898,1715673282310,3.3971248000000003,-1.04265836,0.056765506,0.2746144651,1.4339298,-8.866297
899,1715673282320,3.33457882,-1.1401275300000002,0.10000583999999998,-0.12084441630000001,1.59160943,-9.130495999999999
900,1715673282330,3.1808089555555554,-1.2217176,0.04055114622222222,-0.20721906444444443,1.7263391111111113,-9.274478111111112
901,1715673282340,3.07102055,-1.32701038,-0.0069089402,-0.147218526,1.7307033600000001,-9.236649
902,1715673282350,2.84914177,-1.39886821,-0.1009632082,-0.03400992499999999,1.6374090000000003,-9.10436615
903,1715673282360,2.5669792,-1.3268458,-0.19482844,0.2706133,1.2945762,-8.7624035
904,1715673282370,2.4425357500000002,-1.2501491500000002,-0.2077712725,0.39956314375,1.040551625,-8.6493548125
905,1715673282380,2.194823,-1.1997042,-0.23464784,0.438463798,0.85046185,-8.5725927
906,1715673282390,2.076865,-1.19543564,-0.239282256,0.28238772710000004,0.6845814139999999,-8.4661794
907,1715673282400,1.557103,-1.1863497,-0.23226966,0.031001410999999996,0.70341134,-8.352513
908,1715673282410,1.292551,-1.2364501799999998,-0.25583201200000005,-0.23793201000000003,0.86406887,-8.2275915
909,1715673282420,0.77458176,-1.3881542599999999,-0.35338648,-0.5368894660000001,1.112935454,-8.0600919
910,1715673282430,0.47783275000000003,-1.5286055333333333,-0.46232375,-0.6853908088888888,1.2572285777777779,-7.8861347777777775
911,1715673282440,0.0377705,-1.7816405400000002,-0.6929185019999999,-0.658909804,1.16220168,-7.4292821799999995
912,1715673282450,-0.44554428,-1.98664035,-0.8822160849999999,-0.48937942999999995,0.77786053,-6.72539735
913,1715673282460,-0.9677576080000001,-2.09731153,-0.9175595910000001,0.0018631379999999975,-0.035811968,-5.5675785300000005
914,1715673282470,-1.2793089777777777,-2.115651866666667,-0.8124525511111111,0.6511314566666667,-0.70668624,-4.482410188888889
915,1715673282480,-1.6546698,-2.1802492,-0.6249755,1.1528554,-0.9784534,-3.543782
916,1715673282490,-1.8355399,-2.27361446,-0.568429487,1.08138415,-0.83468623,-3.15632552
917,1715673282500,-1.9936528,-2.37959,-0.55838627,0.82824168,-0.520594642,-2.6863716799999997
918,1715673282510,-2.068996022222222,-2.461098888888889,-0.5498152866666666,0.6667764,-0.3188886355555555,-2.356412777777778
919,1715673282520,-2.2009394,-2.6034385799999997,-0.5610998119999999,0.536416047,-0.0457996235,-1.73079508
920,1715673282530,-2.2657418,-2.7083287,-0.62625605,0.6976081,0.009162978,-0.9324858
921,1715673282540,-2.24843594,-2.73452536,-0.61403582,0.80793037,-0.0557109108,-0.621219408
922,1715673282550,-2.17435862,-2.72189052,-0.513347016,1.06290555,-0.14282029000000002,0.08634580800000001
923,1715673282560,-2.04927208,-2.69062655,-0.429244572,1.25674829,-0.048640143999999996,0.730029764
924,1715673282570,-1.9004158,-2.6968036,-0.39575478,1.3250685333333334,0.10450885777777778,1.2148752333333332
925,1715673282580,-1.7340037,-2.7602222,-0.38910806,1.3649784,0.20021108,1.5570955
926,1715673282590,-1.6178383,-2.8040051,-0.38477856,1.49043484,0.182419632,2.01509172
927,1715673282600,-1.4386815,-2.8443732,-0.31678677,1.6326901,0.10338894,2.437047
928,1715673282610,-1.2152051,-2.8538372799999996,-0.16892449,1.85699978,0.0317955352,3.06391676
929,1715673282620,-0.9984484800000001,-2.8400558599999997,-0.039563284,2.11698392,0.1006400448,3.7800647599999997
930,1715673282630,-0.7061455222222223,-2.7947903333333333,0.0711762388888889,2.3112594888888887,0.3424917822222222,4.423971066666667
931,1715673282640,-0.19534066320000001,-2.70302372,0.132361386,2.5404968400000003,0.9597914,5.57270976
932,1715673282650,0.22202514879999996,-2.6081583200000003,0.0353435282,2.5444216600000003,1.38122735,6.455730730000001
933,1715673282660,0.8282434499999999,-2.4874806499999997,-0.13243455399999998,2.30844457,1.83161831,7.9071922
934,1715673282670,1.3169061,-2.3992865,-0.24428254,1.9674442,1.8901697000000002,8.909164
935,1715673282680,1.8853538999999997,-2.3050125,-0.30312744,1.551445,1.7919732,9.981233
936,1715673282690,2.3398926,-2.230618,-0.28708994,1.048703,1.6180294,11.018635
937,1715673282700,3.06520314,-2.08902442,-0.1304039495,0.522289805,1.51095991,11.8652938
938,1715673282710,3.7039967,-1.9084649,0.051710334,-0.037415497,1.5496124,12.5227375
939,1715673282720,4.05952341,-1.67834788,0.1765651802,-0.5892711794000001,1.7687908800000003,12.702453899999998
940,1715673282730,4.2887746,-1.46164622,0.25356358,-0.95649282,1.9412992600000003,12.630891
941,1715673282740,4.39611633,-1.13115743,0.28568131399999996,-1.6692961999999998,2.24497555,11.8971652
942,1715673282750,4.235423211111112,-1.0227426222222222,0.2389096011111111,-1.885605211111111,2.1483621,10.976281222222221
943,1715673282760,3.95101078,-1.01420544,0.16177773,-1.48418873,1.55367464,10.1331243
944,1715673282770,3.63364487,-1.05150645,0.11404323499999999,-0.6754643,0.6618725,9.509187
945,1715673282780,3.4455671,-1.0475001,0.16025324,0.269697,-0.16554448,9.18558
946,1715673282790,3.3236755099999997,-1.0449207,0.226988852,0.8651684399999999,-0.5936388399999999,9.031764800000001
947,1715673282800,3.2413659700000004,-1.0851913400000002,0.316561149,1.35984708,-0.803058733,8.90782
948,1715673282810,3.2046991000000005,-1.1196182333333333,0.3619926766666667,1.3757703000000001,-0.65724012,8.932122333333332
949,1715673282820,3.1950521800000002,-1.12521202,0.389766644,1.2193634,-0.42325326499999993,8.997892250000001
950,1715673282830,3.19390583,-1.0882892199999998,0.37894894399999995,0.71868296,0.012400568,9.0862235
951,1715673282840,3.2151672,-1.0586187666666664,0.30983513333333335,0.20881409706666665,0.33149620333333335,9.092525666666667
952,1715673282850,3.2398963000000003,-1.0342311299999998,0.266820422,-0.10430524352,0.47375653399999995,9.0903468
953,1715673282860,3.3176935999999997,-0.9064553099999999,0.277607665,-0.6727153699999999,0.50541462,9.1293045
954,1715673282870,3.3288326111111113,-0.6400169877777778,0.33046643666666664,-0.85098618,0.4837034566666667,9.124239666666666
955,1715673282880,3.2738497000000004,-0.45063602999999997,0.26166162,-0.79458296,0.5163339,8.883813
956,1715673282890,3.20854075,-0.380607579,0.137355582,-0.690399896,0.458881986,8.546799000000002
957,1715673282900,3.10616904,-0.2646251833,0.01913526332,-0.6012288440000001,0.27467555499999996,8.0900394
958,1715673282910,3.058959,-0.05622279300000001,0.010732334,-0.589485,0.11957687,7.671093000000001
959,1715673282920,3.05832484,0.1273001054,0.0204402172,-0.6885825600000001,0.142117793,7.3658282999999996
960,1715673282930,3.04494606,0.428268886,0.00291480424,-1.01394468,0.388479764,6.928250319999999
961,1715673282940,3.0673334444444444,0.7149807222222222,-0.0769286093,-1.3587339222222223,0.61098404,6.6014510444444445
962,1715673282950,3.19185696,0.93083481,-0.1671743852,-2.0241326200000005,0.7340462339999999,6.1924022999999995
963,1715673282960,3.4258887799999997,1.2200650300000002,-0.0864013803,-2.9927816,0.8194757000000001,5.7050233
964,1715673282970,3.5610614,1.3879468,0.044270877,-3.599302844444444,0.9622824555555556,5.375427477777778
965,1715673282980,3.6937703399999995,1.50861847,0.2244886931,-4.216466850000001,1.2465316,4.89582549
966,1715673282990,3.88011051,1.65412696,0.40199300000000004,-4.977483,2.03693,4.07554
967,1715673283000,4.06265195,1.83934504,0.36642993,-4.9192062,2.47345448,3.77934694
968,1715673283010,4.505202,2.2263494,0.19952384,-3.8921280000000005,2.3116667,3.9913936
969,1715673283020,5.07228993,2.74942256,0.16198506499999998,-2.5151155199999997,1.7819244599999997,4.2847311999999995
970,1715673283030,5.64240227,3.2001074000000003,0.1126468196,-1.2976305,1.37963914,4.26258724
971,1715673283040,6.1543350000000006,3.4745686,0.025574663600000002,0.31053338,0.9626014600000001,3.5192862
972,1715673283050,6.472254444444444,3.586591344444445,-0.08700372055555555,1.4448490333333333,0.7548767333333334,1.5893695333333335
973,1715673283060,6.528777149999999,3.2770081699999998,-0.42331129599999995,2.3965618399999995,0.408791017,-1.5991535799999999
974,1715673283070,6.190971,2.3849561,-0.50338304,2.88690335,-0.365129425,-3.71473271
975,1715673283080,5.8774466,1.98196316,-0.401877111,3.1679930300000003,-0.7607715859999999,-4.52058605
976,1715673283090,4.85321,0.96841013,-0.18903543,3.7171150000000006,-1.5227343,-5.460983
977,1715673283100,4.2538516699999995,0.592034513,-0.121257078,3.4990359999999994,-1.6578883000000002,-5.497482
978,1715673283110,3.6771412900000002,0.31705508499999996,-0.096554415,2.8528934,-1.5228871,-5.3528595
979,1715673283120,3.3673918,0.23001342999999996,-0.12695862,2.0161607,-1.2974777,-5.199685
980,1715673283130,3.25828784,0.21818956199999998,-0.14087408099999998,1.5254831699999998,-1.19677661,-5.1608798
981,1715673283140,3.0820640700000004,0.227123009,-0.133690737,0.8643895799999999,-1.07729142,-5.140186900000001
982,1715673283150,2.90242542,0.271613416,-0.056930152,0.13293955200000002,-0.9216429399999999,-5.24064348
983,1715673283160,2.7852032666666666,0.2917514411111111,0.027792950999999996,-0.5444845822222222,-0.6901759244444444,-5.488607111111111
984,1715673283170,2.7646065500000003,0.291321877,0.0415146188,-0.644187975,-0.640415862,-5.542914730000001
985,1715673283180,2.60695706,0.22687911,0.1096344478,-1.26149788,-0.254730813,-5.994527400000001
986,1715673283190,2.47847378,0.137410466,0.18288871899999998,-1.5207185200000002,-0.132634122,-6.2764725299999995
987,1715673283200,2.409226,0.08415125,0.25745404,-1.6000088,-0.088728175,-6.409809
988,1715673283210,2.40064,0.0360021004,0.356581784,-1.6146695999999998,0.014752396999999997,-6.5075474
989,1715673283220,2.46166189,0.00909199377,0.474661842,-1.6304299,0.355233416,-6.704475099999999
990,1715673283230,2.4708757,-0.01967187917,0.5009438549999999,-1.7472273,0.9010262499999999,-6.996545299999999
991,1715673283240,2.5160003333333334,-0.06638598333333334,0.46197815,-1.8282348777777777,1.2014192333333333,-7.179346566666666
992,1715673283250,2.60268838,-0.166729242,0.36950934,-1.87818154,1.49368762,-7.500554719999999
993,1715673283260,2.70359672,-0.349459394,0.34001374199999995,-1.75264877,1.52116133,-7.78498893
994,1715673283270,2.7809887333333334,-0.4841610222222222,0.39195378555555555,-1.4055669666666666,1.4762916333333334,-8.1081845
995,1715673283280,2.8730946,-0.6426595,0.47289345000000005,-1.0534371,1.5066991,-8.2976885
996,1715673283290,2.9594226,-0.783320104,0.49682165100000003,-0.6377433,1.6233743,-8.441546
997,1715673283300,3.08717416,-0.9482809659999999,0.483345266,-0.23915374800000003,1.6956703100000001,-8.49968555
998,1715673283310,3.1939058,-1.0341457,0.43813533,0.16355917,1.7635679,-8.524777
999,1715673283320,3.25912928,-1.0411034200000002,0.369710589,0.510194647,1.7591696899999998,-8.5786555
1000,1715673283330,3.31230316,-1.0350360200000002,0.323165192,0.6134614199999999,1.74823524,-8.612986000000001
1001,1715673283340,3.458086,-1.01756546,0.21556136599999998,0.7985536,1.7345519,-8.953452
1002,1715673283350,3.5220483222222225,-1.0535167777777776,0.13445229222222221,0.7319523222222222,1.7701856777777776,-9.056705333333333
1003,1715673283360,3.59186792,-1.1212605999999998,-0.029452937999999994,0.505582628,1.7845817199999998,-9.2492634
1004,1715673283370,3.59177044,-1.21853452,-0.16397298600000002,0.131183316,1.70797928,-9.3834094
1005,1715673283380,3.48056895,-1.29129479,-0.180711753,-0.14839444,1.7039628399999998,-9.317665
1006,1715673283390,3.2683613,-1.2925754,-0.17519315,-0.27855456,1.8486309000000003,-9.143737
1007,1715673283400,3.0695266400000003,-1.3042102400000002,-0.24209339000000002,-0.267833886,2.0714286900000003,-8.960934400000001
1008,1715673283410,2.84739171,-1.3352486300000002,-0.389089777,-0.204517689,2.16229485,-8.716726399999999
1009,1715673283420,2.61963468,-1.4284492100000001,-0.557001988,-0.095356064,2.08002669,-8.4072006
1010,1715673283430,2.3880295,-1.42565022,-0.676069934,-0.00018325800000000003,1.8708053599999999,-8.1702002
1011,1715673283440,2.2171415333333337,-1.3952033333333334,-0.7407139866666667,0.029796649777777778,1.7427985444444445,-8.097069888888889
1012,1715673283450,1.9699015,-1.4216073,-0.8203223,0.018478673299999998,1.5089135500000002,-8.0911395
1013,1715673283460,1.40604552,-1.5237474199999999,-0.8955766759999999,-0.28591547312000004,1.1453876099999998,-8.1393825
1014,1715673283470,0.8927960288888889,-1.6809585333333332,-0.8861357077777777,-0.7790059,0.89644474,-8.0395975
1015,1715673283480,0.36691165,-1.966822,-0.8031566,-1.1073459,0.7493789,-7.652767
1016,1715673283490,-0.11055522500000001,-2.0799871,-0.72357878,-1.16548509,0.629527196,-7.006227340000001
1017,1715673283500,-0.6476597,-2.1217701,-0.70583385,-0.9821339200000001,0.48879910400000004,-6.12525252
1018,1715673283510,-0.9271341,-2.174618722222222,-0.6843149611111111,-0.6495024666666667,0.29396192666666665,-5.1390056444444445
1019,1715673283520,-1.2662751499999998,-2.2448872,-0.61088321,-0.31134274,0.156610572,-4.10196008
1020,1715673283530,-1.41908276,-2.2647663199999997,-0.5579899,-0.213421048,0.148455527,-3.7251937400000004
1021,1715673283540,-1.6767238333333332,-2.2778971333333335,-0.4298624866666667,-0.22011511333333333,0.49953505666666664,-2.7995954
1022,1715673283550,-1.8716488,-2.308884625,-0.3904953425,-0.3010038375,0.93603645,-2.2052616499999997
1023,1715673283560,-2.068989355555556,-2.4103302777777778,-0.5502217844444445,-0.3839966777777778,1.352133288888889,-1.9711603777777778
1024,1715673283570,-2.28849954,-2.59534645,-0.70788279,-0.45103235799999997,1.47888946,-1.87589081
1025,1715673283580,-2.49878614,-2.94150698,-0.7577881519999999,-0.33226487800000004,1.20795541,-1.7046958499999998
1026,1715673283590,-2.6500936,-3.3206207999999995,-0.67010003,0.050549097,0.79183406,-1.3817772
1027,1715673283600,-2.7263176,-3.5468533,-0.5916199,0.4043622354,0.534659804,-1.042258296
1028,1715673283610,-2.7225368,-3.713814,-0.5543006,0.91736686,0.1572978,-0.41981715
1029,1715673283620,-2.67824152,-3.79679456,-0.4753692,1.183215372,-0.0637132448,0.06044511400000001
1030,1715673283630,-2.56330818,-3.8393458600000003,-0.32055527,1.58479822,-0.2730262412,0.988441016
1031,1715673283640,-2.2503753,-3.7951605,-0.022806209,1.90913712,-0.253509076,1.9596252
1032,1715673283650,-2.144957575,-3.770906075,0.03030664825,2.028797975,-0.1190423575,2.4782422000000004
