id,timestamp,acc_x,acc_y,acc_z,gyro_x,gyro_y,gyro_z
0,1715673317170,-0.12397064,0.7349819,0.60668176,0.027030786,-0.12522738,0.07651087
1,1715673317180,-0.116964137,0.7434884900000001,0.603462052,0.009896016300000001,-0.132053796,0.078984874
2,1715673317190,-0.10061563,0.7633372,0.5959494,-0.03524353077777778,-0.16766553555555555,0.07342260644444444
3,1715673317200,-0.07352868,0.798924636,0.596925032,-0.0403934644,-0.195675404,0.0543822768
4,1715673317210,-0.0661624,0.8122425,0.59887636,-0.020005837199999998,-0.23335052000000003,-0.0066889748
5,1715673317220,-0.058570489999999996,0.803492025,0.59311388,0.039171731,-0.294207975,-0.105832407
6,1715673317230,-0.0560886389,0.795150035,0.600169172,0.0523511478,-0.342542692,-0.139414727
7,1715673317240,-0.06037615022222223,0.7928375444444444,0.5992151777777779,-0.028982162888888892,-0.39212458333333333,-0.13452610777777776
8,1715673317250,-0.07274814560000001,0.7954610040000001,0.5624840000000001,-0.15039502840000002,-0.445076414,-0.1121243184
9,1715673317260,-0.075675147,0.80712023,0.510944415,-0.26539041599999996,-0.5544823759999999,-0.092729342
10,1715673317270,-0.05585691499999999,0.8184014,0.488626075,-0.35437821,-0.740445025,-0.0369573465
11,1715673317280,-0.018923867999999996,0.8528546666666666,0.4921832133333333,-0.37305202000000004,-0.9315016388888888,0.048478944999999996
12,1715673317290,0.057991185599999995,0.94537228,0.5283235319999999,-0.294650854,-1.10591048,0.12003501999999999
13,1715673317300,0.11012837099999999,1.0124615499999998,0.561502282,-0.189246047,-1.20963537,0.141949808
14,1715673317310,0.178309188,1.0709101300000001,0.6248718249999999,0.019349154999999996,-1.24954008,0.0887129012
15,1715673317320,0.22983049,1.0992105,0.6714416,0.14752395,-1.221425,0.023823744
16,1715673317330,0.209670769,1.15738455,0.6371225509999999,0.197721804,-1.1907596200000001,0.0458912518
17,1715673317340,0.184309535,1.2968439,0.59183332,0.17638734,-1.1995866000000002,0.05871942249999999
18,1715673317350,0.1653958311111111,1.3719364222222223,0.5392455666666667,0.13352496333333333,-1.3077097333333334,0.02428189433333333
19,1715673317360,0.18244967,1.4048258800000002,0.5467636,0.0848186396,-1.55981384,-0.021166480199999997
20,1715673317370,0.22289918,1.4651667666666668,0.5989576833333333,0.09461623666666667,-1.817578588888889,0.031188063777777775
21,1715673317380,0.26797904,1.5357603000000002,0.66787433,0.215513258,-2.02547644,0.1734399142
22,1715673317390,0.34050157500000006,1.6240886200000002,0.773795155,0.54034085,-2.26580614,0.40822598
23,1715673317400,0.41789025,1.7156489,0.8610868,0.8850079777777777,-2.3901460111111112,0.5398012711111111
24,1715673317410,0.536671555,1.8851893,0.965397795,1.314918,-2.4007615,0.5307502759999999
25,1715673317420,0.6045779499999999,2.0825118,1.00374148,1.8159496000000002,-2.3763879599999997,0.344863972
26,1715673317430,0.6366360777777778,2.193176733333333,1.0064475888888889,2.5952100444444444,-2.523891577777778,-0.08689558888888888
27,1715673317440,0.6390312,2.1972624,1.0060952349999999,3.4248923,-2.8090637999999997,-0.4191299
28,1715673317450,0.628804992,2.1965795999999997,0.9772643280000001,4.53732376,-3.34744992,-0.6616892
29,1715673317460,0.6450986177777778,2.0850201777777775,0.9296138555555555,5.5115656,-3.8906516444444446,-0.8022696888888889
30,1715673317470,0.5851804960000001,2.04809504,0.93071278,6.41448204,-4.59850184,-0.8610756800000001
31,1715673317480,0.43635473999999996,2.37716296,1.13159032,6.920095259999999,-5.11245334,-0.8370381159999999
32,1715673317490,0.466319908,2.68536392,1.31189354,7.14403856,-5.08713324,-0.9314778839999999
33,1715673317500,0.58726598,2.70390154,1.27503776,7.07748464,-5.044861280000001,-1.22741156
34,1715673317510,0.60241318,2.6070219333333338,1.2837537,6.865870733333334,-5.139463733333333,-1.6576337333333333
35,1715673317520,0.58960754,2.5932002,1.3801415,6.756933000000001,-5.1943398,-1.9521726000000001
36,1715673317530,0.625195014,2.51134156,1.62639982,6.683797200000001,-4.8351052,-2.60899024
37,1715673317540,0.66790484,2.41034796,1.6763906000000002,6.702337,-4.4810783999999995,-2.9727757
38,1715673317550,0.7183413555555556,2.358166111111111,1.665937422222222,6.765281444444444,-4.3634783666666666,-3.1211819999999997
39,1715673317560,0.7860580159999999,2.3640768999999997,1.6772076200000001,6.868080000000001,-4.36005062,-3.2855081999999998
40,1715673317570,0.85008007,2.3706869999999998,1.7529985500000003,7.137807499999999,-4.27926375,-3.6118171500000003
41,1715673317580,0.8634284400000001,2.2608757600000002,1.7484678600000003,7.414606000000001,-4.002541750000001,-3.90411615
42,1715673317590,0.8417226111111111,2.084965733333333,1.637182288888889,7.465995155555555,-3.7864820333333333,-4.093611577777778
43,1715673317600,0.800388176,1.8465711599999999,1.4390962,7.360804160000001,-3.6823873,-4.22990578
44,1715673317610,0.7596297080000001,1.62483261,1.2530487999999997,7.1706723199999995,-3.5865426400000002,-4.2789736000000005
45,1715673317620,0.7069856966666667,1.4036590999999998,1.0649944333333332,6.8323241333333335,-3.5536067,-4.238963555555555
46,1715673317630,0.63685879125,1.15013575,0.8484946175,6.040541,-3.61544405,-4.10008925
47,1715673317640,0.58076562,0.8776731999999999,0.78455797,5.2564192499999995,-3.59784365,-4.0152172
48,1715673317650,0.49501669800000003,0.586948908,0.72644482,4.71534535,-3.4898732600000004,-3.9728844000000003
49,1715673317660,0.5136546388888888,0.33741129555555555,0.59837502,4.092593555555556,-3.2377046,-3.9318171777777784
50,1715673317670,0.444995495,0.064698895,0.42587851,3.74368768,-3.0500197,-3.93562144
51,1715673317680,0.274686772,-0.11431155,0.30604225,3.5113298,-2.8014281,-4.007581350000001
52,1715673317690,0.19351738899999998,-0.303926265,0.153618715,3.3796883,-2.5670085,-4.0701186499999995
53,1715673317700,0.11055523240000001,-0.519762,-0.012134853999999999,3.2697477999999998,-2.47583684,-4.08302316
54,1715673317710,0.001626110666666671,-0.6742873,-0.14041469666666667,3.1286481333333334,-2.4509440666666666,-4.027434433333333
55,1715673317720,-0.171619776,-0.86759948,-0.278882116,2.984993,-2.4552202,-3.9446623
56,1715673317730,-0.309304653,-1.04174371,-0.35435603000000004,2.47204947,-2.5796686400000004,-3.4753957399999997
57,1715673317740,-0.3288606611111111,-1.0251885044444444,-0.25070567555555556,1.782674522222222,-2.669973166666667,-2.9562993555555557
58,1715673317750,-0.3105669,-0.96810526,-0.16238752,1.16928776,-2.5640762599999998,-2.6630975599999998
59,1715673317760,-0.294712325,-0.8310850999999999,0.0167387825,0.57986385,-2.15375815,-2.5455518
60,1715673317770,-0.270052342,-0.81466952,0.051868880400000004,0.10125092,-1.6607135499999999,-2.51791015
61,1715673317780,-0.25214884666666665,-0.8496227555555556,0.005643961111111112,-0.3798903155555556,-1.160627,-2.4481612888888886
62,1715673317790,-0.21880544400000002,-0.8752096500000001,-0.065662366,-0.659795556,-0.9255524640000001,-2.33402448
63,1715673317800,-0.176973744,-0.893405828,-0.11060401,-0.820544738,-0.8292801000000001,-2.1640816800000002
64,1715673317810,-0.13947765480000002,-0.91504117,-0.109701517,-0.783343052,-0.83028801,-1.9325790600000001
65,1715673317820,-0.112201676,-0.9148704400000001,-0.10543298,-0.6110858311111111,-0.8762352666666666,-1.570059411111111
66,1715673317830,-0.0426427296,-0.776673358,-0.0915541245,-0.21424570590000003,-1.0653642900000002,-1.089126918
67,1715673317840,0.0079882705,-0.61168203,-0.018232772,0.17828102279999997,-1.24023966,-0.734779244
68,1715673317850,0.050301036111111114,-0.46410565777777774,0.05423758222222222,0.3616831355555556,-1.241583588888889,-0.6276470777777778
69,1715673317860,0.11021984249999998,-0.30456045,0.10470123,0.46242499,-1.13934005,-0.6298020999999999
70,1715673317870,0.13556889,-0.21861031,0.121519288,0.35269830999999996,-0.9745591299999999,-0.76579595
71,1715673317880,0.12683667640000001,-0.20090197,0.135227408,0.11835513599999999,-0.79366666,-0.9354637499999999
72,1715673317890,0.10980993355555556,-0.21209910555555556,0.1417765711111111,-0.06185010533333332,-0.6333654499999999,-1.0410671
73,1715673317900,0.04968582504,-0.22264712599999997,0.11906792799999999,-0.14608842,-0.423573958,-1.11259946
74,1715673317910,-0.019476745839999997,-0.21246361600000002,0.08065104399999999,-0.09775370609999999,-0.323514235,-1.13917208
75,1715673317920,-0.045673396,-0.21293926,0.056832579999999994,-0.018325957,-0.3061962,-1.1464413
76,1715673317930,-0.1135615026,-0.22921458499999997,0.0478503525,0.31571043230000007,-0.39681806399999997,-1.0869277499999999
77,1715673317940,-0.19601144,-0.282614052,0.0634305312,0.76440622,-0.476566504,-0.994244224
78,1715673317950,-0.25940538,-0.380631965,0.0173485745,1.16446184,-0.46236389200000005,-0.8720712159999999
79,1715673317960,-0.3680634844444445,-0.45374598,-0.06644019277777777,1.496908277777778,-0.4172039977777778,-0.7260981888888889
80,1715673317970,-0.47875965200000004,-0.491418904,-0.13226381599999998,1.65239048,-0.39095376600000004,-0.65441991
81,1715673317980,-0.6642826599999999,-0.59974232,-0.268466876,1.69020304,-0.374765826,-0.60842177
82,1715673317990,-0.9056381800000001,-0.78615566,-0.435403458,1.5873333,-0.46418121999999995,-0.53817225
83,1715673318000,-1.0986955222222223,-0.9342279555555556,-0.5248612555555555,1.5123495777777778,-0.57601198,-0.4699419911111111
84,1715673318010,-1.28178816,-1.06939165,-0.59625427,1.51039492,-0.741193354,-0.3269503636
85,1715673318020,-1.54739523,-1.26978139,-0.6090416289999999,1.6744579899999998,-1.12099882,0.1151633678
86,1715673318030,-1.7464799800000002,-1.46187796,-0.533335982,1.7866587200000001,-1.34677458,0.7003264899999999
87,1715673318040,-1.8594987,-1.6835603222222224,-0.43545222666666666,1.7105075222222221,-1.3977615,1.5109073333333332
88,1715673318050,-1.8829147,-1.7673593,-0.38544932,1.6272227999999997,-1.344041,1.94708714
89,1715673318060,-1.87628022,-1.8703408,-0.19970678,1.37337782,-0.80063058,3.03432052
90,1715673318070,-1.82574072,-1.8260090000000002,-0.12140953000000002,1.18886594,-0.213130884,3.75749324
91,1715673318080,-1.79937328,-1.7042336200000001,-0.07885826,0.96050925,0.6688210699999999,4.2612431
92,1715673318090,-1.778714922222222,-1.5619542555555554,-0.1561744233333333,0.6278676555555555,1.618979522222222,4.464101411111111
93,1715673318100,-1.7361988999999998,-1.4834523999999998,-0.27821135199999997,0.2978273496,2.2795047399999997,4.49951136
94,1715673318110,-1.6741221400000001,-1.40022195,-0.38721161400000004,-0.11652254160000002,2.86636308,4.44740428
95,1715673318120,-1.6093620999999998,-1.3356267,-0.47386914,-0.4720461,3.3509014,4.299575
96,1715673318130,-1.6666148222222221,-1.3480799888888888,-0.6638530866666668,-0.6997291555555556,3.9181067333333335,3.931545622222222
97,1715673318140,-1.73908926,-1.4441208399999999,-0.9995461000000001,-0.695531172,4.11611686,3.6754694
98,1715673318150,-1.7473581,-1.7791283,-1.5624082,-0.36308303,3.30333015,3.7704131
99,1715673318160,-1.6448724333333333,-1.9583596444444444,-1.7189214111111113,-0.06185010666666667,2.1934475,4.157056777777778
100,1715673318170,-1.4100213199999998,-2.10624494,-1.59103799,0.359570555,0.7089855125,4.875850000000001
101,1715673318180,-1.0094084566666668,-2.205393,-1.0950842,0.67134091,-0.07681630666666667,5.5061358
102,1715673318190,-0.599358131,-2.16208349,-0.6402202800000001,0.8886409609999999,-0.36160168800000003,6.13627889
103,1715673318200,-0.14892333200000002,-2.0913902999999996,-0.23358681249999996,0.8646186799999999,-0.20268508999999998,6.557271760000001
104,1715673318210,0.2361723,-2.0652423,0.0031099375,0.6553667429999999,0.182266923,6.9680178999999995
105,1715673318220,0.82828608,-1.99779333,0.24694732674999997,0.21053471699999998,0.8838914800000002,7.49522456
106,1715673318230,1.8799201444444447,-1.6676786444444442,0.6180713077777777,-0.37242416666666667,1.969225933333333,7.9217004
107,1715673318240,2.3069335,-1.45508495,0.7456227999999999,-0.768163,2.86633255,7.887263
108,1715673318250,2.6071033,-1.3367549,0.8333413000000001,-1.1089494500000001,3.4790304,7.741953499999999
109,1715673318260,2.77927795,-1.3170281000000001,0.8948997500000001,-1.4301882,3.7264612999999995,7.672681399999999
110,1715673318270,2.9129071333333334,-1.2428299888888887,0.9643177777777778,-1.8655315,3.7870081666666664,7.670024
111,1715673318280,2.98108254,-1.16079336,1.0277672900000001,-2.3901324600000002,3.6009132700000004,7.6786829
112,1715673318290,3.0281644,-1.0721357,1.0968323,-2.8162415,3.3579264,7.639023
113,1715673318300,3.033395,-0.9455836555555555,1.3223468444444444,-3.493148088888889,3.058093188888889,7.4496713888888895
114,1715673318310,3.00001038,-0.8342072399999999,1.52571703,-4.0639184,2.92421189,7.20087971
115,1715673318320,2.9457572,-0.775203768,1.68428112,-4.5225712,2.8829479200000003,6.92482972
116,1715673318330,2.8162557,-0.771874268,1.79283021,-4.8464979900000005,2.8874378,6.60866087
117,1715673318340,2.6983078000000003,-0.79577132,1.7966359222222223,-4.863760044444444,2.866638,6.446003
118,1715673318350,2.55799076,-0.877502428,1.7292594000000001,-4.66789628,2.7273606,6.2562682
119,1715673318360,2.3981582500000003,-0.96520878,1.6323208999999999,-4.41441785,2.42918205,6.11315765
120,1715673318370,2.28354792,-1.03056014,1.5811532,-4.226332600000001,2.07620884,6.060333180000001
121,1715673318380,2.194240466666667,-1.1179988222222221,1.5830801666666667,-4.070364888888889,1.5956479000000001,6.0979286111111115
122,1715673318390,2.16849225,-1.1683791300000002,1.60045316,-4.03242836,1.3241878599999999,6.1775581100000005
123,1715673318400,2.1653092000000003,-1.2167294800000001,1.61809438,-4.014514780000001,1.04085326,6.3179348399999995
124,1715673318410,2.1893757000000003,-1.2509673666666667,1.6356848333333334,-3.9414044,0.77610428,6.496704533333332
125,1715673318420,2.21379978,-1.24695086,1.6311683399999999,-3.80514072,0.648280742,6.61389896
126,1715673318430,2.2538388400000002,-1.19143542,1.58128742,-3.4527936400000003,0.491868692,6.800029599999999
127,1715673318440,2.3135901555555556,-1.1062435222222222,1.5088956555555555,-3.170560311111111,0.4732169444444444,6.884044111111111
128,1715673318450,2.432764,-0.94685407,1.44377325,-3.07043775,0.57245707,6.846806750000001
129,1715673318460,2.5771138000000002,-0.777460014,1.4197413600000002,-3.3088279999999997,0.8500189500000002,6.754948000000001
130,1715673318470,2.699473133333333,-0.567011401111111,1.4060170444444444,-3.7818326666666673,1.2444852000000002,6.634454733333333
131,1715673318480,2.79250431,-0.2779003492,1.38896524,-4.41185179,1.6428915400000002,6.487923360000001
132,1715673318490,2.8430683599999997,0.09726177280000001,1.35992084,-5.352187519999999,2.1239173399999998,6.24127128
133,1715673318500,2.8698018,0.45581927999999994,1.3241626,-6.2297564,2.5103507,5.945246
134,1715673318510,2.97041723,0.758105248,1.28244057,-6.7622477000000005,2.73349974,5.62060197
135,1715673318520,3.2300665,1.3214796,1.2513535,-7.12895,2.7763824,5.0614767
136,1715673318530,3.56117116,2.1145623799999997,1.4488771599999999,-6.811636269999999,2.42302752,3.9779391100000003
137,1715673318540,3.7328398,2.7015599999999997,1.64131525,-6.37648644,2.18283528,2.96193296
138,1715673318550,3.7357058333333333,2.9161864,1.7277430333333335,-5.895104066666666,1.8112663666666664,1.7108808666666666
139,1715673318560,3.625242,3.1332316,1.8828842000000001,-5.443114700000001,1.2395983,0.77640971
140,1715673318570,3.53146214,3.23474972,2.06669378,-5.058789040000001,0.801058164,0.261053258
141,1715673318580,3.5277180799999996,3.184881,2.29341436,-4.6599703,0.565615416,-0.1068403255
142,1715673318590,3.623768422222222,3.0250680777777776,2.5144759444444444,-3.7368832444444444,0.37381560444444445,-0.33614556222222225
143,1715673318600,3.7993986399999997,2.9127552999999997,2.60982299,-2.8995634800000003,0.249721722,-0.285274075
144,1715673318610,4.05023012,2.90558407,2.63866619,-1.75741355,0.06612615899999999,-0.0872926409
145,1715673318620,4.4656262,3.06463,2.6439347,-0.1282817,-0.21288654,0.089186326
146,1715673318630,5.00306024,3.2950580799999996,2.54518511,2.19806116,-0.591913146,-0.8124965414
147,1715673318640,5.15596549,3.2521288,2.48183386,3.00356332,-0.756694049,-1.58514942
148,1715673318650,5.080533388888889,2.8019724666666668,2.469635877777778,3.184711966666667,-0.7877616333333334,-2.9567914
149,1715673318660,4.9299094199999995,2.3557350799999996,2.4954991800000004,2.83667494,-0.50039026,-3.65272988
150,1715673318670,4.7318370000000005,1.8591694799999998,2.4598507599999997,2.3361625600000004,0.08753699200000001,-4.16909416
151,1715673318680,4.5576441,1.48952592,2.3105920600000003,2.0903656600000002,0.716850376,-4.4793067
152,1715673318690,4.399708,1.1897036,2.107196,2.0329595,1.2759448,-4.731915
153,1715673318700,4.13207018,0.95287276,1.84038796,2.3124302699999997,1.3278531,-4.89243509
154,1715673318710,3.8305893000000006,0.755349,1.6041789999999998,2.7304149,1.189202,-5.0578117
155,1715673318720,3.6120942777777776,0.630301,1.5415736666666666,3.0353045888888888,0.9037242222222223,-5.162880411111112
156,1715673318730,3.4076989000000006,0.53838503,1.5972884,3.4196236,0.5149594,-5.3878317
157,1715673318740,3.19352182,0.415621799,1.70818509,3.7861429200000005,0.30740268,-5.81777383
158,1715673318750,3.0461229,0.282333555,1.7184844000000001,3.9634465,0.348422265,-6.1275129
159,1715673318760,2.929540888888889,0.13872083200000002,1.677313211111111,4.075302555555556,0.41778091444444443,-6.316007177777777
160,1715673318770,2.8311531,-0.003036762799999998,1.6009347999999999,4.2034094,0.481987933,-6.46133548
161,1715673318780,2.7805891799999998,-0.09708493700000001,1.51575916,4.3819196,0.502192302,-6.591068099999999
162,1715673318790,2.79065064,-0.140422836,1.42601004,4.61203248,0.38447859,-6.764416199999999
163,1715673318800,2.8136533000000004,-0.16792985333333332,1.3543066666666668,4.794664166666666,0.18259780222222222,-6.9760977777777775
164,1715673318810,2.8211403,-0.19604802,1.3361145,4.852866,0.07238753,-7.0866475
165,1715673318820,2.85785589,-0.265582569,1.32788238,4.83788487,-0.082237735,-7.260790210000001
166,1715673318830,2.9355431800000003,-0.48616860500000003,1.3219185999999998,4.62762509,-0.361754403,-7.636197439999999
167,1715673318840,2.965240666666667,-0.6198329111111112,1.3536968555555555,4.450594555555556,-0.4748968277777778,-7.791637111111111
168,1715673318850,2.98844264,-0.66903906,1.37703154,4.35922604,-0.488508938,-7.8554828
169,1715673318860,3.03006708,-0.728018106,1.3811537,4.2452996,-0.408119074,-8.082236
170,1715673318870,3.07054505,-0.80257729,1.3447126,4.1454842,-0.301538365,-8.4014585
171,1715673318880,3.0776457777777777,-0.9103783111111111,1.2950958555555556,3.9994365222222226,-0.2559695133333333,-8.673217333333334
172,1715673318890,3.0442753,-1.0677818399999999,1.23298652,3.7921903799999996,-0.24953845600000002,-8.8499408
173,1715673318900,2.98924771,-1.1990760599999999,1.18591679,3.56788076,-0.274064694,-8.8912352
174,1715673318910,2.92932956,-1.2755743800000001,1.16437284,3.4047491199999995,-0.294223254,-8.8471618
175,1715673318920,2.822488488888889,-1.3515761222222222,1.1513341333333333,3.1170926666666663,-0.28498560777777776,-8.698924777777778
176,1715673318930,2.65455734,-1.3929349,1.0950883,2.79525836,-0.168843154,-8.493164799999999
177,1715673318940,2.523697344444445,-1.4350430555555556,1.0026398155555556,2.6251934,-0.08353582,-8.375878
178,1715673318950,2.38039496,-1.47661054,0.8875761820000001,2.3233038200000005,-0.10812315400000001,-8.091215479999999
179,1715673318960,2.29007876,-1.46557942,0.84271987,2.2198995800000003,-0.18335121100000001,-7.9312757000000005
180,1715673318970,2.2193063,-1.3472433000000001,0.83297543,2.1833087,-0.292222655,-7.8154862
181,1715673318980,2.124968111111111,-1.2688071333333335,0.8281377544444444,2.192649888888889,-0.33173375555555557,-7.787394833333333
182,1715673318990,2.02825852,-1.23966993,0.8185965769999999,2.2241604500000003,-0.30390546,-7.75256725
183,1715673319000,1.9138136714285714,-1.2155761999999999,0.7890617342857142,2.2445808,-0.27131144142857144,-7.707199714285714
184,1715673319010,1.6637799699999998,-1.20929618,0.70012016,2.25224493,-0.14611896600000002,-7.5982776
185,1715673319020,1.38908104,-1.22885214,0.5793448,2.20178748,0.053893589000000006,-7.4807626
186,1715673319030,0.75324517,-1.45185295,0.029270010000000003,1.6764280800000002,0.47030516,-7.212149800000001
187,1715673319040,0.37731198000000005,-1.6492493666666668,-0.30543109777777777,1.3242710377777778,0.4510900488888889,-7.013700066666667
188,1715673319050,0.11010399,-1.8166061,-0.46407587600000005,0.6140722839999999,0.311022048,-6.52950824
189,1715673319060,-0.330629035,-1.9707856499999998,-0.57186265,-0.35224016,0.31574096999999995,-5.627749
190,1715673319070,-0.86992876,-2.019313,-0.744140976,-0.54725888,0.57268619,-5.1632621499999996
191,1715673319080,-1.2107819666666666,-2.1200018666666667,-0.99296444,-0.44277547666666667,0.7620544166666667,-4.7440812
192,1715673319090,-1.48345234,-2.33861216,-1.3797634,0.098471486,0.427422396,-3.8730079600000002
193,1715673319100,-1.58477534,-2.51020756,-1.7126608400000003,0.9011026300000001,-0.6498078924999999,-2.56326695
194,1715673319110,-1.54098016,-2.43517868,-1.7045750000000002,1.33364104,-1.40520384,-1.7766099
195,1715673319120,-1.443072,-2.318733,-1.5712502,1.5803084,-2.0853412,-1.1409435
196,1715673319130,-1.1950453799999998,-2.1239044199999997,-0.99164323,1.26207812,-2.3117278199999998,-0.758083766
197,1715673319140,-1.1033909333333332,-2.0508445444444448,-0.41263250333333334,0.3021746666666667,-1.6545115444444445,-0.7647184688888888
198,1715673319150,-1.18987428,-2.27033366,-0.281431056,-0.8214610500000001,-0.07185305000000003,-1.0380891349999999
199,1715673319160,-1.35335943,-2.69987704,-0.407511568,-1.1102018,0.7640549699999999,-1.068220058
200,1715673319170,-1.51430782,-3.02926212,-0.58582684,-0.9187413,1.4463762,-0.9187413299999999
201,1715673319180,-1.657804,-3.40278384,-0.8607819580000001,-0.4201836416,1.64945838,-0.6578713479999999
202,1715673319190,-1.7790672,-3.6183613333333335,-1.06802982,0.49649769266666666,1.6091209333333334,-0.05681047000000001
203,1715673319200,-1.9199595900000002,-3.71887542,-1.21044259,0.9904416189999999,1.3955064,0.382264193
204,1715673319210,-1.9605290199999998,-3.7839646,-1.1183457799999998,1.4772859600000001,1.1006264,1.07423706
205,1715673319220,-1.9179777999999998,-3.8361381999999997,-1.0053635,1.5845845,1.0218248,1.4520267
206,1715673319230,-1.6396214777777778,-3.8035889444444444,-0.7000543844444445,1.0753604211111112,1.3247122,2.5926648444444442
207,1715673319240,-1.1903622280000001,-3.6553473600000004,-0.36171623799999997,0.23232733099999997,1.8980499599999998,3.90173373
208,1715673319250,-0.53582394,-3.37946545,-0.135068855,-0.83589275,2.6390143,5.3244542500000005
209,1715673319260,0.06562712666666669,-3.1080946333333332,-0.051615478888888885,-1.6720060222222222,3.0450784888888887,6.550817166666667
210,1715673319270,0.5935712200000001,-2.89184555,0.009726175,-2.22403816,3.07518732,7.464284620000001
211,1715673319280,1.01247372,-2.7202441,0.124080408,-2.6442219000000002,2.9055194,8.230340000000002
212,1715673319290,1.7968366,-2.33429478,0.520103536,-3.01556682,2.600209,8.974374000000001
213,1715673319300,2.3247834444444444,-2.052524977777778,0.8500970622222223,-3.1381844444444447,2.443478077777778,9.3094505
214,1715673319310,2.67669276,-1.86048668,1.08634388,-3.12133812,2.37165386,9.4407999
215,1715673319320,2.9343296,-1.7104901399999999,1.270879,-3.05296701,2.3396749800000003,9.50164205
216,1715673319330,3.179054044444444,-1.5149393666666666,1.4061660666666667,-2.8979277333333333,2.2838725555555555,9.535029944444444
217,1715673319340,3.2926312199999996,-1.35367652,1.4367912,-2.8405539600000003,2.1644179,9.4899446
218,1715673319350,3.39478334,-1.11205268,1.51050272,-2.9128344999999998,1.7710510499999998,9.221926999999999
219,1715673319360,3.4181262500000003,-0.9716725199999999,1.6679631999999998,-3.1015155,1.59809985,8.9689525
220,1715673319370,3.39841782,-0.8622454239999999,1.79871472,-3.4032829999999996,1.53502805,8.702997
221,1715673319380,3.3421259,-0.7257944000000001,1.9253968777777777,-3.695565177777778,1.592865088888889,8.490551333333334
222,1715673319390,3.2410123499999997,-0.588662425,1.99822635,-4.01865345,1.79006425,8.24774975
223,1715673319400,3.1171738333333336,-0.4843982,1.9948928333333333,-4.273002333333333,1.9846503,8.025140666666665
224,1715673319410,2.9534772400000002,-0.39798054400000005,1.93274084,-4.47991746,2.13706628,7.7761925000000005
225,1715673319420,2.78341847,-0.36297239800000003,1.85121167,-4.56525544,2.17585616,7.547056899999999
226,1715673319430,2.5803537333333337,-0.34229638,1.7402641333333333,-4.5647416666666665,2.1298325,7.278663000000001
227,1715673319440,2.41833614,-0.324445748,1.63205858,-4.541875,2.01619124,7.0375646000000005
228,1715673319450,2.24949702,-0.31242066,1.43894986,-4.5912936,1.7910263199999998,6.7769086000000005
229,1715673319460,2.2115619,-0.30206031499999997,1.2579392999999999,-4.6910634,1.4136185,6.589021700000001
230,1715673319470,2.2489482599999997,-0.282540878,1.18348374,-4.795750379999999,0.91776392,6.46579464
231,1715673319480,2.3157449333333333,-0.2381371822222222,1.2184992888888888,-4.870038355555556,0.2851043948888889,6.3676931111111115
232,1715673319490,2.3463443699999997,-0.198200581,1.3254919099999998,-4.84158059,-0.13979651180000002,6.290262820000001
233,1715673319500,2.34047195,-0.13345290999999998,1.47557385,-4.7115273,-0.39240456,6.1374395
234,1715673319510,2.3296412444444443,-0.10384752688888889,1.5259765333333335,-4.671286555555556,-0.38615167111111115,6.027203688888889
235,1715673319520,2.28567607,-0.0060796248,1.6278266000000001,-4.70674715,-0.24932463799999996,5.86044285
236,1715673319530,2.2285447,0.14939895,1.712234,-4.968167,0.16218472,5.597511
237,1715673319540,2.0965857555555556,0.46763570000000004,1.7814928777777779,-6.089529022222222,1.2474377666666667,5.285121277777778
238,1715673319550,2.06580348,0.6606361119999999,1.7213810200000002,-7.002134379999999,1.9890078,5.13074862
239,1715673319560,2.0671571999999996,0.946530892,1.46446354,-7.74920725,2.44918785,4.9414415
240,1715673319570,2.1244837,1.1377188999999999,1.2886118,-7.70579008,2.0725130399999996,4.76652028
241,1715673319580,2.3649483,1.4021414777777776,1.2827239555555556,-6.89207,1.196701951111111,4.746423022222222
242,1715673319590,2.6992428,1.7246738000000001,1.47542145,-5.4218565,0.06301076000000001,4.7610838200000005
243,1715673319600,3.1961011499999996,2.19915265,1.88672585,-3.73826625,-0.6026949,4.5824818
244,1715673319610,3.5078878,2.4919746,2.1499424,-3.0999885,-0.64476824,4.425413
245,1715673319620,3.6830286571428568,2.6707741714285715,2.2395818285714286,-2.8249681285714283,-0.2858412971428571,4.157330771428571
246,1715673319630,4.066176199999999,2.8769848799999997,2.20465312,-3.0314186800000003,0.826134132,3.4892012800000005
247,1715673319640,4.5823472222222215,2.8587711666666666,1.724165611111111,-3.790673377777778,1.9039821,2.5553002222222223
248,1715673319650,4.72233628,2.9015108400000003,1.5650790999999997,-3.7419772,1.6935017399999999,2.2673485199999996
249,1715673319660,4.9513254,2.9912722,1.4386815,-3.3264668,1.0228939,1.9178114
250,1715673319670,5.27377106,3.1235603000000003,1.7253812,-1.97498842,-0.343825502,1.12112094
251,1715673319680,5.54014026,3.21099228,2.17377326,-0.31923816,-1.5551102399999999,-0.026755894000000002
252,1715673319690,5.48103906,3.02400564,2.4597897800000004,0.79864524,-1.8081305999999997,-1.3806165620000002
253,1715673319700,5.198236922222223,2.586722811111111,2.529375177777778,1.3189089777777778,-1.4543174333333333,-2.516425455555556
254,1715673319710,4.9238422,2.3092262900000002,2.5001275300000003,1.45453121,-1.100061438,-3.0167427
255,1715673319720,4.43731371,2.02422782,2.35488125,1.5057980700000002,-0.5745034880000001,-3.40844477
256,1715673319730,3.93322961,1.79793421,2.0640838,1.568702,-0.06572910800000001,-3.6960096200000003
257,1715673319740,3.372303866666667,1.5907499555555555,1.6278930777777778,1.8037832666666667,0.27220834222222223,-4.009498922222222
258,1715673319750,3.06541056,1.45917048,1.37231178,2.3637430999999998,0.192193477,-4.4028113
259,1715673319760,2.8023647400000002,1.3272909,1.1720866500000002,2.86132334,-0.1346346976,-4.6442254
260,1715673319770,2.5534782999999996,1.19354528,1.02766972,3.4945768399999997,-0.7440644200000001,-4.958057200000001
261,1715673319780,2.442649311111111,1.1113453111111111,1.0043743,3.905058111111111,-1.1329005,-5.177371333333333
262,1715673319790,2.3893773,1.01045528,1.0275904500000002,4.29126752,-1.4804318799999998,-5.462876199999999
263,1715673319800,2.3995670000000002,0.896637656,1.0722821200000001,4.4555289799999995,-1.7197078399999999,-5.841185
264,1715673319810,2.4434476199999997,0.76343476,1.1326758,4.4043078,-1.75077038,-6.196617
265,1715673319820,2.470042633333333,0.6643341666666667,1.1814712777777778,4.321566,-1.704314,-6.372546
266,1715673319830,2.5048413,0.4733203,1.2712327,4.0624372,-1.3899628,-6.63167512
267,1715673319840,2.60567639,0.2198299,1.23668193,3.3680359799999997,-0.60587143,-7.09009904
268,1715673319850,2.72025025,0.014695977999999998,1.1631166499999999,2.91947774,-0.16444492800000002,-7.3953789
269,1715673319860,2.78376003,-0.10925637880000001,1.09058805,2.7593088999999997,-0.068416908,-7.615168300000001
270,1715673319870,2.8309782,-0.23426164000000002,1.0246736333333333,2.7396288,-0.14487688,-7.876190666666667
271,1715673319880,2.8955104400000002,-0.394523016,1.0441463,2.9030148799999997,-0.40017784400000006,-8.177774600000001
272,1715673319890,2.97057576,-0.562374268,1.12796824,3.0898480200000003,-0.671524176,-8.445822799999998
273,1715673319900,3.0199201799999997,-0.640683694,1.1903865200000001,3.16556484,-0.802188232,-8.5865054
274,1715673319910,3.0438090111111107,-0.7346973155555556,1.2586439666666667,3.2151366,-0.8977513088888889,-8.734661
275,1715673319920,3.04928766,-0.86339184,1.3523716399999999,3.23865482,-0.853195508,-8.878254199999999
276,1715673319930,3.0517878000000005,-0.9562508599999999,1.36556754,3.2312632999999997,-0.654939178,-8.9440752
277,1715673319940,3.0167613199999996,-1.03206022,1.2501948999999999,3.16302962,-0.427208614,-8.9657608
278,1715673319950,2.972429533333333,-1.0666679666666665,1.1271592333333331,3.0487774666666665,-0.39202277666666663,-8.967501833333333
279,1715673319960,2.95896528,-1.0660255800000003,1.0585129800000002,2.8120265200000003,-0.50588805,-9.006230500000001
280,1715673319970,2.9611971400000003,-1.0439755600000002,1.06670852,2.5314560800000003,-0.6303212859999999,-9.087598
281,1715673319980,2.94209838,-1.0406826800000002,1.11283318,2.2627976199999997,-0.665507124,-9.1890012
282,1715673319990,2.906822533333333,-1.063131077777778,1.1314074222222221,2.0934521999999998,-0.6232352622222223,-9.256186
283,1715673320000,2.7337206000000003,-1.1836909800000002,1.0923808400000001,1.8106046,-0.35804339,-9.329820999999999
284,1715673320010,2.58311435,-1.27551952,1.0380057599999999,1.7506176100000002,-0.24014640800000003,-9.3038904
285,1715673320020,2.32401368,-1.3599329199999999,0.917370528,1.7840014199999998,-0.122264686,-9.126907
286,1715673320030,1.9725404666666668,-1.4218173333333333,0.7780534977777778,1.942398811111111,-0.13186205222222222,-8.807335666666667
287,1715673320040,1.51022225,-1.44942607,0.627646382,2.12759785,-0.224462431,-8.3377607
288,1715673320050,1.1210816566666668,-1.4932578333333335,0.5041147666666667,2.1430679888888893,-0.25372966,-7.950173888888888
289,1715673320060,0.654245495,-1.58603765,0.287547255,1.93331205,-0.21456642,-7.253184849999999
290,1715673320070,0.3172746,-1.6634202500000002,0.04582585,1.53510435,-0.20792326,-6.669045
291,1715673320080,0.07573612866666667,-1.7141244999999998,-0.10527036333333334,1.1030869066666666,-0.23830532222222223,-6.169518322222221
292,1715673320090,-0.1535821312,-1.7390772399999999,-0.167900034,0.46471573,-0.28991664000000006,-5.54131132
293,1715673320100,-0.504480652,-1.78750686,-0.191316032,0.034574972,-0.10293079600000002,-5.198127359999999
294,1715673320110,-0.9502180333333333,-1.9971491,-0.34144268,-0.1776939088888889,0.49395241111111116,-4.885242044444444
295,1715673320120,-1.3348340300000001,-2.34335629,-0.655465082,-0.0686001635,0.7446905399999999,-4.50193943
296,1715673320130,-1.7510168499999998,-2.86297195,-1.01243712,0.1169196065,0.542570515,-3.6146576
297,1715673320140,-1.9315761,-3.1351829,-1.1683608,0.08989900222222222,0.06867143666666665,-2.6283665555555555
298,1715673320150,-2.1592419,-3.4673059000000004,-0.7964488750000001,-0.49701525,-0.305050835,-1.0833695200000002
299,1715673320160,-2.1957176,-3.4768085333333336,-0.48185736333333334,-0.8904888222222223,-0.19975294000000002,-0.49390150088888896
300,1715673320170,-2.1880546,-3.51590645,-0.140069155,-1.4189636,0.822071935,0.141797093
301,1715673320180,-2.1858999333333333,-3.565431766666667,-0.23436327999999998,-1.5061900555555556,2.020284111111111,0.5649824666666666
302,1715673320190,-2.19296344,-3.6104363499999996,-0.75311103,-1.02151937,2.82815335,1.038165475
303,1715673320200,-2.17265132,-3.675678,-1.22422994,-0.5796958224,2.93274875,1.31641461
304,1715673320210,-2.0888414,-3.7438772,-1.4625853,0.057217712,2.607291644444444,1.8084156888888887
305,1715673320220,-1.92334394,-3.6672384800000004,-1.56478648,0.496999968,2.02147526,2.4402844200000002
306,1715673320230,-1.6597065699999998,-3.42065091,-1.23327934,0.520411368,1.5280641400000001,3.1335859
307,1715673320240,-1.2640913777777778,-3.3464891555555556,-0.7890704277777778,0.017494502222222232,1.7648066555555557,3.7256331666666664
308,1715673320250,-1.037401968,-3.3123029799999997,-0.63247594,-0.47225991599999995,2.09468752,4.192918000000001
309,1715673320260,-0.6040047580000001,-3.24687242,-0.5255428839999999,-1.27709015,2.4404067,5.2070153
310,1715673320270,-0.09549338,-3.2110106000000003,-0.43093977499999997,-1.5914567,2.3596961,6.0347378
311,1715673320280,0.23191733111111112,-3.178031011111111,-0.3678398922222222,-1.6022995666666668,2.054238033333333,6.772306566666667
312,1715673320290,0.9258833,-3.0936562600000004,-0.15042340559999998,-1.38037218,1.41954391,7.730621790000001
313,1715673320300,1.49333711,-2.99068075,0.1887976032,-0.9794613,0.724211296,8.640536399999998
314,1715673320310,1.9364544,-2.8729117,0.51948154,-0.7667886,0.47800204,9.04554
315,1715673320320,2.3781877,-2.7010722,0.8539521999999999,-0.6533204,0.5876524,9.390678
316,1715673320330,2.844861,-2.470754,1.135676,-0.86483246,1.0833695,9.689697
317,1715673320340,3.3128518,-2.1527659,1.45081636,-1.78325316,2.06078444,9.979247599999999
318,1715673320350,3.5940239999999997,-1.8357101444444446,1.6107918222222222,-2.5927497555555554,2.793571555555556,10.088202
319,1715673320360,3.70759425,-1.62347895,1.5928063,-3.53561175,3.39037845,9.984897499999999
320,1715673320370,3.7302447222222224,-1.4045873444444446,1.4754248333333335,-4.075845566666667,3.2052099666666667,9.686235666666667
321,1715673320380,3.66948242,-1.28218454,1.42901026,-4.09887516,2.6253461000000002,9.4467564
322,1715673320390,3.5703606999999997,-1.19418555,1.5581702,-3.8056904000000005,1.49913965,9.08433
323,1715673320400,3.5091375499999997,-1.1126563500000002,1.8271798499999998,-3.4545956500000004,0.73968146,8.787067500000001
324,1715673320410,3.4686374,-1.03518232,2.0360335000000003,-3.2905613555555555,0.48687656,8.590547111111112
325,1715673320420,3.41941918,-0.9645440840000001,2.15818679,-3.3084002,0.5479002900000001,8.3515666
326,1715673320430,3.2614708,-0.8611478,2.3355632,-3.6282340999999994,0.9859365,8.015926
327,1715673320440,3.0741902444444444,-0.9107239055555555,2.3319110666666667,-4.4699897,1.761294088888889,7.619339222222223
328,1715673320450,2.9259757,-1.0451951400000001,2.2150439200000003,-5.419046509999999,2.36867568,7.3703336
329,1715673320460,2.73154956,-1.3014784,1.9629194599999997,-5.975102,2.3218224,7.37574
330,1715673320470,2.66086256,-1.48634288,1.84432714,-6.01427376,1.83485596,7.539573880000001
331,1715673320480,2.6956722444444443,-1.6477383666666665,1.7704081777777778,-5.554309133333334,1.031904117777778,7.804889422222222
332,1715673320490,2.8128531000000003,-1.6849031,1.77195701,-4.964685,0.36771034,7.9793965600000005
333,1715673320500,3.0303961999999998,-1.6468522399999999,1.9067576599999998,-3.77099328,-0.684123282,8.1853646
334,1715673320510,3.1238408,-1.6105208,2.0181665,-3.2873714,-1.0015136,8.254316
335,1715673320520,3.2279506400000004,-1.5333577699999998,2.1911523500000003,-2.935971,-0.99067074,8.316014
336,1715673320530,3.4150835600000002,-1.33582793,2.4835717799999997,-3.10681485,-0.351965292,8.3219243
337,1715673320540,3.50511308,-1.01808377,2.48893785,-4.33495949,1.459693034,8.2066999
338,1715673320550,3.5092630666666667,-0.8152236800000001,2.3078175,-5.095583466666667,2.4304291666666664,8.114784666666667
339,1715673320560,3.4892401800000004,-0.499888914,1.80159905,-5.293681879999999,2.6628837,7.957038800000001
340,1715673320570,3.4467253999999996,-0.27062553,1.4560605,-5.053688,2.4721715,7.771886
341,1715673320580,3.646838766666667,0.22269591333333333,1.0594927333333333,-2.900778477777778,1.105445488888889,7.5050056666666665
342,1715673320590,4.0430895,0.616840848,0.8883932800000001,-1.354593704,0.23930645199999998,7.411903
343,1715673320600,4.47254128,1.10860126,0.85741586,-0.107542816,-0.32934800200000003,7.168015
344,1715673320610,4.7634487,1.4969776,0.8629771999999999,0.5693264,-0.5514586,6.8864365
345,1715673320620,5.04959958,1.9394668400000001,0.81196202,0.572747241,-0.41657955500000005,6.52265099
346,1715673320630,5.4513545,2.622775,0.7174199,0.10873401,0.10247265,5.3835554
347,1715673320640,5.70582075,2.59874925,0.6012241150000001,-1.8161023,1.26365108,3.2729397
348,1715673320650,5.793825780000001,2.29856098,0.532848174,-2.62064238,1.7240754799999998,2.48118202
349,1715673320660,5.9093388,2.06768165,0.348953275,-2.7905851499999996,1.7072157000000001,1.8647424999999997
350,1715673320670,5.990824111111111,2.168615677777778,0.2502720511111111,-2.2574354555555556,1.3099157433333335,1.7780929666666667
351,1715673320680,6.368085,2.8233660499999997,0.30276156,0.5578727000000001,-0.288481105,1.2667818499999999
352,1715673320690,6.5252466,3.10525444,0.404608964,2.32991635,-1.0745883,0.1081995
353,1715673320700,6.492635,3.04768996,0.498272988,3.0206674700000002,-1.3634359200000001,-1.22455575
354,1715673320710,6.329739333333333,2.6826971000000004,0.6183897666666667,2.958675,-1.3464996999999999,-2.8654161333333334
355,1715673320720,6.197496,2.3952007,0.7233959,2.67391,-1.1772901,-3.512017
356,1715673320730,5.9808065,2.05396125,0.7491900699999999,2.0806071,-0.770988325,-4.026289
357,1715673320740,4.9959215666666665,1.1588887333333333,0.5474506566666667,-0.1231063202222222,0.8311160777777777,-5.358153333333333
358,1715673320750,4.4472411,0.9456344299999999,0.408042105,-0.8468883,1.1458305,-6.02015325
359,1715673320760,4.090225055555555,0.7765155,0.42864289777777775,-0.9088317222222222,0.9836457666666666,-6.442727833333333
360,1715673320770,3.7886722400000004,0.58137538,0.5275673519999999,-0.546510592,0.5702732279999999,-6.7687838
361,1715673320780,3.47276355,0.39804151499999996,0.715773425,0.25772406800000003,-0.043646321999999994,-7.054210639999999
362,1715673320790,3.28824055,0.310993765,0.8956925,1.0242072,-0.41450260400000005,-7.281666459999999
363,1715673320800,3.1925913111111113,0.2154394088888889,1.0228306944444445,1.6377127555555555,-0.6521156222222222,-7.552110055555556
364,1715673320810,3.1649834500000003,0.1311113095,1.0837949300000003,2.00569974,-0.7826253,-7.78089605
365,1715673320820,3.1527569200000003,-0.026599110999999998,1.20260678,2.2522602,-0.89827733,-8.175515
366,1715673320830,3.134843922222222,-0.15939954,1.3093785777777778,2.2576052,-0.7700465533333333,-8.391404666666666
367,1715673320840,3.10510798,-0.444440556,1.4479015199999998,2.21130164,-0.29123000359999995,-8.608770799999999
368,1715673320850,3.095272,-0.61683478,1.38980675,2.2534819500000003,0.2293035355,-8.7073495
369,1715673320860,3.1077354444444443,-0.7234229555555556,1.2587862333333333,2.324410211111111,0.46242497777777775,-8.752290555555554
370,1715673320870,3.1337620399999997,-0.799223425,1.1157480100000001,2.6227500499999996,0.715201019,-8.927077700000002
371,1715673320880,3.2262858000000003,-0.8560865249999999,0.98240488,2.8854984999999997,0.5674174599999999,-9.115713
372,1715673320890,3.28752112,-0.88822256,0.9216147360000001,3.0828842799999996,0.2591595744,-9.3149312
373,1715673320900,3.3216876999999996,-0.9828622499999999,0.91124218,3.257897,-0.1863902645,-9.5743195
374,1715673320910,3.355195666666667,-1.0985804000000001,0.9291802400000001,3.2922242444444447,-0.5021821488888889,-9.693209555555555
375,1715673320920,3.4164432,-1.2078022,0.9834049100000002,3.20834062,-0.7053813840000001,-9.6927824
376,1715673320930,3.4620314,-1.2609882,1.0394509,3.0634892,-0.82970774,-9.652587
377,1715673320940,3.5381820599999996,-1.3107716200000001,1.12315094,2.62876692,-0.724562504,-9.5705778
378,1715673320950,3.6642382,-1.35962205,1.1180835,2.32681614,-0.62769456,-9.501428
379,1715673320960,3.7242822777777778,-1.384247411111111,1.1099631666666667,2.026257033333333,-0.5471656111111112,-9.438937333333334
380,1715673320970,3.7330957400000004,-1.3961424199999999,1.1022229000000001,1.9214461,-0.510561196,-9.4608676
381,1715673320980,3.71614376,-1.39674008,1.0827339,1.82477668,-0.485546248,-9.549885399999999
382,1715673320990,3.67970258,-1.37970854,1.08095943,1.7358499699999999,-0.4980537,-9.7339692
383,1715673321000,3.6224673333333337,-1.3928047333333333,1.1168335,1.7025323,-0.4628831133333333,-9.930123666666667
384,1715673321010,3.5014848,-1.47959848,1.11149174,1.7045278199999998,-0.350300668,-10.066693
385,1715673321020,3.3488235299999998,-1.57714081,1.0021865,1.79411124,-0.31951306,-10.0191982
386,1715673321030,3.1432931,-1.6783907,0.8319997,1.9566862888888892,-0.4276735466666667,-9.859043222222223
387,1715673321040,2.73621465,-1.7069898000000001,0.697449235,2.21292048,-0.7863362899999999,-9.4992294
388,1715673321050,2.3097385000000004,-1.7010443000000002,0.6016509849999999,2.3233344000000002,-1.0523986600000002,-9.118996
389,1715673321060,2.1179895,-1.6767441,0.56924057,2.3087652,-1.1910346,-8.873428
390,1715673321070,1.5492705888888887,-1.6801726,0.4742282333333334,1.8846720444444445,-1.1549595888888888,-8.355550444444445
391,1715673321080,1.143633785,-1.73613785,0.354258475,1.45882255,-0.945161275,-8.038222999999999
392,1715673321090,0.770386402,-1.7964827799999998,0.24012376,1.0188926600000001,-0.72305065,-7.83788984
393,1715673321100,0.249197464,-1.9990679200000003,0.027843086799999993,0.456621775,-0.4394412,-7.58007405
394,1715673321110,0.05174420444444445,-2.1332817555555557,-0.07374414177777777,0.16775038555555558,-0.37130426666666666,-7.176020722222223
395,1715673321120,-0.38826046099999995,-2.51293926,-0.32648246799999997,0.10740538100000001,-0.51827333,-6.64702344
396,1715673321130,-0.6460742789999999,-2.67490008,-0.45570340099999995,0.189750013,-0.8448418799999999,-6.10694223
397,1715673321140,-1.1086012520000001,-3.03527464,-0.481210992,0.38652499,-2.1439233,-4.9619364
398,1715673321150,-1.2821276666666668,-3.2141984444444445,-0.14232537444444446,0.32248594555555554,-2.6157759666666665,-4.581218022222222
399,1715673321160,-1.37929393,-3.3289260300000003,0.133385839,-0.0069638659999999965,-2.81028548,-4.14508708
400,1715673321170,-1.6531147499999999,-3.81500895,0.72049937,-0.512286865,-1.69354745,-3.60914455
401,1715673321180,-1.9109244666666665,-4.164003,0.8264303433333333,-0.7476990533333334,-0.38102718333333335,-3.1302262333333335
402,1715673321190,-2.21400716,-4.501153,0.5014682739999999,-0.683436036,0.89983503,-2.47837198
403,1715673321200,-2.33723387,-4.8004204,0.191535547,-0.41874812400000005,1.3282042600000001,-1.82135574
404,1715673321210,-2.40544518,-4.9461298,0.0158179964,0.224767864,1.45010246,-0.544006026
405,1715673321220,-2.3964813400000002,-4.840739600000001,-0.0236233297,0.8487056199999999,1.51315898,0.604161003
406,1715673321230,-2.3004391,-4.733447,-0.076528855,1.2643384,1.6111571,1.427592
407,1715673321240,-2.0083244799999997,-4.51342796,-0.18912689349999998,1.54600834,1.86442178,2.63692197
408,1715673321250,-1.6422238400000002,-4.349095279999999,-0.301566383,1.61242467,2.08810541,3.74649761
409,1715673321260,-1.15559582,-4.165222777777777,-0.34427484333333336,1.6175032777777778,2.263612,5.210035622222223
410,1715673321270,-0.6758564939999999,-3.9230215999999998,-0.339483236,1.73537654,2.4123068,6.48393744
411,1715673321280,-0.12146441099999998,-3.6753241699999997,-0.313030457,1.9265163399999998,2.5587617600000003,7.3436694000000005
412,1715673321290,0.70326056,-3.3704405399999997,-0.24594117199999999,2.21087406,2.96242152,8.6988134
413,1715673321300,1.3726838000000001,-3.10854714,-0.22018358,2.24500617,3.39060747,9.4756964
414,1715673321310,1.9134856222222223,-2.887221277777778,-0.25255538777777775,2.090465611111111,3.827494944444444,9.960701111111112
415,1715673321320,2.5630275,-2.64151994,-0.28712652000000005,1.83054928,4.08568072,10.207925
416,1715673321330,2.9030352,-2.5237448,-0.2689791,1.4503468,4.3149996,10.466565
417,1715673321340,3.51442458,-2.19932348,-0.21734195399999998,0.677480106,4.39908492,10.9533332
418,1715673321350,3.8410914888888894,-1.9662462666666667,-0.12828661311111111,0.16176052444444444,4.227560700000001,11.256566555555557
419,1715673321360,4.1339364000000005,-1.6755123,0.025781992800000004,-0.359219292,3.8856221599999996,11.461634
420,1715673321370,4.3884875,-1.37133,0.32907408,-0.9402743299999999,3.5096499999999997,11.407298
421,1715673321380,4.47046792,-1.1745685,0.560874192,-1.36280984,3.34210488,11.1568124
422,1715673321390,4.4778223,-1.0568299,0.69650406,-1.6875000199999999,3.25693494,10.775769799999999
423,1715673321400,4.39692722,-0.8889177,0.8891006499999999,-1.94856846,3.23004156,10.153344
424,1715673321410,4.296002722222222,-0.7969435222222222,1.0049908555555556,-2.152163,3.240860711111111,9.592688
425,1715673321420,4.13607089,-0.77878325,1.0723064399999997,-2.33399388,3.2687094200000004,9.1374134
426,1715673321430,3.8833241299999997,-0.785625095,1.07536146,-2.5049904599999997,3.1942295599999997,8.6833732
427,1715673321440,3.57270835,-0.8611477900000001,0.98234385,-2.53188375,2.69261765,8.322963
428,1715673321450,3.4277405444444446,-0.9048698566666666,0.959107488888889,-2.4694737,2.2131817999999996,8.24683388888889
429,1715673321460,3.24055495,-0.9671296,1.0640865,-2.38347408,1.44610134,8.2223986
430,1715673321470,3.14432984,-0.9973874800000001,1.16890958,-2.41209304,1.03746298,8.2493072
431,1715673321480,3.0737566,-1.0129453333333334,1.2833878333333333,-2.538654133333333,0.8648324666666666,8.283485333333333
432,1715673321490,3.03285992,-1.0080344399999999,1.39616682,-2.7129746599999995,0.8390845,8.294511
433,1715673321500,3.0084988000000004,-0.954994785,1.41197265,-2.97025585,1.05290255,8.126264
434,1715673321510,2.98629636,-0.951482369,1.3894652400000003,-3.10933458,1.17985562,7.968432010000001
435,1715673321520,2.990016,-1.03915822,1.3663235999999999,-3.17614796,1.2331995,7.901709909999999
436,1715673321530,3.0000191555555555,-1.090917388888889,1.3314665333333333,-3.0483194,1.1901182333333333,7.989048266666667
437,1715673321540,3.03154265,-1.0903075699999998,1.2394686,-2.65402628,1.04473233,8.151202399999999
438,1715673321550,3.18039905,-0.9513969000000001,1.1831787999999999,-1.86979742,0.64925812,8.382812
439,1715673321560,3.2960595333333336,-0.8292556666666667,1.223879011111111,-1.6723114333333333,0.5555310111111111,8.40929
440,1715673321570,3.429011,-0.5128348,1.41032615,-1.77920616,0.8961698,8.2054174
441,1715673321580,3.42744998,-0.304505575,1.46937837,-2.1857369600000003,1.46268624,7.96559168
442,1715673321590,3.3979421666666667,-0.030774163333333333,1.3505056333333334,-2.869539533333333,2.2651901333333333,7.6311322666666666
443,1715673321600,3.4026985,0.13866661,1.1530551,-3.34632,2.740036,7.4174314
444,1715673321610,3.416181722222222,0.28559253222222225,0.9798742666666667,-3.3609806666666664,2.7796405333333336,7.2727580000000005
445,1715673321620,3.51471715,0.623633935,0.6665633,-2.7475192,2.40415182,7.01816956
446,1715673321630,3.8787260000000003,1.0740505200000001,0.398133,-1.50752376,1.64509066,6.69361688
447,1715673321640,4.4821581,1.61632604,0.37541824700000004,-0.21639901,1.0488557,6.0881886
448,1715673321650,4.9570170000000005,2.1067895666666665,0.37640407333333337,0.06699155333333334,1.3437508666666667,4.9320242
449,1715673321660,5.400376,2.17207785,0.24562409000000002,-0.27904323999999997,1.794997,4.05895516
450,1715673321670,5.747883799999999,2.1634676799999997,0.018952319999999995,-0.5149288599999999,2.04618474,3.50483924
451,1715673321680,6.0823059,2.3748134,-0.29873694666666667,-0.3235719355555555,1.9146213777777779,3.1828624
452,1715673321690,6.337290380000001,2.8527699400000004,-0.520530368,0.23683246200000002,1.336481521,2.99597324
453,1715673321700,6.613617380000001,3.38613654,-0.562471846,1.167394028,0.387258008,2.45454814
454,1715673321710,6.8233857,3.7389378999999994,-0.40856043,2.0862575,-0.38133264,1.4249959
455,1715673321720,6.831118259999999,3.71264343,-0.40165149599999994,2.30085452,-0.522213434,0.327316858
456,1715673321730,6.642034,3.3825145,-0.3817296,2.4235010700000004,-0.5358815450000001,-1.81039078
457,1715673321740,6.1362057199999995,2.60181644,-0.468954176,2.2191207,-0.35445455,-3.2818735000000006
458,1715673321750,5.37776486,1.7049653599999999,-0.555190916,1.54490874,-0.499550315,-4.581321399999999
459,1715673321760,4.954022277777778,1.3519962888888888,-0.45309552222222227,1.0899023622222221,-0.6103222522222223,-5.047325022222221
460,1715673321770,4.556729450000001,1.091155189,-0.2453618788,0.159909244,-0.700127932,-5.53515693
461,1715673321780,4.074323000000001,0.842152815,0.108024592,-0.87254462,-0.44791692000000005,-5.998925649999999
462,1715673321790,3.7376877,0.6919915999999999,0.28806559,-1.4072044499999998,-0.04848742,-6.3448281
463,1715673321800,3.4949329000000002,0.5858404111111111,0.35260187777777774,-1.5266031999999998,0.20479257333333334,-6.58696
464,1715673321810,3.3760369444444445,0.5197525644444444,0.3804354711111111,-1.2967142444444444,0.26509854222222223,-6.8227200888888895
465,1715673321820,3.2039673,0.40502362999999997,0.44057446999999994,-0.7611381,0.15653422,-7.095199599999999
466,1715673321830,3.0895338199999998,0.30277985999999996,0.50676739,-0.25442538,0.04795292,-7.28579
467,1715673321840,2.9842961199999998,0.146606118,0.58148516,0.991739724,-0.29037480000000004,-7.7915863000000005
468,1715673321850,2.97111232,0.027233297999999996,0.6416594,1.6873930600000002,-0.576229184,-8.1861442
469,1715673321860,2.992566177777778,-0.09772928111111111,0.6996885444444445,2.0368453,-0.7895772466666666,-8.48498588888889
470,1715673321870,3.1113278600000003,-0.28939494200000004,0.811413224,2.1065382999999995,-0.9668775159999999,-8.815641000000001
471,1715673321880,3.23817668,-0.42108554800000003,0.9456039759999999,1.87196602,-0.95511834,-9.039676
472,1715673321890,3.3404998,-0.5465563099999999,1.08323395,1.4968489,-0.7273877750000001,-9.2867555
473,1715673321900,3.3867084444444444,-0.6435877211111111,1.1506972222222223,1.2768780555555557,-0.5092410177777777,-9.425006
474,1715673321910,3.4088575499999996,-0.760745614,1.18758757,1.09409027,-0.2430021928,-9.505536500000002
475,1715673321920,3.4704344400000005,-0.8766914379999999,1.14320704,1.05594166,0.025686883,-9.5165478
476,1715673321930,3.5631823000000002,-0.9076885055555556,1.1023475666666667,1.240786111111111,-0.006074717111111112,-9.503518888888888
477,1715673321940,3.76963442,-0.95955598,1.09986906,1.6840333899999997,-0.349934163,-9.4937469
478,1715673321950,3.9943367899999997,-0.9949605399999999,1.2013140199999999,2.42151571,-0.9938624819999999,-9.574106400000002
479,1715673321960,4.223697660000001,-1.05132964,1.3303825200000001,2.88175678,-1.32753234,-9.8659324
480,1715673321970,4.351954277777778,-1.145934088888889,1.3707506666666667,2.9684317888888887,-1.3898202777777777,-10.14855911111111
481,1715673321980,4.507885,-1.3495300000000001,1.3862698500000001,2.9022819400000004,-1.36491734,-10.4930154
482,1715673321990,4.5547416,-1.57249418,1.36081112,2.68609674,-1.26042882,-10.735651200000001
483,1715673322000,4.466012500000001,-1.8041499333333333,1.2826358333333332,2.389704866666667,-1.1319333333333335,-10.827485
484,1715673322010,4.281328950000001,-1.98612192,1.1252790990000001,2.0153666,-1.02081691,-10.8065421
485,1715673322020,3.9569689000000006,-2.15070485,0.895052265,1.70645202,-1.02486385,-10.7114918
486,1715673322030,3.7371023199999995,-2.20648256,0.80136387,1.3545936,-1.1690434,-10.516046
487,1715673322040,3.536182,-2.2356791,0.7336404,1.0592403,-1.2559389,-10.323928
488,1715673322050,3.3708674600000004,-2.2272274,0.700187228,1.02095432,-1.25934448,-10.3035557
489,1715673322060,2.4022376999999997,-2.21903184,0.517310698,0.033383781,-0.97584198,-10.006384899999999
490,1715673322070,1.8890059111111113,-2.261581777777778,0.42064108111111115,-0.5777936766666667,-0.5362039577777777,-9.921588444444446
491,1715673322080,1.52178398,-2.29354844,0.332373046,-1.190927632,0.009117168999999991,-9.837603099999999
492,1715673322090,0.9669344899999999,-2.3604730600000003,0.132117468,-1.6592628,0.5007568,-9.780411
493,1715673322100,0.10516466399999999,-2.5789431200000004,-0.4732105219999999,-2.14871844,1.1067657,-9.364625
494,1715673322110,-0.42155575111111104,-2.642661066666667,-0.7890569,-2.0302106222222225,0.7209228222222221,-8.753783333333335
495,1715673322120,-0.867721384,-2.7019748,-0.929907944,-1.55996658,-0.11453722,-7.786699200000001
496,1715673322130,-1.1573359,-2.76724073,-0.919425594,-1.08940185,-0.84201663,-6.9140478000000005
497,1715673322140,-1.34953,-2.7876017,-0.7447386,-0.5842926,-1.3816245,-6.073986
498,1715673322150,-1.57259177,-2.74059886,-0.41803048499999995,0.17318028999999996,-1.7727462299999999,-4.54343234
499,1715673322160,-1.7373696500000002,-2.73192145,-0.14898429240000002,0.70347241,-1.7404314429999999,-2.89095031
500,1715673322170,-1.7756218499999998,-2.7952546000000003,-0.037380228,0.31215213,-0.47746754850000006,-1.5596153000000001
501,1715673322180,-1.77737194,-2.8128470400000003,-0.12037287319999998,-0.20274617,0.3492927398,-0.818437232
502,1715673322190,-1.7614172222222222,-2.8427403333333334,-0.2623798,-0.7097066222222222,1.1734212444444445,0.010961630000000007
503,1715673322200,-1.7269423199999998,-2.8974129599999996,-0.37313153200000004,-0.7559457399999999,1.6287194499999997,0.618501065
504,1715673322210,-1.6573528400000002,-3.0096757199999997,-0.472722718,-0.53869153,1.8928269999999998,1.06489086
505,1715673322220,-1.5842693,-3.18174055,-0.5544836,-0.09957104000000001,2.0349449,1.40506645
506,1715673322230,-1.5577195999999998,-3.318276288888889,-0.6518334666666666,0.3062301333333333,2.0317209333333333,1.5796975444444445
507,1715673322240,-1.5208205,-3.5533779,-0.8815758,1.0535898,1.9210185,1.8437440000000003
508,1715673322250,-1.4961787999999998,-3.6288762300000004,-0.92884689,1.35628881,1.7735403299999999,1.9619006200000002
509,1715673322260,-1.4083261,-3.83221132,-1.01088834,2.39120146,1.270141508,2.52131572
510,1715673322270,-1.214000411111111,-3.9205201555555553,-0.8499140999999999,3.8203513000000004,0.63977956,3.8886662333333337
511,1715673322280,-0.98678922,-3.85879848,-0.73149388,4.09989865,0.8351291999999999,4.8317913500000005
512,1715673322290,-0.5477453600000001,-3.7257051499999996,-0.5944859250000001,3.9820015999999994,1.3440562999999999,5.837123
513,1715673322300,0.006463788000000003,-3.58527008,-0.48474783200000005,3.5371235399999996,1.9621908300000002,6.75844534
514,1715673322310,0.663849705,-3.4622263699999998,-0.364338326,2.6289806,2.85953663,7.94563116
515,1715673322320,1.1810242222222223,-3.3693904444444445,-0.2916972222222222,1.7985908666666666,3.5178032888888886,8.76405011111111
516,1715673322330,1.69457448,-3.2423233199999997,-0.30056629999999995,0.795804676,4.10877146,9.6783962
517,1715673322340,2.43988636,-2.97477104,-0.40477969599999997,-0.15653422,4.3883033,10.616685
518,1715673322350,3.0125355899999997,-2.63292794,-0.45802670800000006,-0.9759641,3.8477946000000003,11.92515805
519,1715673322360,3.6571103000000003,-2.2885618,-0.22056842044444444,-1.2453675555555557,3.190040111111111,12.523670444444445
520,1715673322370,4.18278058,-1.99747026,0.1764615064,-1.67995575,2.1804834,12.90712475
521,1715673322380,4.6199281800000005,-1.7084412,0.683478876,-2.12648302,1.9618548400000002,12.7806757
522,1715673322390,4.90113985,-1.4274613500000002,1.1058572,-2.86289635,2.2098050000000002,12.228377
523,1715673322400,4.982404666666667,-1.2189193555555555,1.3094124555555555,-3.472667111111111,2.499270222222222,11.616060888888889
524,1715673322410,4.91178665,-1.0716661699999999,1.4216805000000001,-3.9343386799999998,2.64382476,10.958708900000001
525,1715673322420,4.64858848,-1.00771736,1.43196156,-4.16393244,2.62473524,10.348668
526,1715673322430,4.2607364599999995,-1.0292796,1.36059156,-4.01961566,2.31270524,9.713612399999999
527,1715673322440,3.9992510888888884,-1.1043868444444445,1.3021898222222221,-3.5124411666666666,1.7722727333333335,9.350751555555556
528,1715673322450,3.7020819400000002,-1.2125341600000001,1.3392977099999999,-2.7148226099999997,0.99167868,9.1393842
529,1715673322460,3.48018481,-1.29475841,1.45559718,-2.15953084,0.52754319,9.0772134
530,1715673322470,3.37839845,-1.3255651499999999,1.4818548,-2.0208949499999997,0.395382525,8.9956015
531,1715673322480,3.309359711111111,-1.3015800000000002,1.4568736333333332,-2.158017211111111,0.34781988666666663,8.843428
532,1715673322490,3.2341154000000003,-1.27564758,1.48787944,-2.4146281600000004,0.32455270999999997,8.6370232
533,1715673322500,3.18153923,-1.29170946,1.56257287,-2.6632198,0.383791364,8.466271
534,1715673322510,3.16946542,-1.36987256,1.6117769599999998,-2.86966168,0.5625152800000001,8.3861108
535,1715673322520,3.2214278666666667,-1.4174065111111112,1.5434572111111111,-2.8963156555555556,0.6655716333333334,8.471733777777779
536,1715673322530,3.2773252,-1.4139849,1.4777691,-2.8492281,0.6751588,8.559291
537,1715673322540,3.39944214,-1.2328646600000002,1.37318986,-2.4130093799999996,0.400300004,8.6873284
538,1715673322550,3.5009561,-0.9046666,1.3450378,-1.7784832333333336,0.0654643912,8.535467333333335
539,1715673322560,3.4969113,-0.6198410240000001,1.36994574,-1.53211116,0.04236350488,8.2106702
540,1715673322570,3.41029653,-0.345264044,1.42500388,-1.4976888800000001,0.38536434599999997,7.63896152
541,1715673322580,3.3442194,-0.207817,1.4420353,-1.7950784666666668,1.04956828,7.1695727
542,1715673322590,3.13903686,0.29460257040000004,1.18231288,-2.1090887,1.77952675,6.88322965
543,1715673322600,3.13110966,0.5814241960000001,0.823170012,-2.0422447200000002,2.0987191600000004,6.689921200000001
544,1715673322610,3.20506526,0.937749844,0.21317095400000002,-1.427744744,1.91930806,6.342675
545,1715673322620,3.4240778599999997,1.39644736,-0.41628039999999994,-0.19935585800000002,0.95435476,5.7839165999999995
546,1715673322630,3.5870182000000006,1.7323368666666665,-0.6612784266666666,0.4767294066666666,0.24714588333333337,5.362429666666667
547,1715673322640,3.720644,2.010727,-0.77632576,1.016327,-0.40882155,4.908455
548,1715673322650,3.852481,2.403433,-0.5066149,1.103528,-1.1388055,3.7039814
549,1715673322660,4.05179732,2.45053336,-0.256893031,-0.038377627999999976,-0.57118954,3.07828732
550,1715673322670,4.4326061249999995,2.5022344375000003,-0.136402774375,-1.3965716125,0.6062837750000001,3.0058004875
551,1715673322680,5.038180111111111,2.762742444444444,-0.49586225666666667,-1.6730580666666668,1.3682024444444445,3.271132366666667
552,1715673322690,5.4516729999999995,3.0368234666666662,-0.8294047566666667,-1.3189937377777778,1.5403476444444444,3.3597078333333332
553,1715673322700,6.07926313,3.50971702,-1.2895813500000002,-0.50915617,1.1679744,3.0692923
554,1715673322710,6.678572579999999,3.76747596,-1.41259458,0.8730791160000001,-0.42091669443999996,0.359311
555,1715673322720,6.7306972,3.2237125200000003,-1.0647694319999998,1.17854226,-1.25178506,-1.9104503999999998
556,1715673322730,6.581250777777778,2.4779697777777776,-0.6504986566666666,0.9885835444444445,-1.5215465333333333,-3.2820261222222222
557,1715673322740,6.3148988699999995,1.7752255,-0.258252887,0.61300325,-1.4436272,-3.951229
558,1715673322750,5.83781619,0.9862892679999999,0.214238113,-0.651472505,-0.40410262,-4.41718203
559,1715673322760,5.387746888888889,0.7654714777777777,0.28067355555555557,-1.6165869666666668,0.7727784666666666,-4.6524685
560,1715673322770,5.173473,0.7624225,0.23720895,-2.0363956500000002,1.5194509,-5.0172653
561,1715673322780,4.6871333,0.7402261,-0.049728511999999996,-2.0101132,1.70358096,-5.39894924
562,1715673322790,4.51288536,0.68358863,-0.153996788,-1.76723316,1.5359595599999998,-5.74054516
563,1715673322800,4.224006444444445,0.49920933666666667,-0.11699191288888887,-0.9604159199999999,0.7062280533333333,-6.389514555555555
564,1715673322810,3.99311687,0.37380231900000005,0.0853891247,-0.237443315,-0.00022908000000000927,-6.9069158
565,1715673322820,3.7649453,0.21309171500000001,0.3994745,0.311327472,-0.44721445800000004,-7.3785495999999995
566,1715673322830,3.6672504599999995,0.09279810320000001,0.5540200900000001,0.448924872,-0.539928525,-7.5757672
567,1715673322840,3.4942893444444447,-0.052625020888888895,0.7835755055555556,0.32693168666666667,-0.3685723291111111,-7.75690291111111
568,1715673322850,3.37902616,-0.121043644,0.8980767759999999,0.044837506000000006,0.0992350632,-7.824389819999999
569,1715673322860,3.352383777777778,-0.16432530222222225,0.9126277422222222,-0.2366763477777778,0.6472626644444444,-7.910535211111112
570,1715673322870,3.3342554800000004,-0.24095309199999998,0.86396506,-0.28008172,1.19213408,-8.077348599999999
571,1715673322880,3.35219552,-0.3252141,0.754897708,-0.0034972000000000115,1.48997666,-8.2599211
572,1715673322890,3.3935150800000002,-0.41882932000000006,0.607303762,0.805792362,1.4234993,-8.5684538
573,1715673322900,3.4713246,-0.54788562,0.50213908,1.5482991,1.0456179799999998,-8.8688474
574,1715673322910,3.5348878444444445,-0.6490757888888888,0.4895475111111111,1.9865508222222223,0.7016465688888889,-9.06418822222222
575,1715673322920,3.56090285,-0.754544014,0.5143470840000001,2.54271132,0.11870638600000001,-9.3433364
576,1715673322930,3.55707957,-0.9159863360000001,0.628341546,2.78053646,-0.286022382,-9.5055519
577,1715673322940,3.5553362444444443,-1.038278711111111,0.7096958966666667,2.697835366666667,-0.4002015688888889,-9.533536444444444
578,1715673322950,3.5688119499999997,-1.1982649799999998,0.776063559,2.2779011000000002,-0.2828459,-9.4201684
579,1715673322960,3.6093693,-1.26167122,0.78056993,1.7176003000000002,-0.014737129999999992,-9.297903999999999
580,1715673322970,3.6699904666666665,-1.2793023333333333,0.73925042,1.3641130000000001,0.16666439333333333,-9.269931
581,1715673322980,3.708204,-1.2915388,0.70900476,1.1198688,0.2932153,-9.280417
582,1715673322990,3.760111111111111,-1.3054488,0.6501124666666667,0.9197594466666666,0.28883744666666666,-9.339671333333333
583,1715673323000,3.7501458,-1.33260208,0.6139382999999999,1.007500044,0.13487904960000002,-9.4087604
584,1715673323010,3.7159913100000006,-1.39833151,0.5592399899999999,1.2050996699999998,-0.12282973319999999,-9.4252079
585,1715673323020,3.64033432,-1.47920826,0.5252014199999999,1.4673289,-0.5399438,-9.3862194
586,1715673323030,3.4778792444444444,-1.566636177777778,0.5112290333333334,1.706808411111111,-1.0186178000000001,-9.295553
587,1715673323040,3.29697284,-1.6285218799999999,0.51678622,1.8350391600000002,-1.31980494,-9.2162762
588,1715673323050,3.065301,-1.721259,0.5084443,1.9645426,-1.6351335,-9.080665
589,1715673323060,2.66627762,-1.7865676799999999,0.47818642,1.87166052,-1.8548006799999999,-8.650524
590,1715673323070,2.42697094,-1.7620784400000002,0.4721617,1.58455388,-1.72816832,-8.511063799999999
591,1715673323080,2.105698744444444,-1.7843046666666664,0.4078354711111111,0.8638822611111111,-1.357749788888889,-8.25703188888889
592,1715673323090,1.837896875,-1.824557725,0.336803195,0.343191735,-1.10005375,-8.072240625
593,1715673323100,1.4513380444444444,-1.7862763555555554,0.25185072999999997,-0.4042909722222222,-0.7246389355555556,-7.837486055555555
594,1715673323110,0.9397377600000001,-1.71920996,0.106091552,-1.0403340399999998,-0.423054728,-7.636212499999999
595,1715673323120,0.5991386280000001,-1.7237774399999999,0.0488748014,-1.43389927,-0.27516423300000004,-7.46203972
596,1715673323130,0.2158052648,-1.83146058,0.0578204472,-1.6764890399999999,-0.16740762,-7.000699159999999
597,1715673323140,-0.04064600577777778,-1.9883071888888888,0.15974509333333334,-1.5294877555555555,-0.053942795555555555,-6.244332666666667
598,1715673323150,-0.34062964,-2.0846338,0.28751677,-1.1875677999999998,0.226035415,-5.25593035
599,1715673323160,-0.725700876,-2.04923534,0.1995482308,-0.650968564,0.83422812,-4.0145452
600,1715673323170,-1.1590615,-2.24375905,-0.031251823,-0.437608585,1.3150401500000002,-3.4352007
601,1715673323180,-1.4450097555555557,-2.576864477777778,-0.2948952544444444,-0.4480017855555556,1.5657324555555556,-3.198320777777778
602,1715673323190,-1.7286008799999997,-2.94480592,-0.591461356,-0.47433686,1.50104864,-2.9746693
603,1715673323200,-1.9283686199999999,-3.2744592599999995,-0.8000467199999999,-0.36630533600000004,1.200533506,-2.74345674
604,1715673323210,-2.09981762,-3.89181238,-0.9622756560000001,0.147065808,0.51666983,-2.33032874
605,1715673323220,-2.232962244444445,-4.268501055555556,-0.9612010422222222,0.6258484022222223,0.02020944000000001,-1.8813800333333335
606,1715673323230,-2.44452066,-4.56703486,-0.85507428,1.3099089000000002,-0.6495025200000001,-0.953316278
607,1715673323240,-2.50315816,-4.66284524,-0.5914857739999999,1.88290056,-1.0531928000000002,0.230326728
608,1715673323250,-2.3207180666666667,-4.523868111111111,-0.070715505,2.072971211111111,-0.6940956277777778,2.266326988888889
609,1715673323260,-2.1486192600000003,-4.3372163399999994,0.0623877889,1.59444993,-0.03918701499999999,3.02816592
610,1715673323270,-1.7940681600000001,-4.07226204,0.104835386,0.48264461599999997,1.09683908,3.81357062
611,1715673323280,-1.452218888888889,-3.7236725888888893,0.015807155,-0.5906897111111111,2.031686888888889,4.376526944444445
612,1715673323290,-1.131175796,-3.3703430600000006,-0.138459295,-1.2837333,2.6471845000000003,4.8266752
613,1715673323300,-0.809663123,-3.19947932,-0.255100249,-1.27269193,2.70556795,5.09544068
614,1715673323310,-0.45019700400000007,-3.0886558,-0.315713548,-0.892840652,2.5290127,5.532606400000001
615,1715673323320,-0.071162684,-2.87078949,-0.25852727799999997,-0.18437440500000002,2.1804224500000005,6.2197687
616,1715673323330,0.1478135,-2.7386353,-0.1920234,0.19929479,2.018146,6.614449
617,1715673323340,0.47153966,-2.67677826,-0.08362683200000001,0.505017549,1.90715183,7.22780332
618,1715673323350,1.1232972,-2.5254521,0.22086655,0.717308524,2.07061938,8.4045288
619,1715673323360,1.7623590400000002,-2.49831646,0.31256700400000004,0.48188108399999996,2.4226915,9.1198516
620,1715673323370,2.398229466666667,-2.4915478666666666,0.3423777,-0.08445212,2.7898215333333334,9.741722666666668
621,1715673323380,2.9298661499999996,-2.4845047,0.32215295,-0.7995462499999999,3.0226375,10.128604
622,1715673323390,3.25236046,-2.49077944,0.31767708,-1.3613743,2.99931776,10.3446056
623,1715673323400,3.6755801499999996,-2.5560638,0.40389552,-2.0071505000000003,2.6858218000000003,10.710300499999999
624,1715673323410,4.097596688888888,-2.632436777777778,0.5953802666666667,-2.305931466666667,2.1900537,11.245893444444444
625,1715673323420,4.4615652,-2.66026489,0.81482802,-2.3342077,1.7522669199999998,11.7865228
626,1715673323430,4.71164084,-2.6425199800000003,1.04018264,-2.00898298,1.3425596800000001,12.5659872
627,1715673323440,4.966624388888889,-2.538210466666667,1.3066481333333333,-1.6953037444444443,1.2298753555555555,12.975286666666667
628,1715673323450,5.2436595,-2.2524486,1.510454,-1.0697777,1.2864822,13.355651999999997
629,1715673323460,5.24391568,-1.63834561,1.45330432,-0.6162866549999999,1.65962918,12.6124741
630,1715673323470,4.9500755,-1.30708845,1.2658056,-0.6628804300000001,1.7881247599999999,11.5670084
631,1715673323480,4.651084555555555,-1.3479648333333334,1.223513111111111,-1.0853548166666667,1.7242010444444444,10.132778444444446
632,1715673323490,4.3351675,-1.5846900400000001,1.26306148,-1.4618616,1.5998866,9.4415028
633,1715673323500,4.136796250000001,-1.9512724,1.32452845,-1.7691879,1.5212987999999998,9.185459
634,1715673323510,4.0350523,-2.18511526,1.33243132,-1.83598602,1.54365648,9.506621
635,1715673323520,4.0013308,-2.2145559599999998,1.3140644199999998,-1.8042821400000002,1.55688172,9.7241192
636,1715673323530,3.9874279999999995,-2.1788466,1.2717205,-1.7111863,1.553583,9.935112
637,1715673323540,4.0001116,-2.0440216,1.1840324,-1.4601207,1.4323263,10.191217
638,1715673323550,3.9892084000000003,-1.9246733200000001,1.1302488199999998,-1.3257914400000002,1.28269488,10.057712800000001
639,1715673323560,3.954173911111111,-1.6717168666666666,1.0515790111111112,-1.1093143333333333,1.052351088888889,9.590788222222223
640,1715673323570,3.9706583,-1.5394801,0.87919765,-0.9618684200000001,0.9925644,9.220583600000001
641,1715673323580,3.9791039500000003,-1.4199913499999999,0.68857675,-0.605856146,0.826561768,8.7826542
642,1715673323590,3.9668506555555556,-1.2613134222222222,0.5407700222222221,0.018529573333333344,0.5036074799999999,8.646899333333332
643,1715673323600,3.9772442999999997,-0.9080103249999999,0.36685066499999996,0.8208196280000001,0.143461696,8.520470399999999
644,1715673323610,4.0723650000000005,-0.4251603,0.22152376888888886,1.6627752,-0.14222979666666669,8.306036333333333
645,1715673323620,4.19379968,-0.063808598,0.12264740199999999,2.2225721,-0.08462010700000001,7.97521222
646,1715673323630,4.361339930000001,0.38417487100000003,-0.035831358,2.46554378,0.212458936,7.48303802
647,1715673323640,4.5165443,0.80022967,-0.18708408,2.3205245,0.548557,6.9818845
648,1715673323650,4.750826,1.2633054,-0.33532444,1.44871277,1.31247448,6.150343899999999
649,1715673323660,4.8675706,1.8393451500000002,-0.44969086999999996,-1.335885965,2.97415005,4.6054659000000004
650,1715673323670,4.87345505,2.0449058,-0.31620746,-2.72335951,3.76329637,3.8573239999999998
651,1715673323680,4.847396499999999,2.120889177777778,-0.21808860444444444,-3.709632,4.4194574,3.2829425
652,1715673323690,4.963692,2.05557112,-0.24355079200000002,-3.5065345199999998,4.81465649,2.82726761
653,1715673323700,5.365520399999999,1.8587426399999998,-0.422353898,-1.86055806,4.374207370000001,2.8018403199999997
654,1715673323710,5.8725378,1.7618305666666665,-0.6685959133333333,0.8712974666666667,3.2045991666666667,2.830902333333333
655,1715673323720,6.2549747600000005,1.7474069499999998,-0.8804782360000001,2.7467556,2.2638667,2.666885
656,1715673323730,6.6216303199999995,1.8233503199999999,-1.15121356,4.18260948,0.98233241,1.6499317919999998
657,1715673323740,6.77233431,1.7603100299999999,-1.3914775,5.23994101,-0.67210448,0.007437285999999999
658,1715673323750,6.5384307,1.4383767,-1.1175652,4.8201847,-2.119397,-1.5969545
659,1715673323760,6.0856905,0.50792597,0.11409202500000001,1.88070135,-1.924531,-3.5309537499999997
660,1715673323770,5.853481749999999,0.157783591,0.61555418,0.07933612999999995,-0.838870705,-4.43747775
661,1715673323780,5.52096828,-0.2879192272,0.8493788200000001,-1.57045812,0.6135377949999999,-5.30391375
662,1715673323790,5.224410233333334,-0.48706092666666667,0.8225886566666667,-2.4128157666666663,1.5570955333333334,-5.847151133333334
663,1715673323800,4.78162619,-0.607065912,0.7658800290000001,-2.5433985,1.94939316,-6.324440640000001
664,1715673323810,4.433709599999999,-0.716456452,0.818486732,-2.19841248,1.84508788,-6.59316046
665,1715673323820,4.0989529,-0.79250358,0.881795322,-1.339337325,1.48357787,-6.83878922
666,1715673323830,3.5801885666666666,-0.9014144,0.9725161,0.2525418666666666,0.7450010933333333,-7.137502133333334
667,1715673323840,3.29791198,-0.9054308600000001,1.06326934,1.05475046,0.33102787394,-7.17760554
668,1715673323850,3.1365244,-0.86401385,1.1272609,1.7081319,-0.007024950300000001,-7.1889677
669,1715673323860,3.00816324,-0.73962853,1.2746962800000001,1.8608329600000002,0.06501133779,-7.267219539999999
670,1715673323870,2.92645124,-0.68779623,1.3865687,2.3186155000000004,0.49480085,-7.648872999999999
671,1715673323880,2.957977588888889,-0.72364655,1.3489133777777778,2.4469735555555556,0.8713823,-7.998805
672,1715673323890,2.9865158,-0.869928805,1.2407736,2.59907896,1.0656238999999998,-8.3149142
673,1715673323900,2.98849142,-1.068403796,1.15366492,2.84305848,1.04008974,-8.5748072
674,1715673323910,2.9699903777777776,-1.2138919666666665,1.0884443666666668,3.087635333333333,0.8091928333333333,-8.679207222222223
675,1715673323920,2.92391464,-1.3055274799999999,1.0119981,3.4927137000000004,0.16200147999999998,-8.7654276
676,1715673323930,2.9228900600000003,-1.28529452,1.03201763,3.97674808,-0.59339447,-8.8604936
677,1715673323940,2.991400911111111,-1.2875074444444445,1.1141300444444446,4.499667455555556,-1.5521746111111112,-9.086399555555555
678,1715673323950,3.1331401,-1.31303395,1.3031248500000001,4.75428795,-2.4378105,-9.3818975
679,1715673323960,3.2148826,-1.3204429,1.4219732,4.7714686,-2.784782,-9.51835
680,1715673323970,3.42694384,-1.40430139,1.68655574,4.43353796,-2.972562,-9.727632400000001
681,1715673323980,3.4891941111111113,-1.4631612,1.8027474888888892,4.065851322222222,-2.8016995777777773,-9.857668555555556
682,1715673323990,3.6403039,-1.7080875,2.08844505,2.72900992,-1.5245363719999998,-10.152824599999999
683,1715673324000,3.6013382,-1.8288567,1.93489945,2.0228039,-0.308716015,-10.176404
684,1715673324010,3.5188273700000003,-1.8867502600000001,1.7072703,1.79705856,0.23825271900000003,-10.157192599999998
685,1715673324020,3.4546461666666666,-1.9245296111111108,1.4593059777777777,1.7109486333333332,0.43507180777777776,-10.085232666666666
686,1715673324030,3.45162812,-1.9932504599999998,1.3341753200000002,1.71909696,0.322323046,-9.981660199999999
687,1715673324040,3.42319984,-2.0097514399999996,1.2854164799999999,1.7440203300000001,0.189826378,-9.9097307
688,1715673324050,3.4069061499999997,-1.9239842,1.22400435,1.7902016800000002,0.0729678552,-9.9074404
689,1715673324060,3.409873633333333,-1.8657795999999998,1.2249698666666666,1.7760398000000002,0.12207124200000001,-10.024299000000001
690,1715673324070,3.40955238,-1.8245455400000001,1.2961487999999999,1.69725854,0.353385544,-10.17897
691,1715673324080,3.39518586,-1.8272285400000001,1.35332296,1.46806185,1.1327732300000002,-10.3001045
692,1715673324090,3.29980232,-1.80844696,1.241853,1.185658868,1.89750014,-10.272004800000001
693,1715673324100,3.167488488888889,-1.7711738777777777,1.0381567822222222,0.6364197755555555,2.942690577777778,-10.165120333333332
694,1715673324110,2.9876134800000003,-1.7904947399999998,0.787070276,0.167804684,3.61189356,-10.0803458
695,1715673324120,2.56115555,-1.8736763499999998,0.33565981749999996,-0.45807256,4.47214465,-9.909913999999999
696,1715673324130,2.2177513,-1.9146239,0.040270644,-0.841924995,5.0347515000000005,-9.6418205
697,1715673324140,1.8003827888888888,-1.9657921444444446,-0.36825996,-1.0045848455555555,5.255409555555556,-9.321837555555556
698,1715673324150,1.445999,-2.0799994,-0.7364454,-1.04659546,5.179160080000001,-8.5992728
699,1715673324160,0.9674467360000001,-2.2232150600000002,-1.21954678,-0.80209664,4.62820536,-7.5746524
700,1715673324170,0.62903063,-2.1247276,-1.3512679,-0.22073615148,3.9613388200000004,-6.535219499999999
701,1715673324180,0.2433136588888889,-1.977703511111111,-1.4240803888888889,0.21548271900000002,3.7926926111111112,-6.189218722222222
702,1715673324190,-0.06050353799999999,-2.09758584,-1.70731906,0.61898975,3.85278822,-5.96961946
703,1715673324200,-0.40106,-2.37800455,-2.3557167,0.9602038,3.6616790000000004,-5.61507345
704,1715673324210,-0.6127525666666667,-2.6001381666666665,-2.861928577777778,1.1966680666666667,2.8959084777777777,-5.1813761666666664
705,1715673324220,-0.8243773600000001,-2.9057793999999997,-3.2075043,1.3064117,1.61459315,-4.701219
706,1715673324230,-0.9656118877777777,-3.0818668444444444,-3.270102788888889,1.2641347,0.69353568,-4.4226133333333335
707,1715673324240,-1.15028058,-3.31065659,-3.17396569,1.2215472,-0.03820961599999999,-4.1764549
708,1715673324250,-1.25645136,-3.6056617799999997,-2.9686733199999997,1.2825116,-0.70173144,-3.8654025000000005
709,1715673324260,-1.42559536,-4.21450208,-2.58793138,1.8091384599999998,-1.05081044,-2.60081992
710,1715673324270,-1.570105111111111,-4.467936688888889,-2.5716947444444447,1.968886522222222,-0.8954606,-1.8673133022222221
711,1715673324280,-1.6980562499999998,-4.58148665,-2.72753725,2.13469916,-0.5392412799999999,-0.20977111600000004
712,1715673324290,-1.6332117777777777,-4.578194,-2.8475713111111114,2.2029328888888893,-0.48193873333333337,1.5305737777777777
713,1715673324300,-1.49351401,-4.50970222,-2.86646602,2.14129654,-0.575190694,2.4918415200000004
714,1715673324310,-1.2011921,-4.30193396,-2.75816096,1.77245606,-0.9106778820000001,4.0560231600000005
715,1715673324320,-0.8680872799999999,-4.116020799999999,-2.4382520399999996,1.3711176200000001,-1.17438838,5.1233881
716,1715673324330,-0.539403389,-4.01657578,-2.00158011,0.9202990700000001,-1.26253624,6.16998346
717,1715673324340,-0.1468988066666667,-3.9903546333333333,-1.5385653,0.4332052644444444,-1.118375511111111,7.2800035
718,1715673324350,0.18897444,-3.9985258999999997,-1.3245285,0.05513059,-0.9602802,8.186052
719,1715673324360,1.004022,-3.8509361333333327,-0.8989142666666667,-0.6957755333333333,-0.6957246333333333,10.335177666666667
720,1715673324370,1.8302897200000001,-3.6278093599999996,-0.6001569760000001,-1.0658988,-0.677357972,11.575712800000002
721,1715673324380,2.7153108,-3.3157119,-0.18763289919999998,-1.48440255,-0.6436229050000001,12.690648999999999
722,1715673324390,3.431877,-2.9195302,0.2122075008,-1.7278324,-0.47349692499999996,12.8357295
723,1715673324400,3.8771978666666667,-2.6064936,0.5023870266666667,-1.8948022,-0.2751438833333333,12.54763
724,1715673324410,4.14740688,-2.3874564200000004,0.718285794,-2.04108396,-0.0990823424,12.071827
725,1715673324420,4.49282316,-2.21064116,1.2940023,-2.1932505200000003,0.1184467728,11.550392599999999
726,1715673324430,4.617552644444444,-2.1760414666666663,1.6083390666666668,-2.3276850888888894,0.3691492666666667,11.27998322222222
727,1715673324440,4.5433628,-2.01359918,1.87033476,-2.5764616200000003,0.8452237199999999,11.080011299999999
728,1715673324450,4.387973757142857,-1.7994516714285713,1.9352087571428573,-2.8225028714285716,1.1516555571428573,10.918757714285714
729,1715673324460,4.07027392,-1.6531696399999998,1.8082762200000002,-3.3761757500000003,1.26136035,10.479927499999999
730,1715673324470,3.8750565000000003,-1.611964,1.6986831111111111,-3.732386533333334,0.9873788333333334,10.159045222222222
731,1715673324480,3.70061826,-1.5654572400000002,1.6765246399999998,-4.0402628,0.5998391240000001,9.8093658
732,1715673324490,3.5130951,-1.52701598,1.76750556,-4.3824086399999995,0.1364062172,9.3175888
733,1715673324500,3.3601593800000003,-1.5173081,1.90584296,-4.56847792,-0.08549059020000001,8.8736428
734,1715673324510,3.150170377777778,-1.5475361333333333,2.030504777777778,-4.7018466666666665,-0.14253522111111114,8.419063666666666
735,1715673324520,2.95941662,-1.63669306,2.09181726,-4.7734538,-0.09871582320000001,8.1475066
736,1715673324530,2.86202069,-1.7810307699999999,2.12372145,-4.8620599,-0.030085114599999997,8.016384599999999
737,1715673324540,2.7973447,-1.9487994000000002,2.1412089111111112,-4.965842555555556,0.012471832133333334,7.989370666666667
738,1715673324550,2.7610147,-2.0543272,2.1202457,-5.068349,-0.0021380284,8.029518
739,1715673324560,2.765954,-2.3409598,2.10478745,-5.17189075,-0.7069238099999999,8.199644000000001
740,1715673324570,2.9048645666666664,-2.4657333333333336,2.245354633333333,-5.005989866666667,-1.11243654,8.377558333333333
741,1715673324580,3.26110495,-2.4968225,2.5856386000000002,-4.44902324,-1.4389847000000002,8.7819822
742,1715673324590,3.4448962,-2.4700222,2.7490017,-4.217261,-1.4949399,8.941235
743,1715673324600,3.6883006000000003,-2.02749632,2.9337323,-3.1438486400000003,-0.7018841499999999,9.248377399999999
744,1715673324610,3.70141122,-1.6967209399999998,2.72595184,-2.57299508,-0.004948007999999981,9.1663686
745,1715673324620,3.668750666666667,-1.3840645333333332,2.3480029,-2.0939443,0.6224207833333334,8.972235666666668
746,1715673324630,3.6344377100000003,-1.08423402,1.91028829,-1.7826575000000002,1.0145097550000002,8.724071599999998
747,1715673324640,3.617006433333333,-0.8353875111111111,1.5718260888888889,-1.5758966333333335,1.0942293444444444,8.503566555555555
748,1715673324650,3.6619210000000004,-0.5339336,1.2219006,-1.2899947,1.0413725,8.221941
749,1715673324660,4.3588314666666665,-0.17528801777777778,0.5172998400000001,-0.9401046333333333,0.7368901444444445,8.209570777777778
750,1715673324670,4.7707295,-0.042917142000000005,0.2659179388,-0.9311418699999999,0.46184467200000007,8.3661052
751,1715673324680,5.8112334444444445,0.7829792555555556,0.04571404844444445,-1.3097799555555554,-0.045085242222222204,8.44920011111111
752,1715673324690,6.511325000000001,1.6161309,0.244587437,-1.9262871999999998,-0.311159475,7.8691664
753,1715673324700,6.920550199999999,2.13445392,0.5686429399999999,-2.69428222,-0.054244828,6.65125358
754,1715673324710,7.153649,2.3719068,0.8047421,-3.3600643,0.3642284,5.499467
755,1715673324720,7.165296099999999,2.1924205800000003,0.9420366579999999,-4.170178229999999,1.21925651,3.91017894
756,1715673324730,7.1058654599999995,2.0357042,0.936469288,-4.19655266,1.81042134,2.66899246
757,1715673324740,6.91134198,2.41648248,0.801705324,-2.27196055,1.5294539,1.9812651499999998
758,1715673324750,6.8605217,2.57189409,0.714401415,-0.852966385,1.0461220519999999,1.575039708
759,1715673324760,6.645814666666667,2.617835566666667,0.33861731,1.6646587333333334,-0.007941239999999997,0.5492696566666667
760,1715673324770,6.277451600000001,2.2746692200000003,0.021208562000000004,3.70651662,-1.21403356,-0.79876737
761,1715673324780,5.705454850000001,1.8031844500000003,-0.042563455,4.72954785,-2.2569943,-2.01753515
762,1715673324790,5.1220061999999995,1.4625853,0.13805684000000001,4.523380850000001,-2.5838072,-2.7716483
763,1715673324800,4.709543133333333,1.2658867999999999,0.2848946733333333,3.5753435666666666,-2.2742004,-3.227252
764,1715673324810,4.279030199999999,1.11143072,0.35245958,1.8379408599999998,-1.40080564,-3.72875204
765,1715673324820,3.95412094,1.0230352999999999,0.357825756,0.54877082,-0.6960198559999999,-4.0986613599999995
766,1715673324830,3.54878026,0.88031966,0.35585004800000003,-0.8089383,0.06291912,-4.550946
767,1715673324840,3.2259199333333335,0.7275424533333333,0.35565083666666664,-1.7907345222222222,0.8170322866666667,-5.1080212
768,1715673324850,3.03187196,0.637073756,0.312810942,-1.85165476,0.9997421400000001,-5.420054840000001
769,1715673324860,2.81220056,0.489260256,0.31410369,-1.0287582,0.582795992,-5.91262566
770,1715673324870,2.69468159,0.36296019,0.376924422,-0.508056662,0.265726386,-6.13039912
771,1715673324880,2.6282088666666663,0.22473534555555558,0.4822909822222223,0.48971029333333327,-0.4165082766666667,-6.531320433333333
772,1715673324890,2.6160062799999997,0.021013422999999996,0.7131635399999999,1.2515865,-0.991586965,-6.92308855
773,1715673324900,2.638744711111111,-0.10006681055555555,0.8621369888888889,1.564001633333333,-1.2336083777777778,-7.197129222222222
774,1715673324910,2.68258334,-0.23420878099999998,1.01930334,1.6509243599999999,-1.27512008,-7.39189676
775,1715673324920,2.75031295,-0.44261730000000005,1.20263115,1.59955064,-1.009027188,-7.748092680000001
776,1715673324930,2.7763815,-0.5222866,1.2501339,1.5349517,-0.77518797,-7.934376
777,1715673324940,2.81544485,-0.64279972,1.2503412600000001,1.4649617799999999,-0.457644976,-8.1711623
778,1715673324950,2.850648,-0.797918555,1.2519389,1.40993808,-0.10387763399999998,-8.4342164
779,1715673324960,2.89137608,-0.9298957299999999,1.2089364599999999,1.4136643599999998,0.107848258,-8.599577199999999
780,1715673324970,2.9320613,-0.9903220333333334,1.1546812333333332,1.6135495888888889,0.012709388888888895,-8.751849111111111
781,1715673324980,2.9758931,-1.0512686599999999,1.1283951,1.90861792,-0.223393421,-8.901527999999999
782,1715673324990,3.0222982800000002,-1.1173457199999999,1.15028662,2.186134,-0.52465687,-9.042409
783,1715673325000,3.099693111111111,-1.184256122222222,1.2217989333333332,2.3727532222222223,-0.7330891555555555,-9.157871333333333
784,1715673325010,3.18735065,-1.2285168,1.28111135,2.4379325,-0.779616748,-9.2930318
785,1715673325020,3.2461284200000002,-1.25521962,1.29219738,2.3914762000000005,-0.712910296,-9.4444344
786,1715673325030,3.3189133666666666,-1.3233969888888888,1.2761043,2.222734888888889,-0.5280081422222223,-9.656676222222224
787,1715673325040,3.3567569400000004,-1.42305864,1.20811934,1.96225182,-0.287625888,-9.8609532
788,1715673325050,3.35745219,-1.5322967,1.16297032,1.7484490999999998,-0.12904528,-9.955882
789,1715673325060,3.24687256,-1.67309752,1.11699202,1.1923479000000001,0.45860708,-9.999039199999999
790,1715673325070,3.1408743555555554,-1.6803419222222222,1.0395051444444445,1.0042115333333335,0.7903917644444445,-9.972442333333333
791,1715673325080,2.93686656,-1.6730733,0.89871094,0.9202685,1.0966558000000002,-9.938472
792,1715673325090,2.7540266,-1.6890985600000001,0.7898021639999999,0.908356644,1.2065505,-9.929767000000002
793,1715673325100,2.5228606499999997,-1.7216248,0.73668933,0.87689708,1.3342061,-9.905485
794,1715673325110,2.2646443,-1.7640663499999998,0.73144515,0.78091485,1.5631278,-9.8393595
795,1715673325120,2.016459033333333,-1.7996578,0.7293718666666666,0.6470081,1.9074776333333334,-9.727316666666667
796,1715673325130,1.55813975,-1.8596511500000001,0.623877885,0.45265116499999997,2.56777205,-9.467418499999999
797,1715673325140,1.311662,-1.9029769,0.52643317,0.38973203,2.8608346,-9.337839
798,1715673325150,0.8424272499999998,-2.0014582,0.18610841,0.31963524,3.3426546999999998,-8.911303
799,1715673325160,0.23180216333333334,-2.1128468666666667,-0.34713409333333334,0.32935818,3.3455053,-7.8478879
800,1715673325170,-0.6729965699999999,-2.2068056,-1.106528025,0.441502857,2.93293198,-6.400829310000001
801,1715673325180,-1.08725855,-2.2019576499999998,-1.31282055,0.569708193,2.3125372000000004,-5.46849641
802,1715673325190,-1.288489822222222,-2.0277876666666668,-1.3259581666666667,0.6587672333333333,1.3081170000000002,-3.868253166666667
803,1715673325200,-1.33399248,-1.63631506,-1.2115585599999998,0.8154134799999999,0.48035388,-2.5390308599999996
804,1715673325210,-1.3533411499999999,-1.2798003,-1.00283295,0.9967793799999999,0.245445656,-1.91793362
805,1715673325220,-1.3806496666666666,-1.1849946333333332,-0.9214765422222223,1.1928671,0.4283522755555555,-1.4364496555555555
806,1715673325230,-1.38864202,-1.21304642,-0.903942994,1.20077779,0.7362758789999999,-1.24236252
807,1715673325240,-1.43854734,-1.3113326,-0.9563729000000001,1.13973707,1.2130257,-1.02562748
808,1715673325250,-1.5189911,-1.4951482,-1.1172603,1.1330023,1.4813483,-0.8324566000000001
809,1715673325260,-1.533490588888889,-1.5136249,-1.1486984444444444,1.1814982111111112,1.4550471555555555,-0.7524332544444445
810,1715673325270,-1.7579379,-1.85205327,-1.74277859,1.65202394,1.10679624,-0.031429016
811,1715673325280,-1.8644176999999997,-2.1629107333333333,-1.9338933999999999,2.162921133333333,0.37848190866666664,0.38443785333333336
812,1715673325290,-1.9568946600000001,-2.441301,-1.92499036,2.75167304,-0.0942259644,0.6641937600000001
813,1715673325300,-2.0323137,-2.7731985000000003,-1.9482599999999999,3.27431405,-0.36835175000000003,0.94783375
814,1715673325310,-2.05427844,-3.2425308800000003,-1.96088278,3.4859330999999996,-0.52711564,1.3437508
815,1715673325320,-1.9798107333333332,-3.6816987,-1.9296450333333333,3.3581298333333334,-0.71247251,2.1016310333333332
816,1715673325330,-1.6627798999999999,-4.0318817000000005,-1.54076055,2.57895086,-0.8980329859999999,3.4259461
817,1715673325340,-1.2836588666666668,-4.1433245,-1.0248903866666668,1.6098844166666666,-0.7444411133333334,4.6866598999999995
818,1715673325350,-0.9536288599999999,-4.08120152,-0.636110288,0.7316333,-0.203326488,5.79353756
819,1715673325360,-0.086285528,-3.72954688,0.046270988,-0.70231178,1.209116136,7.498828999999999
820,1715673325370,0.48657718400000005,-3.46721452,0.23551373199999998,-1.6291165200000002,2.1888218200000003,8.446617
821,1715673325380,1.3134438888888889,-3.069440688888889,0.39641202,-2.9498003777777777,3.372044022222222,9.473451333333333
822,1715673325390,1.8171547799999999,-2.7560022799999997,0.5025659219999999,-3.4803437199999996,3.8289643599999996,9.852982
823,1715673325400,2.21607435,-2.47996185,0.508444315,-3.7897316000000005,4.0333905,10.075764
824,1715673325410,2.4380203199999997,-2.3596744000000003,0.44692852099999997,-3.8801242800000004,3.73962548,10.092517099999998
825,1715673325420,2.721486755555555,-2.231370188888889,0.3953076044444444,-3.9188192222222225,2.769713911111111,10.040978777777777
826,1715673325430,2.9913331199999997,-2.12967304,0.7212249820000001,-3.78302732,0.8797681159999999,9.847789
827,1715673325440,3.10840098,-2.09593948,1.09788108,-3.60256253,-0.20256292,9.6686071
828,1715673325450,3.1917717,-2.0657914,1.3720922,-3.4917057,-0.61926466,9.571648
829,1715673325460,3.33098705,-1.9190571200000002,2.06966341,-3.25088734,-0.8361675999999999,9.2251037
830,1715673325470,3.34820742,-1.75072408,2.4200070399999998,-3.30740774,-0.269910808,8.989829
831,1715673325480,3.2334475555555553,-1.5716364222222223,2.4402236,-3.6912890555555555,0.8486106,8.606327666666667
832,1715673325490,3.02831084,-1.5006485999999999,2.21539744,-4.07908324,1.50892878,8.3327216
833,1715673325500,2.87614345,-1.492953,2.00008625,-4.4907758,1.89436945,8.03409985
834,1715673325510,2.7374035599999997,-1.4693906399999999,1.79706838,-4.7487137,1.85748845,7.71721335
835,1715673325520,2.5947244,-1.4886641666666667,1.5865967,-4.8590766,1.5792902666666666,7.468845666666667
836,1715673325530,2.54475208,-1.58790974,1.4888674,-4.866442510000001,1.00864543,7.2791771
837,1715673325540,2.5479536,-1.6807079000000003,1.4624025,-4.8090367,0.4173737,7.192480000000001
838,1715673325550,2.586370533333333,-1.733021311111111,1.5408961444444444,-4.607994122222222,-0.23850893555555558,7.206292555555556
839,1715673325560,2.7644539999999997,-1.78420172,1.8174476000000002,-4.22172024,-0.98621138,7.35964348
840,1715673325570,2.89336392,-1.79594622,1.96221208,-3.99854044,-1.21562184,7.52023976
841,1715673325580,3.04247008,-1.6713657999999998,2.1327708000000003,-3.6671004500000004,-1.120403225,7.785095749999999
842,1715673325590,3.0843871666666667,-1.5802548333333333,2.1387020666666667,-3.547277588888889,-0.7440508277777778,7.840234833333333
843,1715673325600,3.1083885799999997,-1.4709638999999999,2.0831947200000003,-3.5872450999999996,-0.21065688,7.8065218000000005
844,1715673325610,3.1429882222222223,-1.3046018,1.9990327444444445,-3.7965275333333333,0.4712655655555556,7.730618555555556
845,1715673325620,3.21104104,-1.063366864,1.84564432,-4.03490237,1.032423332,7.6236441
846,1715673325630,3.2711543,-0.827243408,1.64024202,-4.2409317799999995,1.48424978,7.47534094
847,1715673325640,3.3498661,-0.344532286,1.18899622,-4.096889859999999,1.43696886,7.29257042
848,1715673325650,3.45655825,0.04858515875,0.941609835,-3.62697425,1.035225695,7.142541925
849,1715673325660,3.6698789300000003,0.543525642,0.724371531,-2.9121473,0.42485678,6.9794407
850,1715673325670,4.1093556,1.5300893500000001,0.8077300749999999,-1.48437196,-0.7862141100000001,6.1783522
851,1715673325680,4.389131533333334,2.208638366666667,1.0948742333333332,-1.547525288888889,-0.5318430244444445,5.288701444444445
852,1715673325690,4.50907425,2.56142985,1.31163145,-2.29402805,0.44417543000000004,4.120744
853,1715673325700,4.49654302,2.633739,1.33991964,-3.42118118,1.77798448,3.0155362000000006
854,1715673325710,4.438314433333334,2.3720762555555557,1.1096853177777777,-4.623078955555556,3.0972566111111113,1.9849896444444444
855,1715673325720,4.453906,1.93703996,0.8088276520000001,-5.0507560400000004,3.4505946,1.48431092
856,1715673325730,4.60761028,1.57745786,0.548160031,-4.46218736,2.7144408400000004,1.5912734199999998
857,1715673325740,4.94756936,1.4169241000000001,0.31955522199999997,-3.15577571,1.3345420300000002,2.02633165
858,1715673325750,5.3671062,1.63341238,0.37320471,-1.42230805,-0.2824641,2.36982116
859,1715673325760,5.955043,2.0123127,0.54448295,0.56031615,-1.9480493,2.4301746
860,1715673325770,6.6163432,2.7346229699999998,1.103942435,2.654927325,-3.18042407,0.18831447000000004
861,1715673325780,6.764907,2.958831,1.3703848,2.945049311111111,-3.2382984333333336,-1.2185743777777778
862,1715673325790,6.3851531999999995,2.21780017,1.8180877599999998,2.1027815599999995,-2.3719897800000003,-3.12211706
863,1715673325800,6.1250892,1.6549989829999998,1.9669867,1.2197604765999999,-1.468031391,-3.9151575800000002
864,1715673325810,5.5276700625,0.86488279625,1.9473163375,-0.38665860875,0.7771733062499999,-4.6448857625
865,1715673325820,5.204633,0.67546624,1.7958974,-0.9728029,1.9118555,-4.8902817
866,1715673325830,4.834294219999999,0.625908487,1.4690979199999998,-1.1113166,2.9361238,-5.285817
867,1715673325840,4.224002400000001,0.4564413,1.03221876,-0.5064072708,2.80759773,-5.609285359999999
868,1715673325850,3.890491311111111,0.31026878,0.9356372444444444,0.187620476,2.390366522222222,-5.833525466666667
869,1715673325860,3.5283280400000003,0.19193803,1.01013216,1.46538938,1.391276154,-6.0638453
870,1715673325870,3.2651905999999995,0.15305771,1.1497012,2.4034493,0.75243324,-6.240599
871,1715673325880,3.1240914777777777,0.07149468744444445,1.256136988888889,3.2627839888888888,0.23820350666666665,-6.640088277777778
872,1715673325890,3.05509282,-0.030977418200000002,1.3271140200000002,3.5971564000000003,0.099571035,-6.966765499999999
873,1715673325900,3.03630515,-0.22196418,1.37233615,3.67969955,0.19440786999999998,-7.288538749999999
874,1715673325910,3.032311044444444,-0.3549597444444445,1.3756493777777776,3.6606948111111115,0.35722043444444446,-7.517002388888888
875,1715673325920,3.02315202,-0.5081881659999999,1.30152722,3.6548983,0.605978344,-7.889416199999999
876,1715673325930,3.0332867,-0.64939764,1.2050398,3.8252381,0.546266245,-8.158945
877,1715673325940,3.0566951374999998,-0.7278244975,1.1619045875,3.992691475,0.42691844624999997,-8.321320625
878,1715673325950,3.0758502,-0.7946805,1.1261023,4.2508583,0.20189096,-8.551961
879,1715673325960,3.11234,-0.9618000600000001,1.11857746,4.52947408,-0.26887234,-8.980818
880,1715673325970,3.13456704,-1.09644196,1.2160465400000002,4.453955819999999,-0.5723654579999999,-9.257296
881,1715673325980,3.1587818,-1.256889088888889,1.2840383222222223,4.063577355555555,-0.5967135333333333,-9.35065
882,1715673325990,3.176923,-1.34797495,1.2519023,3.54821075,-0.41599924999999993,-9.332341000000001
883,1715673326000,3.2061991899999995,-1.39341663,1.1965515,3.14821625,-0.264214492,-9.2983461
884,1715673326010,3.256192811111111,-1.4208824333333334,1.1538275111111111,2.7800816999999998,-0.15643241022222223,-9.279365333333333
885,1715673326020,3.2805635099999995,-1.44922483,1.11697376,2.5407412,-0.083383106,-9.295995
886,1715673326030,3.3387009,-1.5451816,1.0792093,2.24673174,0.022067507000000004,-9.4236658
887,1715673326040,3.4192240444444444,-1.6032236,1.1023813999999998,1.926448311111111,0.1390227522222222,-9.551082222222224
888,1715673326050,3.44742076,-1.6342782599999999,1.10268628,1.7648201999999997,0.233167268,-9.626198
889,1715673326060,3.38258772,-1.6924036999999998,1.0155104,1.54020508,0.422840916,-9.7923532
890,1715673326070,3.3154374444444445,-1.762149011111111,0.9453057777777778,1.4364496000000002,0.48629964,-9.876062222222224
891,1715673326080,3.16637375,-1.9033428000000001,0.802729755,1.3855187,0.41943535,-9.8393595
892,1715673326090,3.01341972,-1.9700418,0.703784968,1.4253012999999999,0.26236662,-9.6732805
893,1715673326100,2.8102859,-1.9837133000000002,0.579637495,1.4847843,0.0726166045,-9.424811
894,1715673326110,2.6056262555555554,-1.9104705333333334,0.49098393333333334,1.4868459666666667,-0.09549859733333334,-9.188075333333334
895,1715673326120,2.43125156,-1.81815476,0.417585336,1.38968784,-0.258609798,-8.9357064
896,1715673326130,2.1265942888888887,-1.7618099777777778,0.23773744444444445,1.012186728888889,-0.3495337011111111,-8.649834888888888
897,1715673326140,1.94177183,-1.7459005,0.17394917599999998,0.72845679,-0.367710326,-8.50637485
898,1715673326150,1.62819246,-1.68926928,0.145130428,0.185779386,-0.12933544699999996,-8.27821735
899,1715673326160,1.2954415,-1.6403396000000001,0.1273245,-0.18570304,0.17608191,-8.1162615
900,1715673326170,0.585326824,-1.6672192200000002,-0.16085083644,-1.04125034,1.3143987799999999,-7.8354158
901,1715673326180,0.024140977777777763,-1.8272204777777779,-0.65467236,-1.6343190555555556,1.9584509222222222,-7.469168166666667
902,1715673326190,-0.44081840000000005,-1.99124415,-1.0403656,-1.9811887599999998,2.05501168,-6.77266304
903,1715673326200,-0.9210903500000001,-2.1108852,-1.35385945,-1.8492418499999999,1.7291303499999997,-6.0736804
904,1715673326210,-1.2160100200000001,-2.18611522,-1.49962404,-1.6078736800000002,1.3981635940000001,-5.55785046
905,1715673326220,-1.4697809,-2.3149521,-1.5870438,-1.0793989,0.86529064,-4.660749
906,1715673326230,-1.8176060999999997,-2.6017373,-1.6399128,-0.47316095999999996,0.395351989,-4.1151242
907,1715673326240,-1.9341372,-2.8726676,-1.6550354999999999,0.3501785,-0.25396723,-3.0967813
908,1715673326250,-1.9712736,-3.2578122,-1.51775938,0.60359596,-0.840336768,-1.8046487600000003
909,1715673326260,-1.9930498666666665,-3.3639294222222222,-1.2049551555555555,0.28691998555555553,-0.9815755399999999,-0.8370211155555556
910,1715673326270,-1.99479944,-3.37842265,-0.852141185,-0.532094184,-0.5294369132,0.283807988
911,1715673326280,-1.98848798,-3.38535598,-0.589022135,-1.0491763200000002,0.2553874868,1.05195576
912,1715673326290,-2.00320224,-3.2967412400000002,-0.68921091,-1.005560515,1.0297661249999999,1.7115681000000003
913,1715673326300,-1.9385955444444443,-3.2289351777777777,-0.9748671777777778,-0.7561323666666666,1.296951822222222,2.0719870888888887
914,1715673326310,-1.7893239600000002,-3.18086862,-1.1732270200000001,0.235152564,1.12371714,2.7770544
915,1715673326320,-1.5938918100000001,-3.10774845,-1.27858069,0.87926415,0.7623293010000001,3.1711083899999997
916,1715673326330,-1.4096960333333333,-2.980905733333333,-1.2415561,1.3541355333333334,0.29280807799999997,3.5047885
917,1715673326340,-1.3357487,-2.8726068,-1.1611043,1.5181528,0.087964594,3.6635115
918,1715673326350,-1.31189366,-2.8516787,-1.1320294400000002,1.5452447,0.059009581199999994,3.70535578
919,1715673326360,-0.981423148,-2.76788114,-0.8169256880000001,1.8217071100000002,-0.0563523205,4.57087567
920,1715673326370,-0.5729196177777778,-2.6658330777777777,-0.6009158055555556,2.0309402999999997,0.10364347222222223,5.810108866666667
921,1715673326380,-0.08355364900000001,-2.56227148,-0.435574204,2.1071034,0.3669773,6.85230435
922,1715673326390,0.282687219,-2.5389042799999997,-0.38264428400000006,1.92544735,0.77221005,7.783110500000001
923,1715673326400,0.8773005355555555,-2.482373911111111,-0.4375255444444444,1.387648311111111,1.2130935444444446,8.721900222222223
924,1715673326410,1.2940023799999998,-2.3668332800000003,-0.5178473,0.811717768,1.36293198,9.2696972
925,1715673326420,1.7583953,-2.1525036,-0.500547485,0.127365405,1.27434125,9.655107
926,1715673326430,1.967255711111111,-2.0561903777777775,-0.43062808444444445,-0.15960551333333334,1.1658023666666668,9.762321777777778
927,1715673326440,2.25448524,-2.04563156,-0.2619908968,-0.40738603199999995,1.005606326,9.8578382
928,1715673326450,2.52644006,-2.13547824,-0.0986642996,-0.58443008,0.933249369,10.0930976
929,1715673326460,3.0979158285714283,-2.2949683714285714,0.1757158257142857,-0.9151416,0.9841475257142858,10.730087857142857
930,1715673326470,3.56496408,-2.35939372,0.298419852,-1.17209772,1.03294256,11.1875996
931,1715673326480,4.0051116,-2.29371928,0.328238664,-1.4513853600000002,0.94332866,11.6617838
932,1715673326490,4.305278177777778,-2.1285118222222223,0.3598041866666667,-1.5128247777777777,0.7094691,11.698069
933,1715673326500,4.57185228,-1.8098007600000003,0.464441722,-1.50734052,0.368657174,11.3284342
934,1715673326510,4.56703495,-1.3833734500000001,0.7112000199999999,-1.59093744,0.117591564,10.4578908
935,1715673326520,4.37553578,-1.2007896599999999,0.9576290439999999,-1.903792,0.165941546,9.445321
936,1715673326530,4.1110120666666665,-1.2458044333333333,1.1383997666666668,-2.331927133333333,0.47902016000000003,8.745655666666668
937,1715673326540,3.8796530799999998,-1.3588109000000002,1.1861301999999998,-2.71841147,0.8197047919999999,8.3783526
938,1715673326550,3.6568294000000003,-1.44089505,1.12464485,-2.8404624,0.9585086520000001,8.304683
939,1715673326560,3.4477486444444443,-1.5111315111111112,1.04196455,-2.7575645222222223,0.8948497200000001,8.380799444444445
940,1715673326570,3.25912298,-1.68958025,0.987923535,-2.29231774,0.40799689800000005,8.689542900000001
941,1715673326580,3.28080728,-1.7788477100000002,1.0360177499999998,-1.9181168800000001,0.010720681999999992,8.9761763
942,1715673326590,3.4662081999999996,-1.6016483000000001,1.1559211,-1.6061174,-0.374231325,9.15549525
943,1715673326600,3.5704927333333334,-1.3922966333333333,1.2611102,-1.5940528,-0.41532047777777775,8.889888111111112
944,1715673326610,3.60630788,-1.14390818,1.40109396,-1.65327622,-0.299873732,8.4429828
945,1715673326620,3.5590369600000002,-1.03762152,1.49205048,-1.65849914,-0.037629298,8.046317160000001
946,1715673326630,3.4586774,-0.94523805,1.504478,-1.51903858,0.37000108000000004,7.730408
947,1715673326640,3.396031388888889,-0.8918270844444444,1.4620839555555554,-1.3501479333333333,0.6709506288888889,7.5911883555555555
948,1715673326650,3.3412312999999996,-0.82602376,1.38441,-1.1777482,0.88529646,7.513948000000001
949,1715673326660,3.2754350000000003,-0.6897963,1.2066557,-0.87330826,1.188636816,7.40797795
950,1715673326670,3.1920703500000003,-0.4167621570000001,0.880283114,-0.5962044900000001,1.5215584500000001,7.206530120000001
951,1715673326680,3.1833767222222225,0.04833614666666666,0.45496558444444446,-0.6385408555555556,1.7834211222222223,6.697068266666666
952,1715673326690,3.24771991,0.34469692799999996,0.2394712942,-0.6594290549999999,1.7197842300000001,6.46092301
953,1715673326700,3.4635252000000003,0.78602145,-0.002774552999999999,-0.66514063,1.4645189200000002,5.96766458
954,1715673326710,3.6895040000000003,1.0945421444444445,-0.13515016444444444,-0.8288932055555556,1.270786388888889,5.424584933333334
955,1715673326720,3.8722382800000004,1.3167475,-0.187681682,-1.16721072,1.2245405,5.00646816
956,1715673326730,4.1500531800000005,1.5113016,-0.07830334850000001,-2.16615872,1.4630223,4.37184044
957,1715673326740,4.404057666666667,1.6130819666666667,-0.040083640000000004,-2.9992974666666665,1.8148297666666666,3.9111156333333335
958,1715673326750,4.61195177,1.64062014,-0.13292848799999998,-3.55905354,2.00901371,3.47814451
959,1715673326760,4.8713207,1.5339309,-0.24044085,-3.4683402,1.7289014000000003,3.12931
960,1715673326770,5.56815426,1.7922142600000002,-0.30273718800000005,-1.13851539,0.309785054,3.0134440299999996
961,1715673326780,6.051342222222222,2.181055311111111,-0.3031139,1.1184943,-0.7761043,3.0799825
962,1715673326790,6.9036651,3.0295973999999997,-0.6205545,5.66049108,-2.2514659999999997,2.2199759400000003
963,1715673326800,7.0170802,3.2524336400000005,-0.95820226,6.9283570999999995,-2.96116925,0.5631414349999999
964,1715673326810,6.878815833333333,3.0569872,-1.1260819433333333,6.695795666666666,-3.3819536333333335,-1.1585568533333332
965,1715673326820,6.3223505,2.31845845,-0.912980065,4.93023228,-3.1221933,-2.97995342
966,1715673326830,5.80661918,1.8093007799999998,-0.8681238199999999,2.34068295,-1.91002285,-4.02705275
967,1715673326840,5.2895157,1.4598006888888888,-0.8846383333333334,0.5868548622222223,-1.013255771111111,-4.540204933333333
968,1715673326850,4.8081159300000005,1.25185351,-0.8814355150000001,-1.0620808560000001,-0.21710151800000005,-4.9662428
969,1715673326860,4.295311369999999,1.03672509,-0.8787951599999999,-2.2768474,0.23968825099999996,-5.27074424
970,1715673326870,3.8045037444444443,0.8131775355555555,-0.63986796,-3.0975787777777777,0.40101606,-5.629971755555555
971,1715673326880,3.3716296,0.58439383,-0.276296615,-3.2415563999999994,0.31971161,-5.85224175
972,1715673326890,3.1684287600000003,0.47594238000000005,-0.05411291600000001,-3.01025238,0.286526348,-5.947903200000001
973,1715673326900,3.0325427400000002,0.39902328000000004,0.12412920000000001,-2.5415661199999997,0.235916162,-6.1059339999999995
974,1715673326910,2.984123911111111,0.36013618333333336,0.26948050444444444,-1.8992649333333331,0.12302147888888888,-6.382947777777778
975,1715673326920,2.99305267,0.34166628,0.38338213,-1.21172755,-0.014126257,-6.777855300000001
976,1715673326930,3.0426531199999998,0.306834964,0.48277206800000005,-0.789268455,-0.08465065079999999,-7.06454971
977,1715673326940,3.071432533333333,0.2216728211111111,0.5419624777777778,-0.4390085077777778,-0.10817405533333332,-7.381899322222223
978,1715673326950,3.07532584,-0.014061800000000003,0.636488328,0.016432276000000006,-0.11502592519999999,-7.84766392
979,1715673326960,3.0449642199999998,-0.23922129,0.6943515060000001,0.35761579800000004,-0.0729525807,-8.13623695
980,1715673326970,3.07772842,-0.5553006899999999,0.721572615,0.70489269,0.0583070871,-8.416440249999999
981,1715673326980,3.0931818222222223,-0.7019312111111111,0.7140728388888888,0.9470108111111111,0.1529029588888889,-8.684569555555555
982,1715673326990,3.10294936,-0.7926682,0.690857372,1.1030393799999998,0.15867224200000002,-8.859195199999998
983,1715673327000,3.1304876,-0.918254765,0.671472065,1.2950343,0.09262244,-9.0721125
984,1715673327010,3.1860883600000003,-1.002070658,0.6831374,1.4059063,-0.0010384719999999986,-9.191934
985,1715673327020,3.284283688888889,-1.0769869444444444,0.7019244333333333,1.4685709333333332,-0.10160725333333333,-9.279959999999999
986,1715673327030,3.38454945,-1.1377035375,0.71123050625,1.451014925,-0.21681898625,-9.3280845
987,1715673327040,3.464409288888889,-1.1784969555555556,0.7276372944444445,1.3211487666666666,-0.31576642666666666,-9.337788
988,1715673327050,3.54317014,-1.2397309,0.7675691800000001,1.1680049,-0.367786688,-9.3474295
989,1715673327060,3.58428839,-1.27278152,0.81577322,0.9995435699999999,-0.34646750800000004,-9.3455209
990,1715673327070,3.6895852666666666,-1.3087552666666664,0.9180007333333333,0.6848308433333333,-0.09402234333333333,-9.370978333333333
991,1715673327080,3.6985937199999994,-1.3577255799999999,0.94599416,0.595899044,0.160474304,-9.4827972
992,1715673327090,3.6841783599999998,-1.4234611,0.83671954,0.616424124,0.49919908,-9.6867656
993,1715673327100,3.6200589,-1.5010023,0.641744775,0.6697374,0.551458585,-9.838213999999999
994,1715673327110,3.5297386,-1.557347,0.5252542400000001,0.7225008833333333,0.3589851466666667,-9.855292333333333
995,1715673327120,3.3468660399999997,-1.6731098,0.44647725200000005,0.7370088850000001,-0.085062975,-9.6938205
996,1715673327130,3.08339944,-1.80145874,0.348495938,0.6713714,-0.34171800599999996,-9.4059808
997,1715673327140,2.8967544,-1.8195573500000002,0.23105007,0.5751601479999999,-0.5265047559999999,-9.056291
998,1715673327150,2.664809866666667,-1.7598791,0.12817820666666668,0.42719842666666663,-0.7198028866666666,-8.731046
999,1715673327160,2.31791556,-1.6636945600000002,0.0330872956,0.14645493799999998,-0.9152899480000001,-8.3250852
1000,1715673327170,2.00149474,-1.6843786699999999,-0.0417097513,-0.276966308,-0.808480172,-7.9255489
1001,1715673327180,1.6900255000000002,-1.6109476099999998,-0.17858359149999997,-0.904737272,-0.563828615,-7.5168342699999995
1002,1715673327190,1.4179689333333334,-1.5756813777777778,-0.3507182988888889,-1.5077003222222223,-0.26759291,-7.2545168888888885
1003,1715673327200,1.121943528,-1.5735918400000002,-0.44644068,-1.7230218000000002,-0.1540144,-7.1046683
1004,1715673327210,0.783655452,-1.62272884,-0.49791929999999995,-1.4863114999999998,-0.18860464500000002,-6.8955996
1005,1715673327220,0.510456605,-1.64165065,-0.55713618,-0.828638715,-0.402712925,-6.4560818
1006,1715673327230,0.3105330211111111,-1.6202639,-0.5832183133333334,-0.19435695666666664,-0.6543724377777778,-6.003532444444444
1007,1715673327240,0.085017154,-1.5626155400000001,-0.5195425,0.5114469300000001,-0.9574548930000001,-5.440045169999999
1008,1715673327250,-0.13264188400000002,-1.5966297,-0.47578388,0.74214016,-0.92707968,-5.0644089
1009,1715673327260,-0.5024317500000001,-1.73207067,-0.556630045,0.6423248,-0.6488916,-4.6949577
1010,1715673327270,-0.9806466666666667,-1.9661919333333333,-0.61414152,-0.1883501138888889,-0.18130819555555555,-4.203295855555556
1011,1715673327280,-1.64218112,-2.19957952,-0.669417064,-1.235138968,0.6689891,-3.94148578
1012,1715673327290,-2.1157209200000002,-2.4869622,-0.87411192,-1.55028434,1.05597222,-3.9672033
1013,1715673327300,-2.763596166666667,-3.0480301444444446,-1.2088645777777778,-1.3578516111111112,0.9612982333333334,-3.878027133333333
1014,1715673327310,-3.26980048,-3.6000394200000003,-1.3701532,-0.5758015820000001,0.23985621199999999,-3.4360558599999997
1015,1715673327320,-3.5810015999999996,-4.150974,-1.33413275,0.500726227,-0.743117572,-2.7121196
1016,1715673327330,-3.7242539,-4.4686142,-1.1588114600000001,1.37542418,-1.54887936,-1.85727476
1017,1715673327340,-3.8429986,-4.7233547,-0.82431637,1.83467272,-2.06200616,-0.827203192
1018,1715673327350,-3.8658218333333334,-4.829882066666666,-0.6195957933333333,1.8376014777777776,-2.1663317777777777,-0.0719463488888889
1019,1715673327360,-3.8266869,-4.9335194,-0.34532502,1.5685493,-1.954158,0.8454374999999998
1020,1715673327370,-3.50717414,-4.8661984,-0.020214591,0.8563719900000001,-1.04496134,2.84974742
1021,1715673327380,-2.8998338,-4.59258515,0.14732566500000002,0.45665232400000005,-0.03136793200000001,4.947581
1022,1715673327390,-2.501426422222222,-4.418882633333333,0.1802882888888889,0.40084638000000006,0.3271013711111111,5.743694511111111
1023,1715673327400,-1.5859584,-3.99912346,0.11199434400000001,0.5617211400000001,0.838443084,7.57882156
1024,1715673327410,-0.7553245399999999,-3.6947154999999996,0.130324676,0.775493442,1.024863882,8.6639932
1025,1715673327420,0.2778211,-3.3962042499999994,0.188791505,1.07329022,1.2379184,9.711229999999999
1026,1715673327430,0.9206431666666666,-3.2096792,0.18995011666666667,1.2830715333333333,1.3822862,10.175742
1027,1715673327440,1.50863681,-2.99425394,0.13600184229999998,1.4897476,1.5021176,10.466718
1028,1715673327450,2.134833288888889,-2.8479168,0.007900190333333331,1.8303389333333335,1.439979088888889,10.491729333333332
1029,1715673327460,2.6031399,-2.8929737,-0.028050419,2.1285598,1.2472341,10.398759
1030,1715673327470,2.9957054100000002,-2.9433548000000003,0.09987777610000001,2.4789980199999997,1.04012027,10.21269
1031,1715673327480,3.368532685714286,-3.0198277999999994,0.3316308485714286,2.7282986714285715,1.2996812142857144,10.033025142857143
1032,1715673327490,3.48757539,-3.1344328999999997,0.310548604,2.7753136,1.5231925,10.011318
1033,1715673327500,3.6202925,-3.2639507,0.18452295666666668,2.776840755555556,1.868297433333333,10.378142
