id,timestamp,acc_x,acc_y,acc_z,gyro_x,gyro_y,gyro_z
0,1715673298540,-0.03738023,0.5072857,0.76364213,0.24480425,-0.09086621,-0.08659015
1,1715673298550,-0.007979559714285715,0.5012313428571429,0.79757268,0.25056383,-0.14100079571428573,-0.041560652285714296
2,1715673298560,0.0027745521,0.4922238500000001,0.820657615,0.20654881,-0.143706055,0.037491856999999996
3,1715673298570,0.01500087534,0.515048348,0.825346959,0.0841466896,-0.11844677240000001,0.161176798
4,1715673298580,0.042740299,0.560136352,0.82601169,0.011530082499999999,-0.0903316995,0.20494529
5,1715673298590,0.052198168,0.5740579,0.8271825,-0.009468411,-0.075289145,0.21395555
6,1715673298600,0.0712968442,0.59659582,0.7997418420000001,0.0273667638,-0.074922626,0.157145084
7,1715673298610,0.0962251262,0.59415662,0.771447454,0.1430035548,-0.107390112,-0.0014049909999999971
8,1715673298620,0.06232071299999999,0.576741,0.66705114,0.27397305,-0.2350304,-0.1910481
9,1715673298630,0.06056450609999999,0.644574207,0.62726223,0.13271047,-0.37140608,-0.1928807
10,1715673298640,0.12665373,0.5910101,0.57338715,-0.19120082,-0.57742035,-0.1067487
11,1715673298650,0.153679706,0.6144748680000001,0.544263462,-0.308609124,-0.80515091,-0.0828027848
12,1715673298660,0.17362124444444443,0.6499363133333333,0.5327140177777778,-0.3743076888888889,-1.0672155555555554,-0.08441818466666667
13,1715673298670,0.187437768,0.6795153,0.540421768,-0.409814217,-1.29750838,-0.09845620699999999
14,1715673298680,0.204975379,0.691113495,0.596565311,-0.487073423,-1.52523893,-0.107176305
15,1715673298690,0.24124578200000002,0.69542471,0.767874066,-0.6916368900000001,-1.51888588,-0.13219124100000001
16,1715673298700,0.28434587,0.6961991,0.9176144999999999,-0.869414,-1.2166909,-0.19043724
17,1715673298710,0.305151933,0.681368965,0.960537754,-0.9069822000000001,-0.8196284,-0.31658092
18,1715673298720,0.32282373,0.65601385,0.95115304,-0.84528476,-0.54367006,-0.41890085
19,1715673298730,0.3088595,0.6313783,0.845964,-0.7119634,-0.35353827,-0.47433686
20,1715673298740,0.2891632,0.65095264,0.6919306,-0.4720461,-0.49846604,-0.42531493
21,1715673298750,0.30234826000000004,0.7118505088888889,0.6015798111111111,-0.17961134666666667,-0.8855679533333334,-0.3131872188888889
22,1715673298760,0.32682395200000003,0.7757892,0.557288642,0.054122658000000004,-1.2437522,-0.21050416200000002
23,1715673298770,0.436757196,0.9526286900000001,0.6008033389999999,0.441701403,-1.99088621,-0.0340557369
24,1715673298780,0.5617401120000001,1.1279925800000001,0.745945976,0.66147546,-2.51148092,0.00919352172
25,1715673298790,0.7605321599999999,1.3246572555555554,1.0071455555555557,0.7475972466666667,-2.722524611111111,-0.11818545462222223
26,1715673298800,0.84370776,1.38351976,1.09650304,0.745286122,-2.59785712,-0.272293182
27,1715673298810,0.9349461444444445,1.4660882888888889,1.1047256666666665,0.85689123,-2.3663052666666666,-0.5456214811111111
28,1715673298820,0.98286223,1.5464318,1.045061,1.1995866,-2.4410176,-0.72616607
29,1715673298830,1.030005283,1.6494437299999998,0.94671377,1.9011654,-2.89825,-0.88346386
30,1715673298840,1.0775019,1.7905924000000002,0.89017385,2.8171577,-3.6868773,-1.0403035
31,1715673298850,1.1309928599999999,1.8490592200000002,0.913004456,3.1988874800000002,-3.9932871,-1.1166311199999999
32,1715673298860,1.3160931444444446,2.0638195,0.9963047177777778,4.665602088888889,-5.064310255555555,-1.4624962888888888
33,1715673298870,1.37033606,2.15999206,1.01871798,5.343574439999999,-5.566295599999999,-1.6078584
34,1715673298880,1.47147,2.3400635000000003,1.09053312,6.04689402,-6.2013511999999995,-1.7469066000000002
35,1715673298890,1.73208883,2.6796562899999996,1.462561,6.90584688,-6.83119894,-2.00777657
36,1715673298900,1.9960922,2.9821253,1.9220634,7.334201000000001,-6.8284044,-2.4058928
37,1715673298910,2.05768724,3.01988351,1.97519454,7.220763100000001,-6.488427300000001,-2.7000396600000003
38,1715673298920,2.2665348,3.14311,2.1153064,6.702566,-5.426163,-3.5538614
39,1715673298930,2.2135743,3.12077344,2.03490544,6.414543,-5.04254,-3.9469529999999997
40,1715673298940,2.1096555,3.0238620666666667,1.8391045888888888,6.384916333333333,-5.085606,-4.159839666666667
41,1715673298950,2.0314050900000002,2.94228752,1.7069166500000001,6.4757215200000005,-5.375782200000001,-4.36933581
42,1715673298960,2.0081538,2.7988827200000004,1.7417479400000002,6.77223534,-6.12151122,-4.55671872
43,1715673298970,2.05076612,2.59169984,1.9935919000000002,7.130095300000001,-7.05718867,-4.7172085
44,1715673298980,2.059551133333333,2.4559562333333336,2.1984617666666666,7.119939777777778,-7.148209444444445,-4.756417555555555
45,1715673298990,2.0384726,2.29031666,2.36435756,6.806810400000001,-6.7864686800000005,-4.8601968
46,1715673299000,2.00425102,2.0453511200000003,2.29904882,6.21420988,-6.08146904,-4.982858500000001
47,1715673299010,1.85107136,1.7415040300000002,2.06179103,5.37223934,-5.33877889,-5.1144691700000005
48,1715673299020,1.775862388888889,1.6436460555555554,1.9746341777777776,5.0293895555555554,-5.103660333333334,-5.170685944444444
49,1715673299030,1.4585485500000002,1.1515306500000002,1.6742073999999998,4.05823743,-4.4004441,-5.3293413
50,1715673299040,1.2657310666666666,0.8500970355555556,1.5255362222222222,3.6891849333333337,-3.997587111111111,-5.394126444444445
51,1715673299050,0.9661051199999999,0.490120072,1.2793612499999998,3.2789107,-3.3694716999999996,-5.52701704
52,1715673299060,0.69300382,0.17074167199999998,1.04825626,3.08712964,-3.0232790599999997,-5.59418168
53,1715673299070,0.461685474,-0.16847324149999998,0.866928624,2.9932090899999997,-2.7748706600000004,-5.536546700000001
54,1715673299080,0.27021224,-0.4900353944444444,0.6706488577777778,3.0604348333333333,-2.7058786,-5.330766333333333
55,1715673299090,0.1106284028,-0.664124158,0.52046936,3.15572988,-2.73600444,-5.05509304
56,1715673299100,-0.2133965979,-0.8482933920000001,0.258179684,3.29202912,-3.05368482,-4.285448919999999
57,1715673299110,-0.388376304,-0.8901861390000001,0.129940502,3.1873422,-3.3858733,-3.6012034
58,1715673299120,-0.42975404888888885,-0.8346083177777778,0.1700573422222222,2.912181311111111,-3.5137477,-3.0850901555555557
59,1715673299130,-0.41813415000000004,-0.70491916,0.242941,2.5681232,-3.4684317399999998,-2.7451367600000003
60,1715673299140,-0.380363662,-0.595388395,0.3225981,2.04013716,-3.10866268,-2.6263234399999997
61,1715673299150,-0.34093451,-0.51923764,0.36380172,1.4456125,-2.5702155,-2.631913
62,1715673299160,-0.32861674,-0.4900286200000001,0.3257507,0.90224797,-2.0169244,-2.6357307
63,1715673299170,-0.3407211,-0.4889919750000001,0.264802025,0.7185302379999999,-1.81588858,-2.602011
64,1715673299180,-0.37771106899999995,-0.44697732300000004,0.11387250099999999,0.45860708,-1.63430888,-2.4532654000000003
65,1715673299190,-0.380253893,-0.34440425399999997,0.06405861399999999,0.38273762,-1.77132596,-2.09688668
66,1715673299200,-0.29001692,-0.23702602,0.07555319,0.73960507,-2.1276436,-1.6036739
67,1715673299210,-0.18182768,-0.134983486,0.128019656,1.1048261480000001,-2.38182461,-1.34252906
68,1715673299220,0.11872645,0.10195717,0.28050417,1.7849482,-2.7482827,-1.0134255
69,1715673299230,0.3052617,0.25312454,0.40264544,2.0890064,-2.695443,-1.131017
70,1715673299240,0.44976876666666665,0.3470053488888889,0.4589088888888889,2.084425,-2.4182627,-1.5114334
71,1715673299250,0.55267857,0.35385601499999997,0.442397739,1.94065783,-2.15423168,-1.87222567
72,1715673299260,0.6032974149999999,0.256630826,0.396157254,1.68714871,-1.9141921,-2.21238599
73,1715673299270,0.642464308,0.118470327,0.366106735,1.38440392,-1.72758802,-2.4408648800000003
74,1715673299280,0.618566573,-0.0234342938,0.36775926600000003,0.916817126,-1.47384986,-2.52973049
75,1715673299290,0.4985047,-0.06738198,0.37947336,0.66920286,-1.2194397,-2.4883597
76,1715673299300,0.410584942,-0.11392127700000002,0.35505120300000004,0.5949827759999999,-1.0121731649999999,-2.46485647
77,1715673299310,0.281339568,-0.20706697700000004,0.27528437299999997,0.5610339,-0.807579125,-2.3837640999999996
78,1715673299320,0.14641099,-0.28093103,0.17720546,0.49556443000000006,-0.6963864,-2.2829561
79,1715673299330,0.08342628111111111,-0.30976740555555554,0.12546125,0.42964187555555555,-0.6848647888888889,-2.2387702333333332
80,1715673299340,-0.070016281,-0.375796297,0.047893040600000006,0.177425808,-0.587560736,-2.1717175699999998
81,1715673299350,-0.228525535,-0.484625808,0.0207756027,-0.045326203999999995,-0.372734687,-2.25033588
82,1715673299360,-0.43611080599999996,-0.6768382980000001,-0.0553873763,-0.32669075799999997,0.015439619499999996,-2.33300122
83,1715673299370,-0.5774117255555554,-0.8115717666666666,-0.15731948333333332,-0.5800504444444444,0.30650165388888895,-2.384987577777778
84,1715673299380,-0.8360609419999999,-1.075398131,-0.394669348,-1.05917926,0.6803817,-2.41404776
85,1715673299390,-1.03945083,-1.32940685,-0.6198532,-1.3443922000000001,0.6780604219999999,-2.2541844400000004
86,1715673299400,-1.2781844,-1.6502792,-0.8501106,-1.270447,-0.023365596,-1.5193746
87,1715673299410,-1.4072976444444445,-1.7487131555555555,-0.7967741555555555,-0.7725239333333334,-0.6404243102222221,-0.9463829888888888
88,1715673299420,-1.4181925,-1.8830367,-0.6946137,-0.054641894499999996,-1.28857448,-0.243750497
89,1715673299430,-1.3837392,-1.9599923000000001,-0.5363118,0.7174612,-1.8347337,0.622319
90,1715673299440,-1.35942687,-1.9600472899999999,-0.4081640670000001,1.0374324,-1.92685226,1.07545876
91,1715673299450,-1.3520911,-1.9032208000000002,-0.21598822,1.2853826600000002,-1.67595466,1.7889646799999999
92,1715673299460,-1.3844101,-1.8702514,-0.2039956466666667,1.1858421333333333,-1.2607750333333334,2.0932824333333335
93,1715673299470,-1.4037404,-1.8367900599999998,-0.277125928,0.9835540999999999,-0.8234463599999999,2.2869877799999996
94,1715673299480,-1.49775814,-1.94469878,-0.432915482,0.72821244,-0.41425825200000005,2.60112536
95,1715673299490,-1.5434132,-1.9816399999999998,-0.47749737000000003,0.5572618,-0.253112004,2.86129292
96,1715673299500,-1.6064148,-1.8746012222222221,-0.41398079111111113,-0.028863383000000003,0.09162979,3.424358
97,1715673299510,-1.80268439,-1.6488584400000001,-0.331129074,-0.3375641453,0.439914616,3.3431279599999995
98,1715673299520,-2.1202457,-1.4787447,-0.32233587,-0.38026363,0.8196284,3.0998356
99,1715673299530,-2.3608449499999997,-1.5337358700000001,-0.5027854469999999,-0.016447549,0.9088300549999999,2.84088976
100,1715673299540,-2.62426282,-1.69347072,-0.65022696,0.6874677260000001,0.713292082,2.66080676
101,1715673299550,-2.769369,-1.8685236,-0.7480924,1.433548,0.40240747,2.7369816
102,1715673299560,-2.70815806,-2.04656454,-0.78953996,1.8785023000000003,0.17525723440000002,3.09140574
103,1715673299570,-2.5459412,-2.1706755,-0.81721232,2.3676374,-0.08941539800000001,3.6900842499999995
104,1715673299580,-2.1389174399999997,-2.17055346,-0.783033506,2.6675264,-0.23124304599999998,4.6172861
105,1715673299590,-1.7098897333333332,-2.0749652333333333,-0.7180297055555556,2.6754879333333332,-0.07335474,5.497583566666667
106,1715673299600,-1.03286518,-1.9221731599999998,-0.62225582,2.46453576,0.27608054800000004,6.09884804
107,1715673299610,-0.30487146000000004,-1.7811405999999999,-0.49993158,1.9766377599999998,0.864832466,6.737385399999999
108,1715673299620,0.401334415,-1.66638374,-0.37131435,1.3513713600000001,1.423606224,7.26596707
109,1715673299630,1.02577333,-1.5088380000000001,-0.19642001,0.8476366499999999,1.8432094799999998,7.61072443
110,1715673299640,1.4878308,-1.3041614,-0.05744238,0.5522222,2.1784983,7.745465800000001
111,1715673299650,1.7103925100000001,-1.1986430499999998,-0.0040856052,0.46060767,2.32463247,7.71916813
112,1715673299660,2.1028191555555558,-1.0928076666666666,0.028646657555555552,0.3585269933333334,2.4319562666666665,7.5945821
113,1715673299670,2.36413796,-1.09178328,0.0123421836,0.29425378799999996,2.29621178,7.4668199
114,1715673299680,2.65587454,-1.20357022,0.0777118514,0.22692116599999998,1.92860846,7.430335739999999
115,1715673299690,2.9040108800000004,-1.29540486,0.201243444,0.089705561,1.52594144,7.4599779
116,1715673299700,3.23490214,-1.3555791400000001,0.50723693,-0.23044891399999998,1.1687990799999999,7.49699636
117,1715673299710,3.316962,-1.3098326,0.8383416,-0.7600691,1.1108584,7.463857
118,1715673299720,3.2512262,-1.2226323,1.042012,-1.3321444,1.4434745,7.4027705
119,1715673299730,3.21149219,-1.21879065,1.07993485,-1.9095647,1.8054122,7.324732299999999
120,1715673299740,3.1664245,-1.2909425555555556,1.0383463666666666,-2.1617842555555558,1.8423356666666666,7.285229811111112
121,1715673299750,3.1569037800000004,-1.32543106,1.000375452,-2.1991759400000004,1.7773123800000001,7.27064048
122,1715673299760,3.10175422,-1.36010378,0.994436096,-2.0485366,1.33080046,7.238997639999999
123,1715673299770,2.98113738,-1.31610114,1.09205152,-1.8242268400000001,0.697760812,7.181637159999999
124,1715673299780,2.8797290799999997,-1.2403345900000002,1.31615608,-1.81584276,0.355416664,7.15442321
125,1715673299790,2.7841258,-1.2018994,1.6531453,-2.118497566666667,0.3073670377777778,7.175324933333333
126,1715673299800,2.75953893,-1.17137933,1.82392969,-2.55195067,0.694660708,7.2554298
127,1715673299810,2.7879674,-1.0818313,2.0275574,-3.5865426,1.9388863,7.4000216
128,1715673299820,2.8400438,-1.0520736,1.9410279000000001,-4.1738896,2.676506,7.4273577
129,1715673299830,2.86803308,-0.9838561739999999,1.7546511299999998,-4.6491427199999995,3.0882292,7.39388218
130,1715673299840,2.8432825555555556,-0.9131291799999999,1.5625505111111113,-4.990989777777777,3.2328346666666667,7.33216458888889
131,1715673299850,2.7892482,-0.8385245999999998,1.3953862,-4.9350276,3.0089695,7.257995599999999
132,1715673299860,2.74128186,-0.8032907999999999,1.31869888,-4.65610644,2.7048502,7.20594986
133,1715673299870,2.6879617000000002,-0.7611013333333333,1.2397674666666667,-4.218686244444445,2.2933238222222223,7.1567276333333325
134,1715673299880,2.6807661400000002,-0.66697798,1.2351208200000001,-3.4939354000000002,1.80565654,7.1478258199999996
135,1715673299890,2.73712314,-0.360423492,1.20748502,-2.9436985,1.66469946,7.0613579
136,1715673299900,2.7795457000000003,0.11051457555555555,1.1026659444444444,-2.7701381222222228,1.8275900555555553,6.758918166666667
137,1715673299910,2.7835772,0.53289694,0.89444244,-3.0164526,2.181247,6.405533
138,1715673299920,2.9254756,0.72254217,0.6018034,-3.0776918,2.4103215,6.331771
139,1715673299930,3.2314080000000005,0.9124313,0.26733267,-2.554333,2.1152737,6.5715356
140,1715673299940,3.6396023999999993,1.439962,0.014695979000000001,-1.6761803777777777,1.3264429444444443,6.734568577777777
141,1715673299950,3.9520415399999997,2.2832125000000003,0.0613999229,-0.502451955,0.365923554,6.596748669999999
142,1715673299960,4.19640345,3.03696376,0.16125941300000002,0.48015535099999995,-0.06589709099999999,6.2359722
143,1715673299970,4.4570042800000005,3.78051324,0.027769913100000005,1.5184582,-0.32834008,5.283984
144,1715673299980,4.648753933333333,3.990388688888889,-0.15067275577777778,1.9299778666666667,-0.44226642666666666,4.547688
145,1715673299990,4.799121599999999,3.95752368,-0.372796138,2.20055042,-0.62769456,3.76592312
146,1715673300000,5.090541,3.6850932,-0.8086447,2.061823,-1.3568845,2.4298692
147,1715673300010,5.317969,3.34712224,-0.68185686,1.0206031,-2.0607538,1.6401732
148,1715673300020,5.570386,3.1203651,-0.40441385,0.13332134,-2.1242838,1.2745703
149,1715673300030,5.701991380000001,3.09830277,-0.144551117,-0.9326385,-1.8967366,0.70539665
150,1715673300040,5.78433767,2.95502624,0.09835939499999999,-1.63574442,-1.6190372400000002,0.11432343079999999
151,1715673300050,5.7768489899999995,2.73941592,0.40608467299999995,-2.36638512,-1.23747557,-0.8746063173999999
152,1715673300060,5.7353954,2.4905722,0.64143986,-2.5750685333333334,-1.025218561111111,-1.4421680333333333
153,1715673300070,5.65540297,2.2510217,0.74392756,-2.5906032,-0.689239235,-2.53982495
154,1715673300080,5.44253716,1.81299608,0.8569646260000001,-2.03958744,-0.678060416,-3.3547803199999997
155,1715673300090,5.09464488,1.28422123,0.9326641410000001,-0.786229369,-1.0007500180000002,-4.151761110000001
156,1715673300100,4.671614,0.8387685000000001,1.0091443,0.8870221349999999,-1.6030325300000001,-4.878430700000001
157,1715673300110,4.478296788888889,0.7178263888888889,1.0675758666666666,1.5925257,-1.9037615,-5.200601
158,1715673300120,4.124509,0.57478964,1.1808616,1.9036088,-1.9990565,-5.4070735
159,1715673300130,3.8765676,0.49338245000000003,1.2742207,1.9124664,-1.8695531000000003,-5.591097
160,1715673300140,3.64189545,0.498382713,1.27767821,1.70127502,-1.51125004,-5.765544589999999
161,1715673300150,3.4007473,0.48789433,1.194399,1.4468343,-1.0477866,-6.035654
162,1715673300160,3.21971226,0.426427346,1.0981494,1.3725531,-0.8239655600000001,-6.2760906400000005
163,1715673300170,3.0075595699999997,0.32325057,0.99549711,1.43356332,-0.6241057000000001,-6.607790280000001
164,1715673300180,2.89923009,0.2397335,0.926066245,1.5904792799999998,-0.5966320599999999,-6.814507000000001
165,1715673300190,2.8465381,0.176687135,0.8762096749999999,1.7786104999999999,-0.6617197499999999,-7.00257725
166,1715673300200,2.738452255555556,0.01283272632,0.8107112666666666,2.195110233333333,-0.9365582333333333,-7.421944677777778
167,1715673300210,2.7262322,-0.10753066582800001,0.8251334800000001,2.35624465,-1.07156458,-7.669428290000001
168,1715673300220,2.73551954,-0.34400786299999997,0.80285782,2.4371996,-1.1661417,-8.038223
169,1715673300230,2.706926,-0.46990546999999994,0.80894965,2.359467,-1.1539245,-8.184831
170,1715673300240,2.634361,-0.58430237,0.77931374,2.2075143,-1.0838276,-8.302728
171,1715673300250,2.6040545,-0.6624777,0.74540937,2.0839515900000003,-1.04809202,-8.323344299999999
172,1715673300260,2.5953345,-0.7322379,0.6896744,1.9963076000000002,-1.0865766,-8.338158
173,1715673300270,2.6078838899999996,-0.76156272,0.66363629,1.9970712,-1.1362093999999998,-8.3764135
174,1715673300280,2.6778187333333334,-0.8109890244444444,0.669876451111111,2.038694977777778,-1.3748031777777776,-8.539828111111111
175,1715673300290,2.7169632999999997,-0.8235724440000001,0.699540782,2.04985002,-1.4645189,-8.626516599999999
176,1715673300300,2.80494412,-0.869538568,0.7641909,1.97547714,-1.6413643,-8.918541199999998
177,1715673300310,2.8376778799999998,-0.952336052,0.7821920199999999,1.7833294600000003,-1.66616548,-9.1199436
178,1715673300320,2.8208354,-1.0967103,0.7725451,1.4876096,-1.6598736000000003,-9.205129
179,1715673300330,2.7554047,-1.1964113,0.7648007,1.2281445,-1.6667458,-9.059284
180,1715673300340,2.72681152,-1.19783816,0.7733621749999999,1.0367911,-1.6617062,-8.85831
181,1715673300350,2.7068530600000003,-1.18331294,0.76909365,0.8841969080000001,-1.6642717999999999,-8.5824428
182,1715673300360,2.6829551700000005,-1.1287670699999999,0.8138889500000002,0.6807023759999999,-1.6588656499999999,-8.131792299999999
183,1715673300370,2.7176653333333336,-1.0542485333333333,0.8893947222222223,0.48772498000000003,-1.5629326444444445,-7.756206800000001
184,1715673300380,2.76625892,-0.9960459580000001,0.93877428,0.3232088,-1.38864938,-7.49809584
185,1715673300390,2.79543745,-0.9501164149999999,0.9596596500000001,0.060567289499999996,-0.9476657700000001,-7.235011500000001
186,1715673300400,2.69340093,-0.949744458,0.869331212,-0.3967111555,-0.20865629800000002,-7.12067311
187,1715673300410,2.5125246,-1.0373776,0.7689473,-0.643012007,0.260640922,-7.13985433
188,1715673300420,2.16909,-1.1070157,0.67662483,-0.75228053,0.753655,-7.220122
189,1715673300430,1.7431018200000001,-1.15498201,0.537994833,-0.73784885,1.31415439,-7.4048475400000004
190,1715673300440,1.20463737,-1.3122228699999998,0.316512398,-0.698035713,2.07272673,-7.64528409
191,1715673300450,0.63203686,-1.5000875,-0.1469476,-0.8435438319999999,2.7168537099999996,-7.8105994899999995
192,1715673300460,0.1100945,-1.7260965666666666,-0.6606889977777778,-1.2185235,2.9066496,-7.7796745000000005
193,1715673300470,-0.15043560500000003,-1.7961414000000002,-0.87602675,-1.7146987200000001,2.54063436,-7.3951040500000005
194,1715673300480,-0.696808992,-1.9397228800000001,-1.28946552,-2.0317682599999998,1.84047592,-6.713898
195,1715673300490,-0.991196,-2.20023,-1.3209917666666666,-1.9293669333333332,0.8305731333333334,-5.686646333333333
196,1715673300500,-1.3193208200000002,-2.45248448,-1.13304168,-1.57407758,-0.20073032,-4.18259416
197,1715673300510,-1.4476454,-2.5735037,-1.0490246,-1.1685852,-0.71776664,-2.8272371
198,1715673300520,-1.46553668,-2.5840958899999995,-0.8190721700000001,-0.341580573,-1.1034364040000002,-1.3005015800000002
199,1715673300530,-1.3600793,-2.7239394,-0.4791133000000001,0.55481833,-1.0630583,0.03573562
200,1715673300540,-1.42313789,-2.71751844,-0.18681577300000002,1.039356626,-0.24816402,0.7021896040000001
201,1715673300550,-1.6203384,-2.4957554,-0.18714507,1.2350168,1.7386752,1.0167851
202,1715673300560,-1.7450834400000002,-2.43028202,-0.681186057,1.15832267,3.2265138899999997,0.88731227
203,1715673300570,-1.8997111111111111,-2.5132564444444445,-1.1594105222222224,1.0855414888888888,4.025636055555555,0.6803851000000001
204,1715673300580,-1.9543822800000001,-2.70166976,-1.6666949,0.97011512,4.48199471,0.498374421
205,1715673300590,-1.9991714699999998,-2.8459525,-2.0527722699999997,0.81642142,4.476114999999999,0.44402268500000003
206,1715673300600,-2.1554916,-3.0024922,-2.7385135,0.38838812,3.4682180000000002,0.6333450879999999
207,1715673300610,-2.1698217,-2.8813267,-2.7732716,0.026589605555555562,2.1786678888888886,0.8954096777777778
208,1715673300620,-2.034509,-2.8326044,-2.5798457,-0.10934488,0.63346726,1.2867876
209,1715673300630,-1.69156213,-2.73955616,-2.052132,0.14294247,-0.8382598,1.8600847000000003
210,1715673300640,-1.3480054,-2.616677,-1.4879526,0.5864306,-1.9048306,2.4973698
211,1715673300650,-1.0103211699999999,-2.46849767,-0.75869061,1.05007732,-2.16530356,3.0080531600000002
212,1715673300660,-0.6479036600000001,-2.31856218,-0.40247469999999996,1.57969758,-1.9951164399999999,3.73855633
213,1715673300670,-0.284644654,-2.2405756400000003,0.0503809845,1.62470301,-1.14746454,4.49193647
214,1715673300680,-0.03845752666666666,-2.2358213333333334,0.267373335,1.4649567000000001,-0.5079344466666667,4.859687466666666
215,1715673300690,0.31007907,-2.2085129,0.42063429999999996,0.8300437180000001,0.780258212,5.512509079999999
216,1715673300700,0.785009212,-2.05792488,0.515225196,-0.22418754999999999,2.52788264,6.3412087999999995
217,1715673300710,1.121285,-1.9762738,0.42545164,-1.0742066,3.8402045,7.061601999999999
218,1715673300720,1.3262359,-1.9710296000000003,0.30099317,-1.3376421555555555,4.105167111111111,7.446107944444445
219,1715673300730,1.58867806,-1.9317346100000001,0.07570563799999999,-1.8705610800000003,4.09241512,8.46787557
220,1715673300740,1.92024617,-1.8240942099999997,0.0158423864,-2.13891411,3.44509672,9.0355679
221,1715673300750,2.206653,-1.6902816,0.14189851,-2.4699148555555555,2.5010521333333333,9.421459555555556
222,1715673300760,2.43295908,-1.57539688,0.334007286,-2.8721509500000004,1.62474882,9.46717455
223,1715673300770,2.61983568,-1.4524750599999998,0.603266944,-3.2070121499999997,1.05077982,9.2790737
224,1715673300780,2.7646667000000003,-1.3551535222222222,0.9311654066666666,-3.5787540000000004,0.5852089,8.879079
225,1715673300790,2.85084924,-1.32167464,1.23024252,-3.71060922,0.517861,8.6883972
226,1715673300800,3.04493365,-1.33755362,1.6883972,-3.9735868599999997,0.51266864,8.479298400000001
227,1715673300810,3.17969778,-1.2920876,1.97646908,-4.23641188,0.7458053600000001,8.489468800000001
228,1715673300820,3.262344633333333,-1.1598236888888889,2.1802424888888887,-4.522625777777778,1.1662265666666667,8.455325222222221
229,1715673300830,3.2668245400000004,-1.12972436,2.2062751599999997,-4.7012801,1.48724302,8.345824400000001
230,1715673300840,3.20316854,-0.9300420349999999,2.2583634999999997,-4.860425749999999,1.7990744499999998,8.188725
231,1715673300850,3.0370674,-0.73662835,2.0951223,-5.0350566,2.122146,7.5922914
232,1715673300860,2.83954971,-0.6637460350000001,1.8764204100000001,-4.78353306,1.79530245,7.033991070000001
233,1715673300870,2.69444973,-0.6531235,1.77978675,-4.59931117,1.5459472300000001,6.79767801
234,1715673300880,2.476255511111111,-0.6861782622222221,1.6274051666666667,-3.8573254333333336,0.5368826711111111,6.3030606222222225
235,1715673300890,2.37330306,-0.752367081,1.63300985,-3.5088099,0.092087935,6.15973625
236,1715673300900,2.3149860111111114,-0.8926672777777777,1.790253488888889,-2.874409377777778,-0.5513568022222223,6.129642477777778
237,1715673300910,2.28667602,-0.890015384,1.88864685,-2.6609748800000004,-0.544708552,6.38618402
238,1715673300920,2.2791572,-0.8030956400000001,1.9218803999999998,-2.758973,-0.17333302,6.6339965
239,1715673300930,2.2795842,-0.66686815,1.8550473,-3.0149255,0.4831944000000001,6.8655143
240,1715673300940,2.3053174,-0.47045428000000006,1.5846046,-3.3594534000000005,1.1346822,6.918812300000001
241,1715673300950,2.3580582100000003,-0.255100255,1.28418469,-3.6210566,1.3953689,6.741508999999999
242,1715673300960,2.3864129666666667,-0.021349484844444447,1.1253231888888888,-3.654178911111112,1.3131057,6.568158777777779
243,1715673300970,2.3953227,0.12028140665,1.08555115,-3.5932621600000005,1.23309254,6.44322322
244,1715673300980,2.54300813,0.5872842739999999,0.924060005,-3.3636684000000003,1.11776126,6.23914871
245,1715673300990,2.7594782,0.9410670799999998,0.76206887,-3.06348918,0.97344434,6.0466802
246,1715673301000,2.982823166666667,1.2598431444444445,0.6299147888888889,-2.6249897,0.7544694666666667,5.8054086
247,1715673301010,3.295497,1.7629079,0.43136662000000003,-2.2041545,0.52274793,5.584072
248,1715673301020,3.6448467,2.0845118,0.36038688,-2.05689025,0.398788115,5.43734187
249,1715673301030,4.0151734,2.426361,0.36404565,-2.0358613,0.39095375,5.1503577
250,1715673301040,4.175475400000001,2.5465632,0.36172843,-2.12382568,0.5465411600000001,4.65748107
251,1715673301050,4.71920194,2.80721265,0.30013338999999994,-2.0951150499999995,0.7047094209999999,4.13568
252,1715673301060,5.13809236,2.8419950399999996,0.166156036,-1.8543119599999998,0.691529976,3.6585026
253,1715673301070,5.754543,3.0544465,0.015732625,-1.1810570888888892,0.27287010666666667,3.1112724333333333
254,1715673301080,6.1952945999999995,3.1797404499999997,-0.016372906700000002,-0.5256801,-0.18955149400000001,2.64394696
255,1715673301090,6.684243479999999,3.2761548000000005,-0.0110128376,0.21184806900000003,-0.663140039,1.93861141
256,1715673301100,7.03810592,3.4187848,-0.0242453168,0.9305615740000001,-1.2490667,0.7103141159999999
257,1715673301110,7.047708088888888,3.3862545333333336,0.03966355911111111,1.1459492444444446,-1.6231028666666667,-0.9745506144444445
258,1715673301120,6.5478215,2.8946202,0.18580353,0.6824892,-1.3715452,-2.9130635
259,1715673301130,5.828389,2.2923899,0.16665606,-0.15088372,-0.7516697,-4.268268
260,1715673301140,5.036201444444445,1.773931411111111,0.08545892222222223,-0.8184915688888889,-0.3024801088888889,-4.997098222222222
261,1715673301150,4.37586515,1.4047771199999999,-0.003701433599999999,-1.108476115,-0.195446338,-5.3580212000000005
262,1715673301160,3.5792456,0.9919785900000001,-0.00501858552,-1.00786657,-0.581024485,-5.556537199999999
263,1715673301170,3.33885345,0.872672835,0.0831146046,-0.7990881,-0.8881216999999999,-5.551467000000001
264,1715673301180,3.0240586222222223,0.7226099144444444,0.2939602411111111,-0.4035443722222222,-1.3803858,-5.499857222222222
265,1715673301190,2.77083248,0.6302624029999999,0.59103446,-0.05250387000000001,-1.68788182,-5.457072800000001
266,1715673301200,2.6671068,0.5928089950000001,0.8121815,0.121485825,-1.6635388,-5.51282955
267,1715673301210,2.6172562000000004,0.518585142,1.071763835,0.133642048,-1.24495858,-5.71162062
268,1715673301220,2.5952326666666665,0.4651490833333334,1.1828129666666667,0.1188642,-0.7717773,-5.919589433333333
269,1715673301230,2.59798085,0.3673019,1.2602625299999999,0.173058129,-0.2049910995,-6.1627749000000005
270,1715673301240,2.59963954,0.183888776,1.2502802000000002,0.401338466,0.341870727,-6.3944762
271,1715673301250,2.56143,0.058418042999999996,1.1547625,0.8828530000000001,0.7295258,-6.6330805
272,1715673301260,2.5577983555555557,-0.03150590188888888,1.0006613444444445,1.3200968222222222,0.747987488888889,-6.838466722222222
273,1715673301270,2.56562533,-0.1107442725,0.88253931,1.73039806,0.530383736,-7.1199704
274,1715673301280,2.5691743,-0.13988622,0.840171,1.8193095,0.47540587,-7.183928
275,1715673301290,2.6111279,-0.23861148999999998,0.8063274999999999,2.0152445,0.20845776999999996,-7.379863299999999
276,1715673301300,2.66514947,-0.444836959,0.91890724,2.2048723700000004,-0.195263069,-7.6600059
277,1715673301310,2.7276659444444444,-0.69022324,0.9905523444444445,2.244471611111111,-0.2862243033333333,-7.874239733333334
278,1715673301320,2.76908836,-0.8218589789999999,1.0069002299999998,2.1714579,-0.187993778,-7.85273388
279,1715673301330,2.81490812,-0.9774595079999999,1.0126078399999998,2.06162428,0.09934195500000001,-7.770969550000001
280,1715673301340,2.8819363,-1.115431,1.0212791,2.0325013600000004,0.308486936,-7.6598378
281,1715673301350,2.912853,-1.1605555,1.0090222,2.0888536,0.42943826,-7.54892
282,1715673301360,2.93837286,-1.14354235,0.91094947,2.18987536,0.468060221,-7.6459562000000005
283,1715673301370,2.9408790000000002,-1.15718339,0.8037359399999999,2.2307272,0.3755294,-8.030435
284,1715673301380,2.866021,-1.3007466,0.6617459,2.1465805,0.21594085999999998,-8.498357
285,1715673301390,2.844393444444444,-1.4173388666666666,0.6417989666666667,1.9972578333333333,0.08087177022222222,-8.75356322222222
286,1715673301400,2.81373726,-1.5407973,0.627926876,1.83079366,-0.0452345724,-8.88699
287,1715673301410,2.76381371,-1.65159017,0.687826709,1.4967115,-0.212122958,-8.902383599999999
288,1715673301420,2.6841470666666662,-1.6029865111111112,0.7921600288888889,1.2742139666666668,-0.19776762333333334,-8.834333666666666
289,1715673301430,2.5494963200000003,-1.5277782199999999,0.7916376599999999,1.12399202,-0.0247858565,-8.8637158
290,1715673301440,2.3815415,-1.4941115,0.6621118,1.12023518,0.1395063535,-8.9932342
291,1715673301450,2.3005611,-1.5307803444444446,0.5975280844444444,1.1503610333333334,0.105017918,-9.036071222222223
292,1715673301460,1.8732312199999999,-1.6050997800000002,0.46630770199999994,1.1030699,0.004428773,-9.05852
293,1715673301470,1.48070828,-1.6185273000000002,0.388912936,0.9668469639999999,0.0860403706,-8.97752
294,1715673301480,1.20788746,-1.66632281,0.317378267,0.786443189,0.212596373,-8.827812
295,1715673301490,0.9724347333333334,-1.7167871666666668,0.23995301666666669,0.6161594133333334,0.3405064566666667,-8.616355666666667
296,1715673301500,0.53780578,-1.85135805,0.021586619999999994,0.213421042,0.5568647529999999,-7.73772291
297,1715673301510,-0.05079564999999999,-1.8950495999999997,-0.14635001,-0.11133019,0.44379360000000007,-6.4253860000000005
298,1715673301520,-0.351941243,-1.8117275499999999,-0.165216963,-0.23142629399999998,0.536156432,-5.750990799999999
299,1715673301530,-0.7961440488888889,-1.7954773000000002,-0.22360384888888887,-0.3612249688888889,0.8927795755555555,-5.031255733333333
300,1715673301540,-1.10369852,-1.86337706,-0.36599696800000003,-0.400941392,1.2301299060000002,-4.7006689800000006
301,1715673301550,-1.55441395,-2.15091219,-0.678490819,-0.4245208,1.6567276,-4.30262933
302,1715673301560,-1.9518213,-2.7490017,-1.1048815,-0.41370848000000005,1.6171130000000002,-3.7965274
303,1715673301570,-2.1827018333333332,-3.1744806000000003,-1.3334382666666666,-0.2509807711111111,1.1567242444444445,-3.0920470888888887
304,1715673301580,-2.3878953800000002,-3.4814712,-1.4342056399999998,0.04373795600000001,0.56240837,-2.2927605
305,1715673301590,-2.55218548,-3.7138750799999998,-1.3530301200000001,0.5240612739999999,-0.111208004,-1.20841365
306,1715673301600,-2.66275288,-3.8740065199999996,-1.15411608,0.824591695,-0.39049559500000003,-0.21624631499999997
307,1715673301610,-2.662228411111111,-3.8592496,-0.7973703722222223,0.8572475433333334,0.05579236333333331,1.2464196233333336
308,1715673301620,-2.57099144,-3.7054784400000003,-0.6071391150000001,0.47784932399999996,1.058079686,2.0411452
309,1715673301630,-2.49520043,-3.50640576,-0.78504582,-0.12599096,2.3506095,2.474615
310,1715673301640,-2.3295262,-3.4401398,-1.1512257,-0.29947668,2.776077,2.9480357
311,1715673301650,-2.15225968,-3.3697820300000005,-1.2714155699999998,-0.15873332999999998,2.5101215999999997,3.55870244
312,1715673301660,-1.8638892,-3.0663376,-1.2129366,0.21650082,2.0585310000000003,4.139138033333333
313,1715673301670,-1.7170941599999998,-2.96116064,-1.1556101,0.42968262399999996,1.8603900799999997,4.38659292
314,1715673301680,-1.28802642,-2.7915286900000003,-0.9565862700000001,0.9175196,1.48121076,5.055246039999999
315,1715673301690,-0.749793735,-2.64133701,-0.65332472,1.1868195099999999,1.32733378,5.70209119
316,1715673301700,-0.20854874466666667,-2.5248018666666665,-0.33042580666666665,1.100745288888889,1.6081197777777776,6.358326844444445
317,1715673301710,0.54259264,-2.362211,0.033172667,0.6774496,2.3261747,7.104057299999999
318,1715673301720,0.9808560179999999,-2.22267246,0.1911331094,0.189979096,3.0300138199999997,7.481327779999999
319,1715673301730,1.4553288,-2.1116476,0.31215236,-0.295719866,3.64005432,7.72115364
320,1715673301740,1.718887511111111,-2.0250436777777776,0.32168542666666666,-0.8877229444444444,4.161112188888889,7.936989277777777
321,1715673301750,2.0656693,-1.8782802999999997,0.26416174,-1.4929546,4.3501244,8.160702
322,1715673301760,2.344283,-1.8419367999999998,0.20623154999999999,-2.0069978,4.075693,8.349306
323,1715673301770,2.52808028,-1.81998418,0.19410279,-2.360093,3.59766043,8.5057179
324,1715673301780,2.7583721555555556,-1.777657911111111,0.2821099788888889,-2.785358844444444,2.8240300222222223,8.736781333333333
325,1715673301790,2.9178286,-1.75760256,0.397376854,-3.05081376,2.29416548,8.912798800000001
326,1715673301800,3.3382739999999997,-1.7039712999999999,0.83873792,-3.45050284,1.4361441799999999,9.248408399999999
327,1715673301810,3.7858374333333327,-1.5032312555555556,1.4040114444444445,-3.770905088888889,0.7804482222222222,9.51236
328,1715673301820,4.095056,-1.0608547,1.9281613,-3.91995285,0.779800032,9.3499341
329,1715673301830,3.9962086999999995,-0.6158896,2.0803652,-4.02438,1.3863586,8.383514
330,1715673301840,3.7703420000000003,-0.47057623,2.0262766,-3.99414243,1.73807959,7.6399384999999995
331,1715673301850,3.398369,-0.5040538,1.776811,-3.8922806000000003,2.009594,6.611242
332,1715673301860,3.05849556,-0.609767288,1.5882634,-3.82740668,1.9099007999999997,6.0788116
333,1715673301870,2.66383225,-0.819499002,1.39942312,-3.73678484,1.57331406,5.69024016
334,1715673301880,2.431090322222222,-0.9573796933333334,1.3514271888888887,-3.640943555555556,1.1385170444444443,5.623930733333333
335,1715673301890,2.27136426,-1.0249012199999998,1.375251,-3.5705685000000003,0.826592308,5.72857226
336,1715673301900,2.1623334900000004,-1.08096554,1.44641369,-3.5454924599999997,0.611781544,5.9377937
337,1715673301910,2.1271668100000003,-1.13611511,1.5252414399999998,-3.5979046599999998,0.5516724,6.1626531
338,1715673301920,2.1461008,-1.2017165,1.6297903,-3.9352616888888883,0.8396851777777778,6.507598222222223
339,1715673301930,2.2206417600000004,-1.12898058,1.5746163,-4.16304666,1.04519044,6.6164951
340,1715673301940,2.3960545,-1.0995764,1.4175828,-4.4661884,1.2092078,6.634454700000001
341,1715673301950,2.51186626,-1.11157704,1.35870128,-4.45702568,0.948857,6.62126006
342,1715673301960,2.667818311111111,-1.0786401333333333,1.470980188888889,-4.257221666666666,0.5036753533333334,6.7754286
343,1715673301970,2.78752836,-0.8168098300000001,1.68267134,-3.9731745500000004,0.382905581,7.0761865
344,1715673301980,2.9027437666666667,-0.4697834877777778,1.7638089222222222,-3.8477892777777782,0.7293222088888889,7.281904055555556
345,1715673301990,3.01090118,-0.008134618000000003,1.71162428,-3.91309585,1.2595124720000002,7.37334205
346,1715673302000,3.13795145,0.484320928,1.5165091800000001,-4.1974995,1.9942917999999998,7.3489379
347,1715673302010,3.363739844444444,1.2521191166666665,1.1732391666666666,-4.830875,2.6320655,7.1506357
348,1715673302020,3.6829586,1.7585783,0.9751178599999999,-5.411044,2.69865,6.89392
349,1715673302030,4.074201,2.1355515,0.97822785,-5.707756999999999,2.4593129599999997,6.40727436
350,1715673302040,4.2689686,2.4975846,1.0620133,-5.614157,2.2734878,5.8346796
351,1715673302050,4.33448452,2.8244818,1.0846974600000001,-5.0264435,2.09439734,4.5788475
352,1715673302060,4.40746424,2.97860066,0.99628983,-4.435401049999999,1.8448741800000001,3.72307102
353,1715673302070,4.5383134599999995,2.92045098,0.9114312,-3.28193462,1.17787036,2.6114794399999997
354,1715673302080,4.672325466666667,2.843519666666667,0.9196877733333335,-2.5657867333333333,0.7023931999999999,2.1578305
355,1715673302090,5.08593105,2.73065932,1.059104478,-1.5664417199999998,-0.034697153999999994,1.8073059100000002
356,1715673302100,5.88070928,2.77180788,1.4048624799999998,-0.5767789600000001,-0.619295196,1.4494915800000001
357,1715673302110,6.34769962,2.97657608,1.6236069199999998,-0.266505234,-0.563538453,0.85447828
358,1715673302120,6.753504,3.2469578,1.8302287000000002,-0.27594141777777775,-0.08034574666666668,-0.5415150666666667
359,1715673302130,6.701732,2.9340737,1.8571205,-0.45280385,0.7089091,-2.734691
360,1715673302140,6.32171008,2.15593066,1.7905801000000001,-0.371024288,1.15642897,-3.99217253
361,1715673302150,5.864390760000001,1.50122178,1.6846713999999998,0.022296578,1.21336164,-4.68411478
362,1715673302160,5.169753,0.9864599999999999,1.5548468,0.714727594,1.00569797,-5.083727130000001
363,1715673302170,4.711135222222222,0.8042813333333334,1.4507756888888887,1.8592362666666666,0.5130080355555555,-5.487996377777778
364,1715673302180,4.4166661,0.681570255,1.37717781,2.50311189,0.171057543,-5.73886538
365,1715673302190,4.062493,0.542238963,1.29847821,3.0929023,-0.22120958200000002,-6.00601176
366,1715673302200,3.6787757,0.43482416700000004,1.22004081,3.6373206199999997,-0.671844865,-6.34052148
367,1715673302210,3.4773371333333336,0.3813027466666667,1.1917362999999999,3.7994290111111106,-0.9217956444444444,-6.615161433333333
368,1715673302220,3.1347803599999997,0.21365880399999998,1.16148238,3.6902370000000007,-1.0685561,-6.9640164
369,1715673302230,3.0312254899999997,0.1079758127,1.13471248,3.2303623000000004,-0.8572577600000001,-7.18217187
370,1715673302240,2.9766371,0.020001167,1.1136016,2.8006644,-0.6366743,-7.405824699999999
371,1715673302250,2.898096,-0.10018878,1.1073817,2.3370178,-0.37400225,-7.785325
372,1715673302260,2.8533128999999997,-0.259948104,1.1301573699999998,2.23851574,-0.25433374999999997,-7.9212118
373,1715673302270,2.857118,-0.35904533,1.0902466,2.182316,-0.10125092,-8.188496
374,1715673302280,2.8665087,-0.46819806,1.0499393,2.37927434,-0.11334604340000001,-8.4624236
375,1715673302290,2.86606968,-0.5719601639999999,1.02762092,2.56453446,-0.1664607804,-8.6664982
376,1715673302300,2.86960648,-0.6654778199999999,1.007400224,2.69880262,-0.22809708199999998,-8.8128002
377,1715673302310,2.9013887888888887,-0.7403819577777777,1.0049773066666665,2.7082201444444447,-0.2993918466666667,-8.896776888888889
378,1715673302320,3.0078583,-0.8561475,1.0150592,2.5668557,-0.32253686,-8.960629
379,1715673302330,3.107315388888889,-0.8954181222222223,1.0237860222222221,2.3696819555555555,-0.2699176033333333,-9.003508666666667
380,1715673302340,3.22178554,-0.9245905719999999,0.9921798,2.1216571600000003,-0.16875152999999998,-9.255708
381,1715673302350,3.2776547000000003,-1.0442742839999999,0.94189031,2.0160080799999998,-0.12289081900000001,-9.5659814
382,1715673302360,3.31522992,-1.2392307599999999,0.939445048,1.96316816,-0.0907440328,-9.811381399999998
383,1715673302370,3.3253499333333334,-1.3622813777777778,0.9152227488888889,1.9231904111111109,-0.058812749555555564,-9.914648333333334
384,1715673302380,3.3220840799999998,-1.43252266,0.8869907640000001,1.8768529,-0.029168816400000002,-9.9334932
385,1715673302390,3.32240104,-1.5294306599999998,0.85920866,1.7627433,0.0190589964,-9.905240599999999
386,1715673302400,3.3156690400000004,-1.6135209799999999,0.8014979799999999,1.49542866,0.07593055400000001,-9.7261962
387,1715673302410,3.237384,-1.6518648,0.7147368,1.1841623,0.05268713,-9.437307666666666
388,1715673302420,3.15128136,-1.5619081600000002,0.71380992,0.822804974,0.0623387994,-9.1326797
389,1715673302430,3.03542097,-1.49489816,0.7134928700000001,0.5316055,0.26007587,-9.044166
390,1715673302440,2.8623621,-1.5155762,0.65485525,0.36453384,0.54534996,-9.089064
391,1715673302450,2.6596065,-1.6494255,0.42368326,0.41245282666666666,0.6885639155555556,-9.058656000000001
392,1715673302460,2.50367058,-1.67902488,0.36111862,0.47827692000000005,0.6567106839999999,-8.992272
393,1715673302470,2.1479912800000003,-1.64574246,0.266796042,0.69537844,0.410959596,-8.7738884
394,1715673302480,1.73518661,-1.55425528,0.22392769399999998,1.15255,0.021991149,-8.337089
395,1715673302490,1.5155965,-1.5363497666666666,0.21110988333333333,1.272585,-0.05650503433333333,-8.143647666666666
396,1715673302500,1.10295456,-1.5622741,0.103225538,1.43348692,-0.1385442344,-7.8491904
397,1715673302510,0.791784,-1.6292109,0.028416292500000002,1.4278975500000002,-0.20311268999999998,-7.401625
398,1715673302520,0.29463913599999997,-1.8278750000000001,-0.0315994062,1.0074542149999999,-0.171118627,-6.4029217
399,1715673302530,0.05494222533333334,-1.9616592333333334,-0.0014228479999999998,0.6579018433333332,0.015220725999999999,-5.7135245333333335
400,1715673302540,-0.23625770969999998,-2.13177688,0.0134093195,0.192086571,0.4691139824,-4.83802203
401,1715673302550,-0.5778386,-2.4197142,-0.08384635,-0.25720481700000003,1.064478525,-4.2660076
402,1715673302560,-0.8807288222222222,-2.7469963333333336,-0.20840646555555556,-0.6565104488888889,1.6017905444444442,-3.7357124444444443
403,1715673302570,-1.2747573,-3.09753436,-0.445208896,-0.706893286,1.97498834,-3.3427157800000002
404,1715673302580,-1.59859334,-3.47973962,-0.7455557199999999,-0.304638505,1.95597518,-2.72076326
405,1715673302590,-1.8243869199999998,-3.7368644000000004,-1.0044976399999999,0.02593122600000001,1.6820785,-2.32638868
406,1715673302600,-2.1346976666666664,-3.9222410666666665,-1.2118593333333334,0.9163488033333334,0.6741916,-1.3357077666666666
407,1715673302610,-2.28127958,-3.9902813999999998,-1.029291756,1.7744565900000002,-0.349842545,-0.09752463466000001
408,1715673302620,-2.2207028,-3.9900193600000002,-0.711511016,1.7834973900000002,-0.33012685799999997,0.7937277567800001
409,1715673302630,-2.0725598,-3.9525476,-0.32940948,1.4062119,0.22693644,1.8223637
410,1715673302640,-1.8396466444444444,-3.8183932888888887,-0.2839867422222222,0.5928107977777777,1.4946853822222221,2.7026885
411,1715673302650,-1.6452301300000003,-3.69059973,-0.404480926,0.03359759,2.4984388,3.3571627
412,1715673302660,-1.49592872,-3.51591266,-0.6392934,-0.16858353099999998,3.0328237000000002,3.85952317
413,1715673302670,-1.4349279444444445,-3.4288181,-0.777857011111111,-0.1436721088888889,3.119688733333333,4.067174777777778
414,1715673302680,-1.3349255,-3.2646418000000006,-0.9992656,0.07780896000000001,3.0364584,4.3932665
415,1715673302690,-1.16708631,-3.00032144,-1.1737941,0.7689113320000001,2.39761561,4.81980315
416,1715673302700,-0.8959546599999999,-2.86722216,-1.17001946,1.41322149,1.700542,5.31214515
417,1715673302710,-0.5815515444444445,-2.802189277777778,-1.020940288888889,1.728052911111111,1.2041511666666667,5.898633333333333
418,1715673302720,-0.15994837,-2.7222016,-0.7139136,1.7435315299999998,0.985982308,6.5809275
419,1715673302730,0.6447937,-2.5651498,-0.16592431,1.0293927666666667,1.441048011111111,8.080457444444445
420,1715673302740,1.25142665,-2.5192018899999997,0.027007675600000003,0.34981197760000005,2.02043674,8.782959199999999
421,1715673302750,1.744492,-2.3871515,0.11403104999999998,-0.9283285893333333,2.990456811111111,9.911764
422,1715673302760,2.1534609799999997,-2.25346067,0.136697008,-2.0325929599999997,3.5821138399999994,10.5789642
423,1715673302770,2.8109749099999997,-2.08969505,0.23076347200000003,-3.52834233,4.0209139,11.047787699999999
424,1715673302780,3.14884214,-1.9900612299999998,0.31099375,-4.528008160000001,4.08158796,11.125536199999999
425,1715673302790,3.383124033333333,-1.8618159333333333,0.40689363666666667,-5.841500533333334,3.8530664666666663,11.016734555555555
426,1715673302800,3.45877498,-1.73546706,0.577301948,-6.474163620000001,3.3274746799999995,10.7331467
427,1715673302810,3.4751784999999997,-1.7938119399999999,0.8903446199999999,-6.826006820000001,2.6050807,10.4425427
428,1715673302820,3.5125222,-2.1493328,1.4246563,-6.819089,1.4110987,10.307435
429,1715673302830,3.574843,-2.4211168,1.7690666,-6.639127960000001,1.0118371800000001,10.8117654
430,1715673302840,3.71544838,-2.44916116,2.07502961,-6.53544897,0.73650497,11.698053699999999
431,1715673302850,4.0435896,-2.2472043,2.332941,-6.6872097777777775,0.8481355,12.108452555555555
432,1715673302860,4.14188202,-1.76567622,2.4431424,-7.0302954,1.2056953,11.570704
433,1715673302870,4.07212776,-1.27460489,2.25918673,-7.3560086799999995,1.50098754,10.1585056
434,1715673302880,3.8070107999999996,-1.2130992,2.0082675666666665,-7.356700999999999,1.2785409333333333,8.429889333333332
435,1715673302890,3.5178758799999996,-1.39434962,1.8199476,-6.8345435,0.45591926122000004,7.0719258
436,1715673302900,3.261958533333333,-1.7898199000000001,1.8785446,-5.332140833333333,-1.1331041437666667,6.326527866666667
437,1715673302910,3.1140231999999997,-1.9421132799999998,2.03997266,-3.94099712,-2.1331414200000003,6.32517378
438,1715673302920,2.959136,-1.7224786,2.2295814,-1.26472016,-3.0042199500000004,7.0504233
439,1715673302930,2.951689788888889,-1.499328711111111,2.072498911111111,-0.18611028088888892,-2.7143458555555555,7.438251733333333
440,1715673302940,2.9698075,-1.3121985600000001,1.89126884,-0.039522981199999994,-2.30833756,7.538015939999999
441,1715673302950,3.046641,-1.0942101,1.7340647,-0.54473907,-1.5088371,7.446295000000001
442,1715673302960,3.09619887,-0.9458661239999999,1.72533848,-1.3837625,-0.5487097,7.060228
443,1715673302970,3.0950178888888886,-0.7841582244444445,1.6146200222222222,-1.9287222222222222,0.10707110555555555,6.754965
444,1715673302980,3.06975835,-0.599711839,1.33197405,-2.4930021200000003,0.7633066749999999,6.38007521
445,1715673302990,3.03750658,-0.429195778,1.1102721,-2.64875748,0.983065442,6.074413290000001
446,1715673303000,2.9834126666666667,-0.09242408333333334,0.9240986444444445,-2.3206940555555553,0.7584909933333334,5.853548
447,1715673303010,2.93432975,0.4599536649999999,0.87045324,-1.57601704,0.316458733,5.55583455
448,1715673303020,2.9559042,1.1017716,0.9615805,-1.1139128,0.364992,5.057048
449,1715673303030,3.02279214,1.3877212499999998,0.90954698,-1.46549627,0.930164523,4.553313139999999
450,1715673303040,3.129146,1.797666,0.69308925,-2.3608415,1.63437,3.9289324
451,1715673303050,3.2979607100000004,1.8867930000000002,0.580198515,-3.1187114300000003,1.92905142,3.5864202999999995
452,1715673303060,3.5209311399999996,1.9502601300000002,0.609749,-3.47231089,1.9391154199999998,3.3265277999999996
453,1715673303070,3.861742833333333,2.026947522222222,0.6888477533333334,-3.2177159222222222,1.754014711111111,3.0535966444444447
454,1715673303080,4.1420588799999996,2.11579422,0.73781134,-2.62288739,1.48928947,2.8003132299999995
455,1715673303090,4.35754716,2.1761148400000003,0.7321402800000001,-1.8513492800000002,1.1381336,2.56899382
456,1715673303100,4.9190190000000005,2.33662408,0.6646729259999999,-0.72830408,0.52491652,2.2506413000000003
457,1715673303110,5.452635222222223,2.5834704666666664,0.63988832,0.7506006666666667,-0.54906604,1.7231999
458,1715673303120,6.2755494,3.0831068,0.9126752,2.3133466,-1.7672331,0.6632469
459,1715673303130,6.409239739999999,3.14905569,1.00999795,2.64698592,-1.94982075,-0.07982482800000001
460,1715673303140,6.313478,2.9600508,1.1778736,2.8747318,-1.8287778,-2.1250474
461,1715673303150,5.953308088888889,2.450197166666667,1.1291648,2.576120511111111,-1.3650632666666667,-3.330539177777778
462,1715673303160,5.30773651,1.6576943400000002,1.002247465,2.00479868,-0.80731953,-4.49825894
463,1715673303170,4.8310012,1.2273095,0.913839885,1.5715424299999998,-0.54513616,-4.83003498
464,1715673303180,4.1955495,0.86431867,0.8624893,1.0830641,-0.3462079,-4.9704576
465,1715673303190,4.05729166,0.8326460709999999,0.8863504799999999,0.97167282,-0.323651674,-4.98050638
466,1715673303200,3.8172891222222223,0.7838329877777778,0.9694738988888889,0.8293174333333333,-0.2599570844444445,-5.1197463333333335
467,1715673303210,3.70088658,0.750129149,1.023614579,0.88132584,-0.228585766,-5.2940942
468,1715673303220,3.41993134,0.59624825,1.15051836,1.23755188,-0.11921034999999999,-5.89915632
469,1715673303230,3.3036685,0.46815741333333327,1.1276877666666667,1.5263147111111113,-0.04756264527777778,-6.256074511111112
470,1715673303240,3.1391466,0.2622714,1.0297552,1.9204687599999999,-0.0155465202,-6.731093400000001
471,1715673303250,2.999931,0.06366225,0.9363351,2.2800546,-0.11575896,-7.195229
472,1715673303260,2.89357116,-0.089072268,0.89473512,2.43093828,-0.22864686399999998,-7.404633800000001
473,1715673303270,2.8110663199999997,-0.22562901900000001,0.89680845,2.58644931,-0.394313519,-7.63593767
474,1715673303280,2.7595784222222224,-0.35334041555555556,0.9341399555555555,2.659520722222222,-0.4517518277777778,-7.788973044444443
475,1715673303290,2.75129484,-0.45569732399999996,0.94300628,2.68288962,-0.37485746600000003,-7.96446088
476,1715673303300,2.77146059,-0.57277122,0.9269199800000001,2.6557977700000004,-0.286343086,-8.0946058
477,1715673303310,2.78291852,-0.659660456,0.9156876199999999,2.59892624,-0.23118195000000002,-8.1846476
478,1715673303320,2.7966942,-0.7940029866666667,0.9208261333333334,2.4090997777777776,-0.15185091555555555,-8.309090333333334
479,1715673303330,2.83109799,-0.8611844100000001,0.92540771,2.2673943999999997,-0.0812145345,-8.3746419
480,1715673303340,2.88071678,-0.92741998,0.9139801559999998,2.16980855,0.0034819318,-8.5874978
481,1715673303350,2.9080963,-1.0132298,0.898772,2.209805,0.01695151,-8.734151
482,1715673303360,2.92556086,-1.05332972,0.8671116,2.323884,-0.052687127,-8.924588
483,1715673303370,2.9218593999999998,-1.11384551,0.8418540400000001,2.44158249,-0.1927279881,-9.05329735
484,1715673303380,2.89626655,-1.17175739,0.81852339,2.59257326,-0.44052548399999997,-9.2168261
485,1715673303390,2.8621791666666665,-1.2261487666666666,0.8080552866666666,2.6225973333333332,-0.60088776,-9.27945
486,1715673303400,2.82159148,-1.29470968,0.786850792,2.54413164,-0.7548156,-9.2887866
487,1715673303410,2.78999209,-1.33332171,0.76932538,2.38807079,-0.8812341760000001,-9.2449725
488,1715673303420,2.7431479,-1.3581281,0.7858995,1.9613355,-1.0990993,-9.06188
489,1715673303430,2.7461155666666666,-1.3453631,0.83195912,1.7443766333333333,-1.0431033666666665,-8.941336
490,1715673303440,2.7585147,-1.3184916,0.847884835,1.3635733600000002,-0.84333004,-8.7941992
491,1715673303450,2.7639967000000003,-1.20382624,0.817126904,1.01373084,-0.60686406,-8.770008899999999
492,1715673303460,2.7326054444444443,-1.1481021999999999,0.7881015444444445,0.7732366222222222,-0.42178547555555557,-8.853490444444445
493,1715673303470,2.6335928,-1.19798451,0.653910103,0.5425705200000001,-0.183992612,-9.0144776
494,1715673303480,2.46413777,-1.2850505700000001,0.46303310700000005,0.391793712,-0.151922186,-9.074647500000001
495,1715673303490,2.2524077666666664,-1.3211543,0.3472967,0.29733866000000003,-0.35364006333333337,-9.000997333333334
496,1715673303500,1.95965692,-1.32386998,0.25982614000000004,0.25152376200000004,-0.613980664,-8.8860426
497,1715673303510,1.6396443399999998,-1.31432062,0.202914274,0.295353345,-0.84039787,-8.7856165
498,1715673303520,1.31343019,-1.3808528999999998,0.11953949209999999,0.3398956066666667,-1.0105747333333333,-8.680394999999999
499,1715673303530,0.5836316,-1.7655908,-0.072016396,0.12660182,-1.183246,-8.254011
500,1715673303540,0.12300853333333335,-2.0053338222222226,0.06392649377777777,-0.3897829444444445,-0.8965465600000001,-7.644503444444445
501,1715673303550,-0.41159717799999995,-2.26986411,0.15797263450000001,-0.938960988,-0.069714997,-6.855252200000001
502,1715673303560,-1.0841485,-2.6300313,0.00073175,-1.248181006,0.9464746039999999,-6.0551254299999995
503,1715673303570,-1.574726,-2.9998093,-0.28928518,-1.2701416,1.7015651,-5.349805
504,1715673303580,-1.987238,-3.47105626,-0.736433276,-0.98034712,1.84023158,-4.15654092
505,1715673303590,-2.22715448,-3.83337,-1.0056928600000001,-0.60649754,1.3898711599999998,-2.8551841799999997
506,1715673303600,-2.26798608,-4.03333294,-0.8894421999999998,-0.304302507,0.77932658,-1.72687019
507,1715673303610,-2.2146957555555558,-4.066551577777777,-0.6511355777777778,-0.09814567755555555,0.45220994222222227,-0.775069176888889
508,1715673303620,-2.02974656,-3.8127954199999996,-0.1128236555,0.2363132326,0.8164825240000001,0.8172460753999999
509,1715673303630,-1.92422212,-3.69833752,-0.14849647900000001,0.501963227,1.53554725,1.48148568
510,1715673303640,-1.7163806,-3.6077104,-0.49191895,0.9201157700000001,2.1813998,2.0228803
511,1715673303650,-1.57710428,-3.44140824,-0.67217339,1.371300834,2.267043,2.3489600600000005
512,1715673303660,-1.36556142,-3.25839747,-0.92587104,2.0173824,2.3545802,2.7001772
513,1715673303670,-1.2727572,-3.1824417,-1.0934784,2.3811866666666663,2.1987415333333336,2.9202244
514,1715673303680,-1.14751815,-3.09194265,-1.10319246,2.61213609,1.9747593599999997,3.19798653
515,1715673303690,-0.8463542900000001,-3.00993769,-0.8837588399999999,2.73546975,1.7999755199999998,3.7516594499999996
516,1715673303700,-0.6484050611111111,-2.990255633333333,-0.7171082333333333,2.675946011111111,1.9094968555555556,4.0166763111111115
517,1715673303710,-0.24021523949999998,-2.97727726,-0.47972921,2.32852674,2.47876906,4.829806
518,1715673303720,0.2626494745,-2.96795363,-0.408078684,1.70428356,3.2335236800000002,5.92829438
519,1715673303730,0.72714274,-2.9305707555555554,-0.42081044888888886,1.1620353444444445,3.706170444444444,6.817459933333334
520,1715673303740,1.28553235,-2.83039687,-0.454063067,0.420489082,4.0466003,7.964124559999999
521,1715673303750,1.7634504500000001,-2.6257387,-0.446672385,-0.346452224,4.06883574,9.0029017
522,1715673303760,2.155613711111111,-2.3495206555555557,-0.43114979777777784,-1.080281208888889,3.8907874666666666,9.758877555555555
523,1715673303770,2.4196656,-2.17046806,-0.40842626,-1.9518672,3.467271,10.288193
524,1715673303780,2.84672092,-1.9466256999999998,-0.316811161,-2.6080585600000004,2.96355156,10.5129906
525,1715673303790,3.1773133799999997,-1.87496907,-0.116829992,-3.4312300000000002,2.2272146,10.821936
526,1715673303800,3.545247411111111,-1.8138117666666664,0.19783673777777777,-4.051597733333334,1.7364863333333334,11.099268444444444
527,1715673303810,3.8555296999999995,-1.72571045,0.46313677000000003,-4.78348711,1.34225421,11.3470969
528,1715673303820,4.33399688,-1.50946608,0.898881694,-5.39,0.9416793200000001,11.4241576
529,1715673303830,4.50195188,-1.24887159,1.21678449,-5.36719965,0.5499467499999999,11.1191677
530,1715673303840,4.529952866666667,-1.041381877777778,1.446419077777778,-5.0416236,0.2771801,10.61638
531,1715673303850,4.450022,-0.87195333,1.58333015,-4.921832960000001,0.23338106399999997,10.3647644
532,1715673303860,4.1894152899999995,-0.799510069,1.5981847200000001,-4.55439746,0.17881552799999997,9.167346499999999
533,1715673303870,3.9522429,-0.9073700299999999,1.5648474,-4.506811,0.04352415,8.2995205
534,1715673303880,3.8355421888888888,-0.9871579144444446,1.5614325555555555,-4.4029638888888885,-0.2579717788888889,7.994088055555555
535,1715673303890,3.71470456,-1.1023935999999999,1.64969377,-4.0851305,-0.633222922,7.8812765
536,1715673303900,3.6063078888888893,-1.2021703777777777,1.7650826666666666,-3.796527333333333,-0.8212065166666667,7.916898355555555
537,1715673303910,3.5799649200000006,-1.2162051,1.8561083,-3.0697506,-1.07814662,8.12432438
538,1715673303920,3.51709546,-1.0970274400000002,1.9958359599999997,-1.8921551,-0.9955881599999999,8.5053512
539,1715673303930,3.43815186,-0.8559280060000001,1.8685724000000001,-1.33226657,-0.478032609,8.37013717
540,1715673303940,3.3121443,-0.73979926,1.7345525,-1.2151637,-0.05085453,7.9679737
541,1715673303950,3.1839664,-0.73870164,1.6280828,-1.2362386,0.37186423,7.6008434
542,1715673303960,3.11640145,-0.7438238850000001,1.5527125,-1.27143965,0.579252965,7.484015449999999
543,1715673303970,3.0488365,-0.74894613,1.4773422,-1.3066407,0.7866417,7.3671875
544,1715673303980,2.92731722,-0.7119683459999999,1.17683692,-1.43467806,1.10893426,7.340676139999999
545,1715673303990,2.87339945,-0.6218807775,0.9954925625,-1.4945390625,1.193000825,7.4285411875000005
546,1715673304000,2.9313702,-0.14765089666666667,0.7346363666666667,-1.3998486333333333,1.0221812,7.748418266666667
547,1715673304010,3.13835986,0.5067063815,0.69093666,-1.25366347,0.960463412,7.60004934
548,1715673304020,3.2858622,1.1490304,0.600096,-1.1771374,1.2249376,7.198130600000001
549,1715673304030,3.4063572399999997,1.6001787200000002,0.469454192,-1.39008492,1.6003752800000002,6.700397720000001
550,1715673304040,3.5525853999999994,2.2186658,0.21757366,-2.0412977900000002,2.23625557,5.69926625
551,1715673304050,3.5927098,2.4889867,-0.14275223,-2.8086057,2.5732698,4.769178
552,1715673304060,3.7410109999999994,2.4752665,-0.3351415,-3.290273,2.1363485,4.088521
553,1715673304070,3.8312357300000004,2.4403071699999996,-0.28272991,-3.12863786,1.6007265499999999,3.85555231
554,1715673304080,4.08482347,2.52417784,0.05764970900000001,-1.9587088000000001,0.392053312,3.6663215399999998
555,1715673304090,4.5876455,2.617287,0.40795064,-0.1564493688888889,-0.5335229122222223,3.6501912444444446
556,1715673304100,5.0592950000000005,2.68638234,0.44993479399999997,1.1299174410000001,-0.66718702,3.63678628
557,1715673304110,5.66485482,2.8698017,0.174046746,1.8971335200000001,-0.53585102,3.40270274
558,1715673304120,6.2476816,3.0704231,-0.30422506,2.33726196,-0.64434064,2.2219917600000003
559,1715673304130,6.330653866666667,2.9565547,-0.31129864,2.045346488888889,-0.9201666222222222,0.5503216944444445
560,1715673304140,6.0501094,2.4642901,0.083480485,1.0797043,-0.9802859999999999,-1.6896533000000002
561,1715673304150,5.6221576,1.9240757,0.39057156,-0.048563786,-0.2724459,-2.9272664
562,1715673304160,5.2409968000000005,1.5509373888888889,0.49339601333333327,-0.8406523939999999,0.38851030444444445,-3.611571111111111
563,1715673304170,4.9405321,1.2864531,0.5491540020000001,-1.194333202,0.8144971780000001,-3.91628752
564,1715673304180,4.22520967,0.7667825070000001,0.56022168,-1.6153567799999997,1.53875426,-4.3581568
565,1715673304190,3.8048562999999995,0.5567398,0.45984389999999997,-1.3539318222222223,1.6645228888888888,-4.5490287333333335
566,1715673304200,3.615854588888889,0.5008693155555556,0.4543896322222223,-0.9771807333333334,1.5012522333333334,-4.6303587
567,1715673304210,3.41808962,0.471783616,0.505761214,-0.22525655999999997,1.11449314,-4.76951354
568,1715673304220,3.27816679,0.482162278,0.613755325,0.259617725,0.9414960750000001,-4.9294535
569,1715673304230,3.1592698,0.47167388,0.7099805,0.8390234,0.90209526,-5.342475
570,1715673304240,3.103493977777778,0.4159524577777778,0.7120943666666667,0.9184358444444444,1.0896987622222223,-5.708179355555555
571,1715673304250,3.0332440800000002,0.32798255500000006,0.698748044,0.90994489,1.37017075,-6.09970354
572,1715673304260,2.957266088888889,0.23030477666666668,0.6842269066666666,0.9407494333333334,1.6261063,-6.408807888888889
573,1715673304270,2.9527941,0.142874192,0.683771576,1.06446324,1.8398649800000002,-6.6097757999999995
574,1715673304280,2.9629167,0.058052167499999995,0.668575585,1.19095815,1.9424750499999999,-6.7150125
575,1715673304290,2.9756615,-0.0449416455,0.631622225,1.40068348,2.0011333999999996,-6.8460278
576,1715673304300,2.9989149222222222,-0.13174210444444445,0.5821342388888889,1.8156612333333335,1.9335242777777775,-7.121127611111111
577,1715673304310,3.0587516399999997,-0.255453936,0.537665524,2.17077074,1.76393454,-7.4135216999999995
578,1715673304320,3.12235284,-0.376887854,0.5313968680000001,2.48820684,1.4998879999999999,-7.75676704
579,1715673304330,3.15547677,-0.5997056949999999,0.6287074269999999,3.08337274,0.76811725,-8.600860399999998
580,1715673304340,3.1312803000000002,-0.79008264,0.704845986,3.2382272800000003,0.57183098,-8.8305452
581,1715673304350,3.1135625888888887,-1.0242332,0.7955545666666667,3.2732705555555555,0.4030183511111111,-8.933292999999999
582,1715673304360,3.150014488888889,-1.1735169555555556,0.9141251488888888,3.0844112444444445,0.3736628822222222,-8.797375777777779
583,1715673304370,3.2008574625,-1.23483575,1.0237334412499999,2.7934867624999997,0.56149973,-8.576662875
584,1715673304380,3.25226301,-1.2376392600000001,1.07722139,2.57218553,0.840749111,-8.4706087
585,1715673304390,3.342451,-1.2075704,1.0293283,2.417652,1.1826351,-8.483391
586,1715673304400,3.3790753000000002,-1.21594892,0.9693979779999999,2.44843954,1.21288819,-8.582168
587,1715673304410,3.43657245,-1.26336632,0.8971315690000001,2.6423282,1.009607528,-8.8853402
588,1715673304420,3.46373875,-1.3104423,0.885935785,2.79681588,0.76284852,-9.098715799999999
589,1715673304430,3.472648288888889,-1.3714621777777778,0.8932363388888889,2.942741511111111,0.39338025666666665,-9.374830222222222
590,1715673304440,3.4267244,-1.4216683,0.8978572999999999,2.9413161,0.13790283,-9.671524
591,1715673304450,3.3625743,-1.5589324,0.8591965,2.837469,0.08246681,-9.780411
592,1715673304460,3.21198022,-1.6120574399999998,0.7595809,2.6776666000000002,-0.0273667636,-9.811442600000001
593,1715673304470,2.9814239899999997,-1.6471267099999998,0.63940318,2.4242645300000003,-0.2172847717,-9.8192005
594,1715673304480,2.78822372,-1.66408488,0.59159552,2.17330586,-0.36068537600000006,-9.782304100000001
595,1715673304490,2.51600044,-1.7017211199999998,0.52496966,1.8516241999999998,-0.42378776800000006,-9.6918352
596,1715673304500,2.3621432,-1.712904711111111,0.4921018833333334,1.6776226222222224,-0.4210728066666667,-9.631003555555557
597,1715673304510,1.93878989,-1.6626457399999999,0.43213497900000003,1.12138062,-0.276905215,-9.3860057
598,1715673304520,1.47884846,-1.60767308,0.36949717200000004,0.614362449,-0.051709742999999996,-9.0695622
599,1715673304530,1.095307788888889,-1.6739865333333332,0.2837428388888889,0.16328766888888888,0.2892107711111111,-8.733031444444444
600,1715673304540,0.71668816,-1.7986416000000003,0.13634941,-0.3145956,0.762818,-8.305171
601,1715673304550,0.30995712,-2.0031657,-0.07067485,-0.500756777,0.9278890399999999,-7.758630169999999
602,1715673304560,-0.2034265,-2.1463447,-0.24934383,-0.43035457,0.883922,-7.2025595000000004
603,1715673304570,-0.651202663,-2.20896418,-0.40559075099999997,0.020463983600000003,0.7177514,-6.63188921
604,1715673304580,-1.10665,-2.4253244,-0.63479316,0.79473567,0.29138273,-5.7684007
605,1715673304590,-1.4396572,-2.7541242,-0.78626543,1.2865500966666668,-0.20681183000000003,-4.9571713666666675
606,1715673304600,-1.4882140428571429,-2.866029642857143,-0.7837565599999999,1.3986196285714285,-0.36928985714285717,-4.613145185714286
607,1715673304610,-1.5914465400000002,-3.22432226,-0.71328552,1.33787125,-0.5693264,-3.7756817500000004
608,1715673304620,-1.7336255600000001,-3.7229855,-0.46619792000000004,0.75689258,-0.374918542,-2.92415088
609,1715673304630,-1.9247343000000001,-4.08281138,-0.21681752599999998,-0.189597301,0.3761708015,-2.24366229
610,1715673304640,-2.074003166666667,-4.3398602888888895,-0.29605385666666667,-0.908662061111111,1.6185382777777777,-1.5390240888888889
611,1715673304650,-2.2159891800000002,-4.562339140000001,-0.834176708,-0.532842477,2.27180772,-0.275500224
612,1715673304660,-2.197994,-4.5878897,-1.1584213,0.313144803,1.91006869,0.6758918439999999
613,1715673304670,-2.1050618,-4.4234285,-1.220925,1.6132950999999998,1.031446,1.8956676
614,1715673304680,-1.9715988,-4.2501665666666675,-1.128074,2.6427557,0.49067750000000004,2.8487701
615,1715673304690,-1.66841442,-4.00318472,-0.97656922,3.1706655400000003,0.34687982,3.53403882
616,1715673304700,-1.47557392,-3.90009334,-0.89512538,3.4059098,0.350483942,4.0699965
617,1715673304710,-1.208099,-3.7903227000000004,-0.7908794433333334,3.378899366666667,0.5102252066666666,4.604498433333333
618,1715673304720,-0.36130768199999996,-3.4639094400000006,-0.45624005,2.92857958,1.17148678,6.00318652
619,1715673304730,0.25228302199999997,-3.23662178,-0.25892363500000004,2.03725083,2.2865296699999997,7.5033342
620,1715673304740,0.798973432,-3.04668994,-0.155899348,1.3109168,3.1955888,8.498968
621,1715673304750,1.4975873,-2.8203475,-0.11384811,0.8733336666666667,3.733150066666666,9.088453333333334
622,1715673304760,2.06654129,-2.71804891,-0.15122223,0.04230242,4.515363,10.265743
623,1715673304770,2.5219764000000002,-2.58013824,-0.20771942999999998,-0.34620786800000003,4.59917396,10.8869934
624,1715673304780,2.91831052,-2.4567958,-0.260155441,-0.586690284,4.48323157,11.3068871
625,1715673304790,3.6154061,-2.2258187400000002,-0.24839254,-0.7006929980000001,3.79956643,11.5209801
626,1715673304800,4.004624,-2.0035925,-0.10195717,-0.7538077,3.0440943,11.47602
627,1715673304810,4.1218868,-1.8224111600000001,0.05891807,-0.89174106,2.45546446,11.1777952
628,1715673304820,4.21334328,-1.57434791,0.34995943599999996,-1.12903165,2.1528418,10.8842134
629,1715673304830,4.215246,-1.3272725,0.8067544,-1.9808832600000001,1.74470746,10.116676600000002
630,1715673304840,4.184797088888889,-1.3258496333333332,1.0383465222222223,-2.5663977,1.8457294000000002,9.899377
631,1715673304850,4.12818581,-1.28027588,1.2517071899999999,-3.10786858,2.01677164,9.843299400000001
632,1715673304860,4.12730803,-1.13629802,1.25560373,-3.781714,2.0693061,9.704358
633,1715673304870,4.1468578,-1.046433015,1.2876055499999999,-4.0920334,1.7724255,9.40931
634,1715673304880,4.151170222222223,-0.8783439033333333,1.4278272444444444,-4.105744155555556,1.4604769666666668,8.950618444444444
635,1715673304890,4.015783,-0.77266705,1.5509441,-3.91980016,1.2421334000000002,8.4697076
636,1715673304900,3.856115,-0.796766018,1.59372714,-3.5387424199999997,1.04641214,7.866081199999999
637,1715673304910,3.5963803999999997,-0.8914788720000001,1.6288145799999998,-3.2854166200000003,0.976804056,7.56003784
638,1715673304920,3.4334319,-1.0079247,1.6483279,-3.06478735,0.9637162800000001,7.423692699999999
639,1715673304930,3.147318,-1.2555001,1.6896108,-3.0553613555555557,1.058086511111111,7.748876377777778
640,1715673304940,3.11526108,-1.26121994,1.6267351900000002,-3.2523381899999997,1.1148291000000001,8.08872659
641,1715673304950,3.1521351,-1.1949477,1.4941115,-3.601356,0.9969321000000001,8.642216
642,1715673304960,3.2626903,-1.0847584,1.5346627,-3.4822373,0.70509124,8.799209
643,1715673304970,3.3381827,-0.9045039400000001,1.6117404,-3.0854805,0.5729916,8.689558
644,1715673304980,3.3438355100000003,-0.723944644,1.59955683,-2.83615575,0.67071477,8.446418500000002
645,1715673304990,3.30807741,-0.529195497,1.56346319,-2.74040252,1.05297898,8.051051320000001
646,1715673305000,3.25134834,-0.426366342,1.5207228799999999,-2.86474422,1.4502856999999998,7.85743748
647,1715673305010,3.1493437666666666,-0.2892648577777778,1.3198195777777777,-3.3786448,2.043446022222222,7.760432233333333
648,1715673305020,3.0896316,0.008781,0.7944366,-3.771482,2.1913264,7.61413
649,1715673305030,3.17061192,0.301920064,0.6482817439999999,-3.17124584,1.5892575999999998,7.548278400000001
650,1715673305040,3.3670259700000003,0.7327013179999999,0.5165240200000001,-1.9940169,0.61621034,7.490124
651,1715673305050,3.630923466666667,1.0561794555555555,0.5299631466666667,-1.3910929,0.13087788,7.3736014
652,1715673305060,4.29007343,1.7495105899999999,0.6773809660000001,-1.2874901,0.20821341599999998,7.1139838
653,1715673305070,4.7375937,2.3405023,0.7003457,-1.95554754,1.0248638700000001,6.457517589999999
654,1715673305080,5.002096740000001,2.5172444599999997,0.516871636,-3.10227912,2.01264836,5.54256362
655,1715673305090,5.199991833333333,2.5071178222222223,0.25998808,-3.9553014,2.5677212,4.304411177777777
656,1715673305100,5.30964511,2.46925384,0.12933072299999998,-3.82539077,2.34132424,3.8392270699999997
657,1715673305110,5.49680854,2.5255985799999996,0.0746872884,-2.87088338,1.3667498500000002,3.4136982199999997
658,1715673305120,5.5949607,2.5720403,0.068052754,-2.2925773,0.79351395,3.2262847
659,1715673305130,6.586183455555556,3.0671369222222222,0.534041986,-0.1677164555555556,-0.8947819166666667,2.7427511
660,1715673305140,6.84107,3.0071268,0.6977846,1.435334845,-1.40888439,0.6289469
661,1715673305150,6.6011657999999995,2.4448621299999997,0.762038376,1.44129073,-0.70049448,-1.9096105299999997
662,1715673305160,6.2675,1.8730360999999998,0.79736364,0.63056564,0.29657507,-3.1810808
663,1715673305170,5.779396,1.3479649,0.7474419688888889,0.011284040000000002,1.1543655855555555,-3.941404266666666
664,1715673305180,5.3067673200000005,1.0438474819999999,0.643366827,-0.259510834,1.74731886,-4.53262037
665,1715673305190,4.91292107,0.8493971159999999,0.543257329,-0.183290116,1.8426597100000002,-4.77728699
666,1715673305200,4.624761722222222,0.72330102,0.48097658,0.23579398666666668,1.6747888333333334,-5.1256685
667,1715673305210,4.120545099999999,0.534275088,0.407950636,1.000933272,1.11412656,-5.5104016399999995
668,1715673305220,3.82321075,0.43722063999999994,0.43051293500000004,1.78090135,0.395382538,-5.857739400000001
669,1715673305230,3.546707,0.312823132,0.579911878,2.6671294,-0.6324593208,-6.4493626399999995
670,1715673305240,3.3382923300000003,0.1790104422,0.748409518,2.96275752,-1.09618234,-6.8775028
671,1715673305250,3.1578672,0.027806502,0.8746242,2.9495628,-1.1716396,-7.1778193
672,1715673305260,3.08688738,-0.04917360119999999,0.8905032,2.84675424,-1.1063991999999998,-7.34293636
673,1715673305270,2.95092822,-0.165521854,0.9025527200000001,2.63637216,-0.934746,-7.58752688
674,1715673305280,2.84683078,-0.277821086,0.859013504,2.3935227,-0.68661255,-7.782118
675,1715673305290,2.801464288888889,-0.37364644888888887,0.7984679688888889,2.2277745222222225,-0.5083756344444444,-7.921938000000001
676,1715673305300,2.81676198,-0.412865538,0.771313288,2.1576676,-0.434783348,-8.0310454
677,1715673305310,2.85777048,-0.488345559,0.75930041,2.14419808,-0.40730966999999996,-8.251522
678,1715673305320,2.88411345,-0.58393041,0.737091803,2.2865449599999996,-0.49252538999999995,-8.574379
679,1715673305330,2.9276911444444442,-0.6817877444444443,0.7409104477777778,2.4145127222222222,-0.6679641666666667,-8.778930555555554
680,1715673305340,2.98263752,-0.76942292,0.789704608,2.46038196,-0.846873038,-8.889677599999999
681,1715673305350,3.08864364,-0.8468664799999999,0.8828319800000001,2.38695592,-0.956217906,-8.9917532
682,1715673305360,3.1943529777777777,-0.8978301777777777,0.9357050111111112,2.0954206,-0.7840455,-9.071197
683,1715673305370,3.3307865714285714,-0.9510049857142857,0.9022477857142858,1.8357155714285713,-0.5977752942857143,-9.125126714285715
684,1715673305380,3.4924598,-1.0201205,0.8574891000000001,1.3952162,-0.3370449,-9.224371
685,1715673305390,3.607046688888889,-1.0763229555555556,0.8713381333333333,1.2052371333333332,-0.22708915999999998,-9.327912666666668
686,1715673305400,3.66920212,-1.15066468,0.883307676,1.04262484,-0.08730791699999998,-9.51616535
687,1715673305410,3.7576461200000004,-1.24606052,0.8893323399999999,1.0726182400000002,-0.07360926079999999,-9.6393308
688,1715673305420,3.8116309700000004,-1.2954170600000001,0.8871065850000001,1.1297188999999999,-0.105068823,-9.73849
689,1715673305430,3.8667501100000004,-1.44290114,0.847305545,1.2933544,-0.16447547,-9.99009
690,1715673305440,3.8447973999999996,-1.5527735,0.7578491,1.3399329,-0.2742785,-10.093327
691,1715673305450,3.7654027999999995,-1.6182652000000002,0.6018644,1.2670872,-0.47693303,-10.073932
692,1715673305460,3.5606348999999997,-1.6139356,0.60790133,1.1035111111111113,-0.6869349588888888,-10.062800444444443
693,1715673305470,3.4662877,-1.61598456,0.6026814899999999,0.95209458,-0.718805144,-10.0357522
694,1715673305480,3.059203,-1.6906475,0.52442086,0.68294734,-0.61300325,-9.928546
695,1715673305490,2.7718081,-1.7521753,0.42703712,0.5590944,-0.4886922,-9.784687
696,1715673305500,2.40188402,-1.78227466,0.33493416000000004,0.45598036799999997,-0.433836488,-9.657627
697,1715673305510,2.05885188,-1.79587306,0.239135896,0.372047492,-0.37455203200000003,-9.4245212
698,1715673305520,1.64247395,-1.7912935,0.135038365,0.30399709599999997,-0.38405098000000004,-9.1011284
699,1715673305530,1.0034596466666668,-1.8124226777777777,0.04004976111111111,0.22990592,-0.45309232666666666,-8.371483777777776
700,1715673305540,0.68958902,-1.9044159,0.021635408800000002,0.21986567699999998,-0.45142941299999995,-7.64569611
701,1715673305550,0.332568188,-2.03785056,0.0227330344,0.19398025800000002,-0.38582248799999996,-6.9432165
702,1715673305560,-0.317329514,-2.1968294399999997,0.08568793,0.0012217305,0.053297993,-5.804289
703,1715673305570,-0.59881544,-2.2456188,0.07591906,-0.15013709661111113,0.5468771103333334,-5.352248555555556
704,1715673305580,-1.130163572,-2.4610521299999997,-0.10831119600000001,-0.307173579,1.2473105,-4.86161673
705,1715673305590,-1.7118072999999998,-2.789004,-0.48728454,-0.3932445,1.8287778,-4.1109705
706,1715673305600,-2.0364061666666666,-3.0801186777777776,-0.7185920811111112,-0.2644198066666667,1.6453825111111111,-3.4029096111111112
707,1715673305610,-2.32217216,-3.3709160500000004,-0.8114863449999999,-0.166399692,1.4140003399999999,-2.9599781
708,1715673305620,-2.555637,-3.6782328,-0.76300183,0.029779679999999996,0.9862113959999999,-2.16567006
709,1715673305630,-2.7934962999999997,-4.076985866666666,-0.5913963133333334,0.47764572000000005,0.6645704866666666,-1.1758647
710,1715673305640,-2.86428899,-4.277024119999999,-0.48546734799999997,1.1867584,0.5946773,-0.111177474
711,1715673305650,-2.87338118,-4.3553213,-0.515578858,1.7774651,0.7699956,0.73853606
712,1715673305660,-2.73047634,-4.3328017,-0.59927276,2.1429457899999997,0.96196003,1.5452447159999998
713,1715673305670,-2.5423434,-4.309642,-0.6714416,2.3095288,1.1710287,2.4061983
714,1715673305680,-2.3759433999999997,-4.1966596,-0.7161271680000001,2.2560626800000003,1.28799405,3.08435019
715,1715673305690,-2.06598644,-3.94186416,-0.72749368,2.1058356799999998,1.41962028,3.90801048
716,1715673305700,-1.5760067,-3.6063692999999994,-0.664429,1.898857611111111,1.5840754000000001,4.8745519999999996
717,1715673305710,-1.33200452,-3.5016190799999998,-0.6283903000000001,1.80426685,1.6788104000000001,5.3325482
718,1715673305720,-0.65591629,-3.2299263199999997,-0.50708445,1.52129882,1.93073131,6.501713669999999
719,1715673305730,0.21690291,-2.8704114,-0.27178416,1.0445796,2.2695172,7.7359977
720,1715673305740,0.604870693,-2.74278194,-0.148722095,0.71500252,2.50555545,8.15579911
721,1715673305750,1.20170434,-2.5913463200000004,0.007561414,-0.019822567999999995,2.90506128,8.8062334
722,1715673305760,2.09933,-2.3365388,0.19141361,-0.98715824,3.2963815,9.418321
723,1715673305770,2.56033241,-2.30640896,0.279058976,-1.438099008,3.2895398200000003,9.504329799999999
724,1715673305780,2.82989078,-2.32534297,0.37472308499999996,-1.80729068,3.1533474999999997,9.4904484
725,1715673305790,3.1864055222222216,-2.3769001222222226,0.6102591911111112,-2.2442172222222223,2.8171577333333335,9.314557777777777
726,1715673305800,3.2839964999999998,-2.39974964,0.7392992119999999,-2.41694952,2.57992834,9.171133399999999
727,1715673305810,3.3628058600000004,-2.40084728,0.9873137319999999,-2.4958122000000005,2.22080062,9.0093766
728,1715673305820,3.3734894599999996,-2.3819681800000003,1.0547811,-2.42821995,2.07417767,8.982666499999999
729,1715673305830,3.3954421888888886,-2.3513431666666667,1.1800892333333333,-2.197519877777778,1.7355021333333331,8.942982
730,1715673305840,3.5328279,-2.5498438,1.2571466,-2.1937697,1.3683381,8.980024
731,1715673305850,3.6280165,-2.564357,1.3278824,-2.4227525099999996,1.25919172,9.05988
732,1715673305860,3.675478611111111,-2.566389666666667,1.4179960666666664,-2.8958065555555557,1.2157235888888889,9.123035111111111
733,1715673305870,3.7700310299999997,-2.61850634,1.51955822,-3.7757580000000006,1.3639094,9.243613
734,1715673305880,3.8493525699999998,-2.68447376,1.49935578,-4.00965838,1.34905008,9.388037
735,1715673305890,4.05937703,-2.74380645,1.52800994,-4.2808369200000005,1.22530412,9.818315
736,1715673305900,4.162207555555556,-2.7442047888888887,1.5524348222222222,-4.356233,1.1550614222222222,10.031153888888888
737,1715673305910,4.50048192,-2.5586796699999996,1.6144966099999998,-4.2725442000000005,0.9286068000000001,10.664363400000001
738,1715673305920,4.6472466400000005,-2.4585336,1.56220093,-4.09679836,0.79779001,10.7672789
739,1715673305930,4.7871695,-2.3370876,1.4935628,-3.8314996,0.5758932,10.738858
740,1715673305940,4.852010766666667,-2.3728214666666667,1.4807978000000002,-3.854712533333333,0.5526803333333333,10.703835333333334
741,1715673305950,4.9906815600000005,-2.37276052,1.40222816,-3.9257866199999993,0.55939982,10.663233600000002
742,1715673305960,5.21534705,-2.1317342100000003,1.08447177,-3.6187658,0.25411993,10.520016
743,1715673305970,5.33083542,-1.84777846,0.887624972,-2.7534140000000003,-0.38568503,10.3482105
744,1715673305980,5.5199967999999995,-1.5056163,0.7209770133333334,-1.6652186666666666,-1.0007839266666667,10.163186000000001
745,1715673305990,5.72949255,-0.720676225,0.58974779,-0.59092047,-1.3720033400000002,9.9013627
746,1715673306000,5.740476944444445,-0.21938272777777776,0.5068317277777777,-0.27465178888888886,-1.3382869666666668,9.616309000000001
747,1715673306010,5.7379565,0.12421457,0.44661143000000003,-0.09193522,-1.2921327,9.407325
748,1715673306020,5.431506000000001,1.5553042,0.21675044,-0.74250668,-0.27450757000000003,7.6245908
749,1715673306030,4.84156303,2.34442339,0.0621438685,-2.32341055,0.871628332,5.50928666
750,1715673306040,4.425185139999999,2.4522651,0.147898873,-3.4936299399999995,1.364795088,4.5162486
751,1715673306050,3.9615115999999997,2.502768,0.50210243,-4.934111,1.9651535,3.8098137000000003
752,1715673306060,3.8268999999999997,2.45305764,0.7697033830000001,-5.93878615,2.625682,3.6621066
753,1715673306070,3.8354676,2.3188548,0.9326153999999999,-6.338338,3.035542,3.573867
754,1715673306080,4.02683856,2.30886651,0.9206512950000001,-6.16048432,3.40458115,3.5656204799999998
755,1715673306090,4.5153856,2.6203966,0.6986993,-4.606229377777778,3.005626744444444,3.6088222444444447
756,1715673306100,4.98315665,2.7754971999999998,0.47271050500000006,-3.30358982,2.28585776,3.48504738
757,1715673306110,5.788589611111111,3.089468911111111,0.13636296853333332,-1.6546812466666667,1.1116050577777778,3.0152987444444443
758,1715673306120,6.52589885,3.3932467500000003,0.06363175585,0.550847735,-0.8829293850000001,1.5702291000000002
759,1715673306130,7.046173250000001,3.06297147,0.74014685,2.6984973,-3.2314773000000003,-1.5470163
760,1715673306140,6.7044156,2.19623773,1.2882702700000002,2.57310198,-2.79273858,-3.20916524
761,1715673306150,6.293355,1.6030813,1.3971547,2.085952,-1.694082,-4.2723913
762,1715673306160,5.62234,0.9737763000000002,1.1008569,1.41989521,-0.21971295300000002,-4.64637838
763,1715673306170,5.0264516,0.70241904,0.5746067,0.83276206,1.0531317,-4.861571
764,1715673306180,4.626428488888889,0.6039309155555554,0.16970502,0.7142541844444446,1.2036760555555555,-5.016187888888889
765,1715673306190,4.3229292599999996,0.509023615,-0.006530869,0.8285776119999999,0.8841968999999998,-5.236123
766,1715673306200,4.097769909999999,0.38685793399999996,0.060314492,1.174846528,0.200119456,-5.63446828
767,1715673306210,3.9129318000000004,0.27674377555555557,0.21388781555555555,1.4170885333333334,-0.22252463,-5.9238657111111115
768,1715673306220,3.7531580399999998,0.187462148,0.42092701200000004,1.6261538000000002,-0.568226858,-6.27468556
769,1715673306230,3.5181015199999996,0.022263494399999997,0.74464103,1.6814371000000001,-0.683588768,-6.99413232
770,1715673306240,3.31773002,-0.291767018,0.9795693030000001,1.3787229,-0.26374108,-7.431634
771,1715673306250,3.2355606000000003,-0.44025738499999995,1.00482081,1.0660515199999998,0.28611401599999997,-7.6169093000000005
772,1715673306260,3.1648188,-0.54332435,0.930786,0.8304713,0.86544335,-7.73951
773,1715673306270,3.1329877799999997,-0.614395595,0.77228898,0.77604317,1.197234785,-7.8421811
774,1715673306280,3.15501934,-0.65981289,0.6585506299999999,0.85776167,1.22137919,-7.956321
775,1715673306290,3.2509010000000003,-0.6707708533333333,0.5428365666666667,1.1430815666666667,0.9610946400000001,-8.216188333333333
776,1715673306300,3.3467804200000004,-0.681917866,0.513383628,1.6388292199999999,0.423054712,-8.642002399999999
777,1715673306310,3.46693375,-0.7775454,0.618511716,2.02052836,0.0014355239999999992,-8.966401999999999
778,1715673306320,3.5639340666666666,-0.9784040222222222,0.7737308022222222,2.4423410000000003,-0.4967861655555556,-9.395922111111112
779,1715673306330,3.58414197,-1.11186367,0.8507264680000001,2.63695249,-0.749867634,-9.725525000000001
780,1715673306340,3.5420968299999998,-1.36545771,0.9027782520000001,2.5883887,-0.729984,-10.02323
781,1715673306350,3.511912,-1.5313089,0.89986956,2.3776402,-0.601855,-9.981997
782,1715673306360,3.514961,-1.7056483,0.8996867,1.9763018,-0.33505958,-9.736276
783,1715673306370,3.562098,-1.7332718,0.8494398000000001,1.5738943,-0.008246681,-9.451612
784,1715673306380,3.6485359799999997,-1.7031969500000002,0.75520872,1.3319916600000001,0.1619403758,-9.3733
785,1715673306390,3.7468039999999996,-1.7160757,0.67571014,1.1530929555555556,0.18476976555555558,-9.390423777777777
786,1715673306400,3.7796840000000005,-1.7338817,0.663514316,1.11690601,0.112215943,-9.462164900000001
787,1715673306410,3.7613576666666666,-1.8049630666666667,0.6829870133333333,1.2056953,-0.07539095333333334,-9.646835000000001
788,1715673306420,3.70386855,-1.8690481,0.696461378,1.29627133,-0.186283354,-9.7732334
789,1715673306430,3.4398959000000007,-2.02887445,0.7054679500000001,1.42191104,-0.225042752,-9.8813868
790,1715673306440,3.24794566,-2.14446659,0.583527938,1.39442212,-0.11946997100000001,-9.7119938
791,1715673306450,3.0010288,-2.2293985,0.34191018,1.3938417,-0.1611157,-9.442602
792,1715673306460,2.61982354,-2.1690840099999997,0.131221062,1.3136657,-0.48487428,-9.13213
793,1715673306470,2.33566071,-2.0821458699999997,0.0639061648,1.168905874,-0.749928688,-8.8620202
794,1715673306480,1.9987751,-2.010849,0.11043327,0.88132584,-0.8544478,-8.591056
795,1715673306490,1.65241955,-1.99548222,0.127117182,0.525344106,-0.47674978599999995,-8.493745299999999
796,1715673306500,1.27966621,-2.0283499,0.0541860916,0.1413847592,0.13051135599999997,-8.478900999999999
797,1715673306510,0.7724908888888888,-2.1823699555555556,-0.11687673599999998,-0.25815844177777775,0.70840007,-8.347032555555554
798,1715673306520,0.24369714,-2.37537036,-0.31739657,-0.5048801239999999,0.9148012399999998,-8.0573432
799,1715673306530,-0.38953493,-2.57124755,-0.50127925,-0.67531153,0.94775742,-7.407504749999999
800,1715673306540,-1.2023506579999999,-2.79702297,-0.617243301,-0.428521971,0.509415808,-5.79659185
801,1715673306550,-1.6641215,-2.8644354,-0.60015696,0.12217305,-0.06872234,-4.15312
802,1715673306560,-1.8138923000000002,-2.77541802,-0.38760189899999997,0.6790989000000001,-0.5294369299999999,-2.47863157
803,1715673306570,-1.8016111000000001,-2.65131918,-0.106207417,0.7684684749999999,-0.370611954,-1.26985141
804,1715673306580,-1.7311985,-2.4684978,0.095920235,0.4344779,0.3538437,-0.657291
805,1715673306590,-1.69997714,-2.5219643599999997,-0.019354787399999997,-0.163681348,1.22738106,-0.50885076
806,1715673306600,-1.7324182000000001,-2.72880556,-0.2722841966,-0.728609512,1.88583268,-0.418228884
807,1715673306610,-1.9132213200000003,-2.8602034000000005,-0.503102532,-0.77334013,1.9701931,-0.330340648
808,1715673306620,-2.059273188888889,-2.895026566666667,-0.6133623466666667,-0.43958542133333334,1.721299411111111,-0.22700431444444444
809,1715673306630,-2.2796573799999997,-3.01778578,-0.6537820059999999,0.6930266054,0.9611353599999999,0.039645152
810,1715673306640,-2.30867124,-3.1187917599999997,-0.5820217599999999,0.87979865,0.8454374999999998,0.08399397
811,1715673306650,-2.3128178,-3.1748601777777776,-0.5361085444444444,1.3521502388888889,0.745900411111111,0.3864231633333334
812,1715673306660,-2.394469,-3.2456769999999997,-0.6349761,1.5406022,1.4986051,1.4598153
813,1715673306670,-2.3426367200000002,-3.28080711,-0.788198456,1.286864,1.88222859,2.19997018
814,1715673306680,-2.154455,-3.255068,-0.83114606,1.0247264,2.1331415,3.2330043
815,1715673306690,-1.6863179,-3.102864,-0.6736979,0.8060519599999999,2.35992512,4.444991369999999
816,1715673306700,-1.1665586111111113,-2.933368888888889,-0.572228531111111,0.45478916,2.7569876,5.7563357
817,1715673306710,-0.7053216600000001,-2.75036776,-0.513103132,0.20018054400000002,2.99241512,6.38015162
818,1715673306720,-0.15165519344444445,-2.5094823444444443,-0.47958083333333335,-0.2218289177777778,3.256760266666667,7.1039894666666665
819,1715673306730,0.3949349637777778,-2.2826127888888887,-0.43371772222222227,-0.6743782722222222,3.379968266666667,7.6507309999999995
820,1715673306740,0.9956678000000001,-2.092256,-0.33001924,-1.2060007,3.2979088,8.164978
821,1715673306750,1.32665055,-2.0419729,-0.22872676200000003,-1.5894866,3.12857694,8.4978231
822,1715673306760,1.74367494,-2.03341144,-0.051259092000000006,-2.2397375,2.827848,9.097311
823,1715673306770,2.4566677,-2.0835361,0.39301074,-2.8523283499999996,2.62704126,9.804325799999999
824,1715673306780,2.9758850333333333,-1.9556696999999998,0.6942207133333334,-3.531259244444444,2.524774022222222,10.556056333333332
825,1715673306790,3.4533721999999996,-1.7141855,0.92907864,-4.00070914,2.47024742,10.903273
826,1715673306800,3.72933948,-1.42807118,1.0716235680000001,-4.380850799999999,2.24331092,10.7155238
827,1715673306810,3.8168082,-1.1659217,1.2094609,-4.3737442444444445,1.831238233333333,10.099452388888889
828,1715673306820,3.77487888,-1.11947994,1.24221886,-4.20867824,1.55746202,9.6345358
829,1715673306830,3.46403747,-1.14907316,1.3699945599999999,-3.8000703799999997,1.1649505599999999,8.8007814
830,1715673306840,3.158477,-1.3644089,1.4992948,-3.5863898,0.9783006999999999,8.272032
831,1715673306850,2.9141946,-1.6823543,1.6959527,-3.6551733200000003,1.08019294,8.3124712
832,1715673306860,2.7598562,-1.9695052,1.9246854000000002,-3.834978111111111,1.3716130333333334,8.696379444444444
833,1715673306870,2.7480566600000005,-2.1880972,2.04350349,-4.076471580000001,1.8545715999999999,9.5382324
834,1715673306880,2.9249999200000003,-2.13974664,2.0831459,-4.18697725,2.1941973900000002,10.195355750000001
835,1715673306890,3.1321219499999997,-1.86573086,2.05452226,-4.19577385,2.4352753199999997,10.43002055
836,1715673306900,3.230567822222222,-1.5998358222222224,1.9530950444444446,-3.877721711111111,2.3272269333333333,9.759319555555557
837,1715673306910,3.1004614,-1.44692586,1.7505532799999997,-3.1606777999999998,1.7511062799999997,8.912554400000001
838,1715673306920,2.96381926,-1.46510986,1.62359468,-2.4619091600000003,1.17753436,8.411156199999999
839,1715673306930,2.7887604,-1.6355833,1.5211864,-1.6704789777777778,0.5118880991111111,8.093913622222223
840,1715673306940,2.77467416,-1.6924828699999999,1.57249423,-0.5850256600000001,-0.2586097991,8.002395920000001
841,1715673306950,2.866143,-1.6811957,1.6596699000000001,0.07819075,-0.21212296,8.287609
842,1715673306960,2.93621403,-1.3605733199999999,1.44154751,0.1219287083,0.382080947,8.5405835
843,1715673306970,3.0199933,-1.0229255,1.126834,-0.040317107,0.84299403,8.608466
844,1715673306980,3.1349145700000003,-0.6169140439999999,0.89825362,-0.5236947707,1.253358043,8.36079104
845,1715673306990,3.24412832,-0.1344102824,0.730067,-1.106277,1.6992743999999997,7.873900399999999
846,1715673307000,3.275556922222222,0.523858458,0.45522304444444445,-1.4159178,1.8616287999999999,7.0643004
847,1715673307010,3.2664406,0.733274485,0.34645314,-1.43093658,1.84119369,6.76119416
848,1715673307020,3.2360484900000004,1.01583366,0.10255476290000001,-0.84836962,1.1720671200000001,5.28630568
849,1715673307030,3.275035188888889,1.027844527777778,0.004200788000000001,-0.5319617940000001,0.82241124,4.768753444444444
850,1715673307040,3.4748979,0.86620915,-0.09134679,-0.12400564600000001,0.35811976,4.053091
851,1715673307050,3.52612033,1.020516835,-0.129934409,-0.5447696358,0.587209509,3.96511108
852,1715673307060,3.7088810100000003,1.30816781,-0.186114524,-1.861382736,1.3778981829999999,3.76323534
853,1715673307070,3.9849885,1.3370903,-0.22239104000000004,-2.8834367,2.006387,3.5648568
854,1715673307080,4.4255022777777775,1.1627710999999998,-0.39204864,-3.6967018555555557,2.497929844444444,3.295261688888889
855,1715673307090,4.93244642,1.0478050399999999,-0.61229184,-3.9857430000000003,2.4866798,2.9840767
856,1715673307100,5.460128666666666,1.0658142,-0.7614062266666667,-3.3980905555555556,1.7183469999999998,2.6647978555555554
857,1715673307110,5.892233859999999,1.2650372600000002,-0.74362873,-2.32238743,0.5951812999999999,2.19125
858,1715673307120,6.171116079999999,1.5100515,-0.529823596,-0.657214644,-0.8182081699999999,1.2636968999999998
859,1715673307130,6.309246079999999,1.59159286,-0.38025390400000003,-0.09692904999999999,-1.21093343,0.7998363827999999
860,1715673307140,6.285590244444444,1.4977907222222224,-0.004830904444444443,1.174235708888889,-1.931199511111111,-1.2883995942222222
861,1715673307150,6.05108472,1.1830935,0.14641098400000002,1.2160494400000001,-1.6694030599999998,-2.47412628
862,1715673307160,5.4697704,0.46472221999999996,0.16982698,0.94720764,-1.05105473,-3.54582834
863,1715673307170,5.10612729,0.21111597199999999,0.05792411200000001,0.535224835,-0.30986139500000004,-4.22315586
864,1715673307180,4.639898055555555,0.07648142888888888,-0.15311191333333335,0.26055098555555556,0.11097384888888888,-4.550131366666666
865,1715673307190,4.297988599999999,0.075809301,-0.318116123,0.173287189,0.07568620179999999,-4.7375347
866,1715673307200,3.91942376,0.10176203400000002,-0.36111864000000005,0.0794124804,-0.3295312532,-5.05460444
867,1715673307210,3.67614137,0.14223999299999998,-0.20164591,-0.0185397601,-0.756235913,-5.37868413
868,1715673307220,3.4829538,0.2115909255555556,0.07176570222222221,-0.11002361511111111,-1.017888138888889,-5.765109
869,1715673307230,3.40718648,0.250136542,0.248233996,-0.180846658,-1.03697433,-6.1188386800000005
870,1715673307240,3.392738577777778,0.2063670522222222,0.5405870822222222,-0.3429329744444445,-0.7593224866666666,-6.78722211111111
871,1715673307250,3.3157788000000004,0.11592139800000001,0.6350980180000001,-0.47219884,-0.41996986,-7.265783999999999
872,1715673307260,3.2356764999999994,-0.09531044,0.7149198,-0.487592629,-0.12226467939999999,-7.6487050199999995
873,1715673307270,3.1682336,-0.30202982,0.7885216,-0.3210097,0.1133155,-7.970721999999999
874,1715673307280,3.10905952,-0.369302028,0.8036444319999999,-0.154243476,0.166338604,-8.0652836
875,1715673307290,2.9803568,-0.495004464,0.811522948,0.47033569599999997,0.219300628,-8.2853792
876,1715673307300,2.8869367,-0.6268048,0.79901004,1.04021185,0.19170478600000002,-8.4272677
877,1715673307310,2.877214011111111,-0.6753713833333334,0.8010494744444444,1.4264551777777779,0.14893234111111112,-8.519889777777777
878,1715673307320,2.8800766500000003,-0.7335794000000001,0.778490585,1.67080804,0.1275181196,-8.608770799999999
879,1715673307330,2.9234389,-0.8479397399999999,0.69483324,1.94358994,0.0735481736,-8.8321646
880,1715673307340,2.98585702,-0.94511612,0.64600108,1.8952705,-0.0061697392000000005,-9.066247800000001
881,1715673307350,3.0086444666666665,-1.0171663888888889,0.6434521555555555,1.8307631333333336,-0.05379007422222223,-9.23002088888889
882,1715673307360,3.01976164,-1.11824818,0.643379,1.84325536,-0.098578383,-9.3580132
883,1715673307370,3.0324087200000003,-1.2319134,0.64973304,1.95571564,-0.151815285,-9.4278802
884,1715673307380,2.9858449,-1.3737388,0.6422936,2.1213822,-0.22128594,-9.42
885,1715673307390,2.9751613800000003,-1.44779184,0.64292772,2.16133284,-0.265451496,-9.3568668
886,1715673307400,2.9842961000000003,-1.5706038199999999,0.68377157,2.1899214000000002,-0.377728512,-9.049662799999998
887,1715673307410,3.05349526,-1.6072157,0.71077314,2.1767265799999995,-0.45512515200000003,-8.789495200000001
888,1715673307420,3.1492081333333335,-1.5464723333333332,0.7054273200000001,2.121687633333333,-0.5286529633333333,-8.681158333333334
889,1715673307430,3.19290588,-1.4609999,0.700431098,1.95119514,-0.602313122,-8.823032399999999
890,1715673307440,3.1750634,-1.4042283,0.7336404,1.5825992,-0.54641896,-9.302256
891,1715673307450,3.12868865,-1.56053013,0.7226641349999999,1.12449596,-0.316061683,-9.608895
892,1715673307460,2.9138894,-1.7344915,0.63961047,0.8229882,-0.17134771,-9.6677065
893,1715673307470,2.69129116,-1.7774207,0.575753102,0.756281696,-0.19944751,-9.5024061
894,1715673307480,2.39224317,-1.7754207000000002,0.528451552,0.8472701,-0.39690968,-9.220247
895,1715673307490,2.160850811111111,-1.7221871555555555,0.5386289822222223,1.0037024444444445,-0.5782857622222223,-9.01832188888889
896,1715673307500,1.8672125999999998,-1.62230195,0.56810635,1.29401118,-0.84988156,-8.6212786
897,1715673307510,1.71605126,-1.57943354,0.57031374,1.35856432,-0.9303783400000001,-8.438065
898,1715673307520,1.51751534,-1.54441934,0.5517272999999999,1.2768000000000002,-0.926254978,-8.2107314
899,1715673307530,1.1922308444444445,-1.4867533333333334,0.5171914222222223,1.1029172,-0.8437576066666667,-8.016791866666667
900,1715673307540,0.736908848,-1.46198768,0.44194042400000005,0.5453804800000001,-0.36160167200000004,-7.77185552
901,1715673307550,0.46060614400000005,-1.5658047400000001,0.367186059,0.164536551,0.103022415,-7.55344058
902,1715673307560,-0.0776935545,-1.9367837399999999,0.1797665953,-0.28771752,0.7284568,-6.9153
903,1715673307570,-0.4970411699999999,-2.1439056,0.037075333,-0.39142886222222223,0.9518977777777778,-6.387784088888889
904,1715673307580,-0.9032722169999999,-2.25525954,-0.0687357203,-0.266810662,1.08291138,-5.55050482
905,1715673307590,-1.18999624,-2.3115738,-0.11181140360000001,0.038301254000000014,1.0740233,-4.9003609599999995
906,1715673307600,-1.6410306444444442,-2.3307660333333335,-0.2238951711111111,0.8073602144444444,1.0820460111111112,-3.813835288888889
907,1715673307610,-1.83876582,-2.36593068,-0.29107796,1.23217626,1.11736416,-3.3400889200000003
908,1715673307620,-1.98606108,-2.47380283,-0.33826974400000004,1.3203852,1.1255192,-3.2438471
909,1715673307630,-2.233524766666667,-3.0013743666666666,-0.31327032,1.4040737444444444,1.3479080888888888,-2.3723121666666667
910,1715673307640,-2.2700714,-3.4653547100000006,-0.209189041,1.08326262,1.9538677500000001,-1.151969679
911,1715673307650,-2.26443075,-3.6895750500000006,-0.20760358,0.6659195,2.55404286,-0.439792436
912,1715673307660,-2.3021099499999997,-3.8231866500000002,-0.385412729,0.37256672,3.4237928699999998,0.49987103499999996
913,1715673307670,-2.306537,-3.831626,-0.6600385,0.61712664,3.8000400000000005,1.1238394
914,1715673307680,-2.30734195,-3.8777386299999996,-1.02698066,1.422537204,3.6270581999999996,1.89415573
915,1715673307690,-2.2155561,-3.9183992999999995,-1.4644147,2.3976462,3.0561588,2.8344147
916,1715673307700,-1.99110394,-3.80941746,-1.49124558,2.89195828,2.32874048,3.77649094
917,1715673307710,-1.76987162,-3.6686042400000005,-1.37534858,3.0826092800000002,1.9017762400000002,4.52064698
918,1715673307720,-1.29841731,-3.33767632,-1.07036733,2.9957289400000002,1.71592045,5.3466744
919,1715673307730,-0.8472920355555557,-3.0970166666666668,-0.7889078133333334,2.5821103555555553,1.9256678333333335,5.936812722222222
920,1715673307740,-0.018805983999999998,-2.84090964,-0.310469326,1.29784432,2.81135458,6.95558652
921,1715673307750,0.43978178800000006,-2.71832329,-0.0707480269,0.263344022,3.6102288899999997,7.55866317
922,1715673307760,0.920633009,-2.5464107,0.1140859259,-0.920772482,4.56302601,8.21125015
923,1715673307770,1.3586768,-2.458619,0.19141361,-2.3806097333333334,5.484076622222222,8.987812333333332
924,1715673307780,1.71825875,-2.28393197,0.28306528099999995,-3.5644141400000002,5.92227727,9.6032905
925,1715673307790,1.95871182,-2.1871032599999998,0.315884264,-4.466341,5.9524236,10.018343
926,1715673307800,2.3528135,-2.0800469,0.4405203033333333,-5.1503913444444445,5.553681355555556,10.327406222222223
927,1715673307810,2.54316665,-1.98340845,0.558874075,-5.6540158,5.0968306,10.504515000000001
928,1715673307820,2.8374826,-1.7698288999999998,0.8143462749999999,-6.22257865,4.2699481,10.475423000000001
929,1715673307830,3.1428528888888887,-1.465918888888889,1.2842009,-6.606320833333333,3.2440168888888885,9.987358222222221
930,1715673307840,3.2141146,-1.30021004,1.7575782400000002,-6.65636965,2.33739954,9.0765414
931,1715673307850,3.0520685,-1.1897036,2.2145803,-6.4681162,2.0554546399999998,8.224185709999999
932,1715673307860,2.8707774,-1.2230592,2.3105617,-6.1743207,2.2401955,7.3710055
933,1715673307870,2.6793297555555555,-1.3036058666666666,2.2320204555555554,-5.9430063,2.332096833333333,7.073446388888889
934,1715673307880,2.41743358,-1.35401193,2.06606558,-5.568006,2.1386545,6.9015557
935,1715673307890,2.29154813,-1.36925052,1.95267494,-5.18429096,1.66897546,6.799480300000001
936,1715673307900,2.2416185399999997,-1.35395698,1.90468424,-4.89382474,1.21027668,6.685828600000001
937,1715673307910,2.1539671,-1.3601098,1.93703365,-4.63135135,0.7308238499999999,6.5177795000000005
938,1715673307920,2.0344480333333332,-1.4353886,2.069653166666667,-4.296520566666667,0.19109900666666668,6.309474333333333
939,1715673307930,1.97640806,-1.5304916800000001,2.16894354,-4.131923,0.15131132,6.29811236
940,1715673307940,1.8937874000000001,-1.6229361199999999,2.21826979,-3.8866607600000003,0.42998804799999996,6.55009412
941,1715673307950,1.8911266222222223,-1.6261179,2.0962538333333334,-3.679088666666667,0.69643729,6.868619499999999
942,1715673307960,1.9489551999999999,-1.5638108,1.7899216,-3.348916,0.86620694,7.273572400000001
943,1715673307970,2.1059763,-1.4203267,1.524845,-3.0530128,0.69113294,7.43044272
944,1715673307980,2.295317,-1.2564758,1.3918495,-2.5947348666666668,0.23360504444444447,7.451877455555555
945,1715673307990,2.40651242,-1.17776388,1.42181468,-2.1871418799999995,-0.206808428,7.3216935
946,1715673308000,2.63769056,-0.9113885700000001,1.5937576400000002,-1.9037768499999999,-0.251371044,7.18075173
947,1715673308010,2.721683,-0.73803085,1.6505841,-1.8258762000000002,0.1160644,7.026324700000001
948,1715673308020,2.7337976000000004,-0.6624979999999999,1.6499946666666667,-1.8636819777777778,0.2601946666666667,6.9991412111111115
949,1715673308030,2.79483392,-0.283638514,1.46920778,-2.2614231,1.4268285,6.8492501500000005
950,1715673308040,2.95042829,0.10706722500000002,0.993344563,-2.9210964,2.82008992,6.76982266
951,1715673308050,3.248136522222222,0.4088788666666667,0.53427238,-3.4387131777777777,3.328435077777778,6.654732222222222
952,1715673308060,3.7613352900000003,0.825651834,0.0359533187,-3.9375151500000003,3.2983057899999997,6.3880316
953,1715673308070,4.18685372,1.15509182,-0.1675707434,-4.3604479000000005,2.78261344,5.903340399999999
954,1715673308080,4.711128,1.4462429,-0.062686585,-4.914258,1.8861991,4.939151
955,1715673308090,5.048343,1.3714825,0.19336495,-5.242751,1.4129313,3.9414554
956,1715673308100,5.402076688888889,1.0837692555555556,0.4980439277777778,-5.209492866666666,1.2383596555555556,3.2122178888888886
957,1715673308110,5.56256836,1.00261952,0.58757088,-5.01841064,1.15624576,2.9307481199999996
958,1715673308120,5.75445752,1.0346457599999999,0.63979344,-4.49984708,0.9527054400000001,2.69965776
959,1715673308130,6.2089108600000005,1.58633646,0.6530746639999999,-2.64309174,0.009346239999999995,2.30216778
960,1715673308140,6.491191655555556,2.0964774333333334,0.7123857811111111,-1.2716009111111113,-0.7756970500000001,1.6014171777777777
961,1715673308150,6.610477090000001,2.29796346,0.8127669599999999,-0.610239135,-1.13326192,0.661124188
962,1715673308160,6.62996,2.318367,0.9323715,-0.127533387,-1.2210890500000002,-0.8330827700000001
963,1715673308170,6.3808177,2.05309539,1.11996778,-0.06414085,-0.7296785,-2.4518604
964,1715673308180,5.757897,1.5945443,1.1640923,-0.12370021,-0.023518313,-3.5747833
965,1715673308190,5.2016454,1.2682447,1.0970153,-0.1421789,0.601855,-4.330882
966,1715673308200,4.820891,1.0094491,0.9790205400000002,-0.21716260000000004,1.099252,-4.9055533
967,1715673308210,4.47570012,0.7858750999999999,0.9031624279999999,-0.21384865299999997,1.21363655,-5.262069390000001
968,1715673308220,4.14541292,0.62885988,0.8859053400000001,-0.1210276795,1.24259156,-5.6522289
969,1715673308230,3.9438890222222227,0.5435141222222222,0.9098362844444444,0.03955352333333334,1.1776463666666668,-5.8250071666666665
970,1715673308240,3.42043112,0.271064598,1.069964846,0.772897252,0.86467978,-6.3947815
971,1715673308250,3.22298072,0.1007741692,1.18560578,1.38716806,0.577878515,-6.8378575
972,1715673308260,3.0846922,-0.10714039,1.314467,1.9112446000000003,0.3567453,-7.201643
973,1715673308270,3.0211859444444444,-0.28120203222222223,1.384897888888889,2.3408865555555556,0.20864442000000002,-7.45874931111111
974,1715673308280,2.96718548,-0.473545924,1.43033349,2.6677249,0.12744176200000001,-7.614664299999999
975,1715673308290,2.97662477,-0.692833105,1.41796692,3.2187712500000005,-0.05290093,-7.8408376
976,1715673308300,2.99359524,-0.8588062300000001,1.46961016,3.4533434499999998,-0.22980750560000002,-7.950487530000001
977,1715673308310,3.0207005899999997,-0.9557996689999999,1.5348395700000002,3.5100775499999997,-0.203967906,-8.07301211
978,1715673308320,3.0774762444444446,-1.041490297777778,1.5801328333333333,3.488379888888889,-0.06546439222222222,-8.249124111111112
979,1715673308330,3.11641352,-1.1136137600000002,1.59214166,3.4265874,0.15589281000000002,-8.5167438
980,1715673308340,3.08835094,-1.23232804,1.53537014,3.3680360800000004,0.545853921,-9.133947299999999
981,1715673308350,3.05331833,-1.3920324800000001,1.46648194,3.3953416000000005,0.70325863,-9.508728
982,1715673308360,3.0282257,-1.5610667,1.369897,3.4972036,0.7350236,-9.708023
983,1715673308370,3.0199933,-1.7069288,1.2701961,3.5224018,0.601855,-9.79049
984,1715673308380,2.99667482,-1.7793232799999998,1.16170202,3.46204836,0.43069054399999995,-9.7915892
985,1715673308390,2.97621,-1.8448638,1.0718918,3.3191364200000004,0.130740432,-9.7484327
986,1715673308400,2.9776739111111112,-1.8566259333333335,1.0503187333333333,3.1766521111111112,-0.06697458555555556,-9.723651444444444
987,1715673308410,3.0402017800000003,-1.8787802800000002,1.06791602,2.9893301,-0.22360722199999997,-9.720912199999999
988,1715673308420,3.13257296,-1.90726978,1.10279598,2.75445248,-0.28447994,-9.739543800000002
989,1715673308430,3.17597795,-1.9088613499999998,1.0899111,2.5700323,-0.23631321600000002,-9.7962626
990,1715673308440,3.17356938,-1.90802602,0.9690870260000001,2.00023252,0.0182801433,-10.102489100000001
991,1715673308450,3.1367954444444446,-1.9610020222222222,0.8636818522222223,1.6207273333333334,0.22118413233333334,-10.304584
992,1715673308460,3.06330686,-2.0857925600000002,0.698784667,0.8680394999999999,0.5879578,-10.530706
993,1715673308470,2.93859836,-2.20721424,0.5118835159999999,0.41914517700000004,0.76718569,-10.488647199999999
994,1715673308480,2.7171099,-2.32485514,0.26927791700000003,0.174646369,0.719752,-10.286604
995,1715673308490,2.454831711111111,-2.3104667333333335,0.18604744444444443,0.05419732122222222,0.4621195755555555,-9.910592999999999
996,1715673308500,2.10928152,-2.10130543,0.255429527,0.0008093965000000002,0.22791381400000002,-9.34019085
997,1715673308510,1.8153498,-1.92931982,0.30956683799999996,0.0466701028,0.399505859,-8.83531075
998,1715673308520,1.57599439,-1.81749635,0.31112790199999996,0.046624289,0.7018383229999999,-8.5073832
999,1715673308530,1.2737126,-1.7311579666666668,0.16519256666666665,-0.06607525933333333,1.2766574333333331,-8.093252
1000,1715673308540,0.96270256,-1.69011078,-0.10603057600000002,-0.2493552004,1.8038545,-7.7913724
1001,1715673308550,0.27556485,-1.7115632,-0.8118157,-0.68416905,2.5557075,-7.387499
1002,1715673308560,-0.09118215300000002,-1.8161790899999999,-1.18766083,-0.9668775249999999,2.46868977,-7.20397978
1003,1715673308570,-0.5878392,-2.0076783,-1.6030204,-1.2873985,1.8742872000000002,-6.832375
1004,1715673308580,-0.91839504,-2.1561259,-1.55291984,-1.11146929,1.15682601,-6.4588003
1005,1715673308590,-1.37664135,-2.37346784,-1.50982584,-0.6200740100000001,0.72799864,-6.13456843
1006,1715673308600,-1.9377555,-2.689933311111111,-1.6791765,0.20638763333333335,0.30830030888888893,-5.6478565666666665
1007,1715673308610,-2.4294832,-3.0134928600000004,-1.8586328600000002,1.0996337999999999,-0.368534992,-4.72930329
1008,1715673308620,-2.68385182,-3.2497261200000005,-1.8643649199999999,1.5457639799999998,-0.859487408,-3.98271918
1009,1715673308630,-2.849136533333333,-3.481964588888889,-1.6326494666666667,2.072920233333333,-1.4995724,-2.4837781000000003
1010,1715673308640,-2.89924228,-3.5945633800000003,-1.16104332,2.2438607999999998,-1.46146458,-0.82375178
1011,1715673308650,-2.83006764,-3.62078458,-0.7812894800000001,1.8781968800000002,-0.33961053999999996,1.07622238
1012,1715673308660,-2.59559664,-3.5741112299999998,-0.7686850850000001,1.0823005,1.0227411,2.4016168
1013,1715673308670,-2.1943352,-3.33489,-0.96688575,0.39171734,1.9879082000000001,3.4074063
1014,1715673308680,-1.92717335,-3.2513603699999996,-1.088392725,-0.19303341,2.50638,4.140139
1015,1715673308690,-1.68279334,-3.18939339,-1.16171407,-0.481117461,2.60355354,4.663528599999999
1016,1715673308700,-1.3830007111111111,-3.129139133333333,-1.1760442333333334,-0.4336634222222222,2.4484156777777777,5.099401211111111
1017,1715673308710,-1.11839452,-3.10905956,-1.13818838,-0.161482224,2.14224338,5.5101878200000005
1018,1715673308720,-0.9500249249999999,-3.09774185,-1.09631395,0.12843441,1.8929950500000001,5.7987911500000004
1019,1715673308730,-0.47353980999999995,-3.10668118,-0.984740428,0.9596387399999999,1.21803474,6.695846739999999
1020,1715673308740,-0.10310899666666666,-3.1569254,-0.8603686488888889,1.3383548333333333,0.9121745444444446,7.370598444444444
1021,1715673308750,0.5785947292,-3.194223,-0.6303172800000001,1.51436542,0.69714994,8.5706228
1022,1715673308760,1.222595716,-3.17831959,-0.425811457,1.0639134399999999,0.77996802,9.65613005
1023,1715673308770,1.8007757999999998,-3.1502447,-0.2566613,0.2518292,0.9242391,10.522306
1024,1715673308780,2.445312066666667,-3.0131093222222223,0.028829597777777778,-0.9137016444444446,1.1275893222222222,11.320775333333334
1025,1715673308790,3.1622821500000002,-2.78966886,0.37854646200000003,-2.4115738799999997,1.47421639,11.9876812
1026,1715673308800,3.7226988999999997,-2.4849316000000004,0.721871404,-3.9333764200000005,1.9402455200000002,12.148552599999999
1027,1715673308810,4.053407,-2.1859202,0.96841013,-5.055979,2.2783747,11.715021
1028,1715673308820,4.099141666666666,-2.0452209999999997,1.08069311,-5.417713,2.3399702333333336,11.410708333333334
1029,1715673308830,4.06639572,-1.93008824,1.16606804,-5.54772556,2.16066096,10.7380028
1030,1715673308840,3.91804548,-1.8819391199999997,1.05472004,-5.07864188,1.47667512,10.102886799999999
1031,1715673308850,3.7816636444444445,-1.8417945,0.8867455222222222,-4.030064577777778,0.06215552222222219,9.835117222222223
1032,1715673308860,3.755585,-1.7716278,0.8873079,-3.455410133333334,-0.768723,9.748696666666667
