id,timestamp,acc_x,acc_y,acc_z,gyro_x,gyro_y,gyro_z
0,1715673359690,1.547996805,0.8623809277777778,0.5961933293333334,-0.3074349055555555,-0.42285446555555556,1.2358143044444447
1,1715673359700,3.9525598000000004,2.52032382,0.217970027,-1.3207517359999998,-2.2215183099999996,8.9335833
2,1715673359710,4.07713411,2.77659502,0.08136450399999999,-0.49113566,-2.4492643,8.412531
3,1715673359720,4.05554786,2.81463986,-0.0424536987,0.304042902,-2.8869644,7.48112914
4,1715673359730,3.74532828,2.60512766,-0.0172205156,0.309617042,-3.19555828,6.75723852
5,1715673359740,3.5996614,2.3633087,0.02268425,-0.48935395000000004,-3.164825,6.496874333333333
6,1715673359750,3.4506586599999998,2.0168981599999998,0.11757393199999999,-1.0218248,-3.068529,6.451653500000001
7,1715673359760,3.1736304,1.6422299500000002,0.256386915,-2.3858105000000003,-2.8070785999999996,6.6462138
8,1715673359770,3.09819298,1.5645608,0.32351888,-2.84434119,-2.7757106499999997,6.7897672
9,1715673359780,3.066974266666667,1.603487877777778,0.43617721111111113,-2.9964976,-2.8648561666666668,6.982698766666666
10,1715673359790,2.98827196,1.8912566300000002,0.678868872,-2.6493989,-2.9373455,6.99921765
11,1715673359800,2.8403791800000002,2.05388194,0.84120764,-2.2821772,-2.8706543000000004,6.77348765
12,1715673359810,2.67325968,2.1192944,0.9260723499999999,-1.9275852,-2.7414105,6.430120499999999
13,1715673359820,2.4158118,2.1667118,0.9484090000000001,-1.313190622222222,-2.3701401888888887,5.583325388888889
14,1715673359830,1.8665600999999998,2.0011898599999998,0.9143094680000001,-0.3563177092,-1.9511647,4.26008254
15,1715673359840,1.50428284,1.8348022199999998,0.93070066,0.028710669199999993,-1.70981184,3.81790768
16,1715673359850,1.09891768,1.6253081899999997,0.847415314,0.301904884,-1.26711779,3.5477067599999996
17,1715673359860,0.7102853299999999,1.573293,0.76117245,0.37659843499999995,-0.7994699,3.5594355
18,1715673359870,0.62393886,1.6000324,0.7079681,0.3565926,-0.5885687,3.6004398000000006
19,1715673359880,0.41559133499999995,1.7343451399999998,0.584058438,0.146745104,-0.35946365869999997,3.54280471
20,1715673359890,0.21170442125,1.871222025,0.4717195725,-0.29317715,-0.0216857145,3.12461395
21,1715673359900,0.08266064888888888,1.9191159777777775,0.4198821933333334,-0.4078374022222222,0.061493769,2.707235966666667
22,1715673359910,-0.11366516,1.9448086,0.3216651,-0.40546182000000003,0.08002335,2.2979224
23,1715673359920,-0.504285532,2.00698292,0.13242236,-0.305860232,-0.29712485199999994,1.5418239200000001
24,1715673359930,-0.6539405911111111,2.0608789666666665,0.12920807888888888,-0.31070982888888893,-0.5646431111111111,1.2209160333333333
25,1715673359940,-0.816694,2.27623035,0.2628507,-0.42439862799999994,-0.801577368,0.928942786
26,1715673359950,-0.9167913249999999,2.5443253500000003,0.39904766999999997,-0.748218284,-0.855150248,0.65136561
27,1715673359960,-1.020425425,2.8678198000000004,0.47777177000000004,-1.0923492399999999,-0.7064961879999999,0.3056769532
28,1715673359970,-1.09853974,3.11482804,0.47263732799999997,-1.43715216,-0.510897138,-0.2631912872
29,1715673359980,-1.136238411111111,3.231814533333333,0.42457086777777775,-1.6407331666666667,-0.4520402833333333,-1.0081312666666666
30,1715673359990,-1.11588219,3.33838972,0.346880015,-1.7501288899999998,-0.5466327710000001,-1.8313129199999998
31,1715673360000,-1.00498548,3.31149784,0.42892744,-1.7613688799999998,-0.774821496,-2.66160108
32,1715673360010,-0.8239506000000001,3.2601292,0.5957664,-1.7788396,-0.89919364,-3.2910365999999995
33,1715673360020,-0.43685475,3.1867104,0.90419906,-1.8457294000000002,-0.8081747,-4.004069
34,1715673360030,0.041868289999999996,3.0515562000000003,1.19697228,-1.86350552,-0.35857791,-4.7369544
35,1715673360040,0.465990573,2.97200275,1.3712995500000003,-1.7445394799999998,0.234327912,-5.200875999999999
36,1715673360050,1.23955405,3.03889685,1.4651770000000002,-1.4410311,1.07329028,-5.6586739999999995
37,1715673360060,1.6429821,3.146843577777778,1.4685884111111112,-1.2538518,1.5131472222222222,-5.994115111111111
38,1715673360070,2.4155556799999998,3.41033306,1.49442872,-0.96058554,2.2657908200000003,-6.843065200000001
39,1715673360080,2.8695151,3.5342975100000005,1.53852883,-0.860815987,2.6047446,-7.29121136
40,1715673360090,3.69353865,3.5844166,1.66448735,-0.719843604,3.28892908,-7.93376528
41,1715673360100,4.118024733333333,3.6020395666666665,1.6953631,-0.5740097222222222,4.2252362,-8.222840444444444
42,1715673360110,4.475852359999999,3.63162057,1.64952299,-0.48959323999999993,4.72799031,-8.2893349
43,1715673360120,4.773729940000001,3.71986955,1.52699145,-0.352805205,5.2295867199999995,-8.369862099999999
44,1715673360130,5.0611795,3.81040525,1.37444,-0.272033565,5.58098698,-8.51307955
45,1715673360140,5.208627,3.7799462,1.35379855,-0.46013424999999997,5.7697747999999995,-8.546615749999999
46,1715673360150,5.297300833333334,3.7027770666666666,1.3514406666666667,-0.5788966333333333,5.9190803333333335,-8.444601333333333
47,1715673360160,5.2477694999999995,3.5328890799999995,1.33567552,-0.35857790500000003,5.9347085,-8.23339475
48,1715673360170,5.0325132,3.13213402,1.26325664,0.31007517399999995,5.759359720000001,-8.0800977
49,1715673360180,4.758058,2.5774431,1.0973200799999998,1.59168575,5.40676835,-7.786928349999999
50,1715673360190,4.527838555555556,2.2366889333333333,0.9302168222222222,2.289811444444444,5.153819022222223,-7.5684678
51,1715673360200,4.1561265800000005,1.8481505400000002,0.72807904,3.68067682,4.38706595,-7.02603482
52,1715673360210,3.7524809500000003,1.43726076,0.562904804,4.455253900000001,3.77797245,-6.571917600000001
53,1715673360220,3.38562454,1.104052216,0.482698886,4.48094118,3.2946405999999997,-5.924797
54,1715673360230,2.8778778222222225,0.5171168666666667,0.3103704111111111,3.1851532,3.2678234666666666,-5.152597233333334
55,1715673360240,2.50765852,0.13715433999999999,0.13247114799999998,2.12868216,3.5059389199999997,-4.88041622
56,1715673360250,1.9202646,-0.61241378,-0.256112505,1.39979775,3.57623425,-4.59699015
57,1715673360260,1.56975625,-1.13256608,-0.48057679999999997,1.4127022500000002,3.2620204,-4.0709587
58,1715673360270,1.3254703444444447,-1.4738393888888888,-0.5875681611111111,1.8322902444444447,2.727615111111111,-3.335663522222222
59,1715673360280,1.1837093600000002,-1.6476571,-0.6116576699999999,2.27328916,2.22726045,-2.6557060800000003
60,1715673360290,1.1239071,-1.7253444999999998,-0.6096087,2.54685,1.890628,-2.1923954
61,1715673360300,1.0639401400000001,-1.77238392,-0.544836676,2.69177774,1.3802195400000001,-1.45914334
62,1715673360310,1.0445183,-1.7678409000000002,-0.467887054,2.44750801,1.01061545,-0.8474991700000001
63,1715673360320,1.0394644666666666,-1.7380349444444445,-0.3909713288888889,2.0374391888888885,0.8581468444444444,-0.5668489844444444
64,1715673360330,0.9973143350000001,-1.70923384,-0.33781238999999996,1.09262413,0.6955311519999999,-0.354026957
65,1715673360340,0.926590694,-1.7164050199999998,-0.254307524,0.351171157,0.55764359,-0.14515684499999998
66,1715673360350,0.9088335649999999,-1.74025405,-0.19476746,-0.05207626300000001,0.409661485,0.18157969499999999
67,1715673360360,0.9467693833333333,-1.7452035555555556,-0.17004379111111112,-0.2734470444444444,0.197530054,0.6169569055555555
68,1715673360370,1.05216505,-1.7140634,-0.12174490499999999,-0.371375536,-0.06469062960000001,1.0896003
69,1715673360380,1.1561771799999998,-1.66706068,-0.0693333132,-0.457843524,-0.315603532,1.5186721
70,1715673360390,1.26057354,-1.58417786,0.013110522199999999,-0.5907678,-0.507842828,1.8394068799999999
71,1715673360400,1.3333095,-1.5033194,0.09177365,-0.7268957111111111,-0.6236594777777777,2.0376427444444447
72,1715673360410,1.3339802,-1.3009906,0.20385335,-0.9245446000000002,-0.6771441,2.1838431
73,1715673360420,1.2343159099999998,-1.10849151,0.24952065,-1.1324219599999998,-0.68636816,2.24900722
74,1715673360430,1.10078368,-0.9961922839999999,0.259100478,-1.2268006,-0.713673836,2.32657186
75,1715673360440,0.999062311111111,-0.96349792,0.25151873999999996,-1.2430258666666667,-0.7412001244444445,2.4196033000000003
76,1715673360450,0.85663532,-0.9510616000000001,0.181138615,-1.20844412,-0.7837095599999999,2.6639223000000003
77,1715673360460,0.786984916,-0.932505628,0.10557932519999999,-1.18495634,-0.820697444,2.95469416
78,1715673360470,0.726981433,-0.887100499,0.006244266599999995,-1.18188674,-0.890794262,3.24122056
79,1715673360480,0.6919102933333333,-0.8006767666666667,-0.09592023,-1.2105821666666667,-1.0481429333333334,3.5463272999999997
80,1715673360490,0.71046224,-0.704967975,-0.162783882,-1.25702327,-1.24016331,3.7803700900000003
81,1715673360500,0.7353478,-0.62241435,-0.20696328999999997,-1.289842,-1.3929255,3.9133556
82,1715673360510,0.7999857,-0.5325311,-0.2274523,-1.3255776,-1.590235,4.0132318
83,1715673360520,0.8925995222222222,-0.38361314444444444,-0.21373875222222222,-1.3322801888888889,-1.8445584444444445,4.096139688888889
84,1715673360530,0.9866673499999999,-0.282748188,-0.239001736,-1.16882956,-2.13359948,4.17560002
85,1715673360540,1.0927101000000001,-0.22511069200000003,-0.275174584,-1.00334614,-2.3295651200000003,4.24939258
86,1715673360550,1.23429152,-0.20359724799999998,-0.305956876,-0.8060672419999999,-2.58246344,4.428467599999999
87,1715673360560,1.4816786,-0.15884395777777777,-0.27873578,-0.6912958277777778,-2.8441207111111115,4.850948777777777
88,1715673360570,1.78705554,-0.05993033,-0.21786637299999997,-0.6881702279999999,-3.0302580800000003,5.349102740000001
89,1715673360580,2.70326755,0.34242852,0.00015245250000000404,-0.968313044,-3.16892464,6.45311942
90,1715673360590,3.3276062222222222,0.7099397988888889,0.18126396555555557,-1.3504703222222223,-3.075435088888889,7.340139888888889
91,1715673360600,4.10306876,1.33880978,0.4128045699999999,-2.00434048,-2.73462984,8.302453199999999
92,1715673360610,4.481969,1.7359549,0.49588257,-2.57159,-2.392912,8.788824
93,1715673360620,4.9862666,2.5452094,0.6004009,-3.6129794333333334,-1.9678515333333333,8.822998333333334
94,1715673360630,5.1279331,3.11358402,0.73631125,-4.297559189999999,-1.8237228900000002,8.00193739
95,1715673360640,5.0594902,3.1469397,0.82627994,-4.326086460000001,-1.9262718800000003,7.3183184400000005
96,1715673360650,4.769668555555556,3.073146811111111,1.018426611111111,-3.6490035333333335,-2.314008433333333,6.779637133333333
97,1715673360660,4.45837,3.0088036,1.18964255,-2.6329818499999997,-2.62946935,6.475782699999999
98,1715673360670,4.12788716,2.9509039,1.2823553200000002,-1.94346782,-2.5323113200000003,6.30183868
99,1715673360680,3.8380530800000003,2.9275977,1.2714644800000001,-1.46384697,-2.288118,6.16187383
100,1715673360690,3.4086676666666667,2.9410185444444448,1.0918116444444446,-0.9373727,-1.6203540333333333,5.8115851111111105
101,1715673360700,3.07217321,2.90172426,0.912608105,-0.7469049400000001,-1.38791642,5.550352
102,1715673360710,2.7613807,2.8255308,0.75223905,-0.5103779,-1.1779009,5.1051536
103,1715673360720,2.2406185888888888,2.592339544444444,0.51385791,-0.09784024222222222,-1.250118722222222,4.395803422222222
104,1715673360730,1.7783843100000003,2.35237492,0.361508925,0.45317038,-1.55251404,3.79484768
105,1715673360740,1.3474262,2.1015249,0.37429015000000004,0.6871470399999999,-1.6905543299999999,3.61746761
106,1715673360750,1.02319384,1.94247916,0.44334293999999996,1.0784521,-1.72514454,3.30230696
107,1715673360760,0.8367154666666666,1.8820407666666665,0.47553586666666664,1.0374019333333333,-1.5746579,3.205311766666666
108,1715673360770,0.5390863300000001,1.85151055,0.48207081,0.6017786,-1.16858525,3.09586505
109,1715673360780,0.280126108,1.8650723200000001,0.47085674,0.232037156,-0.911395675,3.02845604
110,1715673360790,-0.061601162,1.9126725400000002,0.452233688,-0.8589528699999999,-0.37323867,2.7172813000000002
111,1715673360800,-0.26572688333333333,1.9470038333333335,0.43354154666666667,-1.2869063888888888,-0.1822244908888889,2.500559866666667
112,1715673360810,-0.49590695599999995,1.9909821400000003,0.4108654319999999,-1.65208504,-0.0160962994,1.94297908
113,1715673360820,-0.6728441,2.0044463,0.3734974,-1.6087136000000002,0.009315695,1.5018122
114,1715673360830,-0.9070312333333332,1.9402690333333337,0.26089597333333336,-0.9857328955555555,-0.2588371944444445,0.6470589943333334
115,1715673360840,-1.0990641399999999,1.86587712,0.19753591,-0.276935768,-0.623724,-0.1276708336
116,1715673360850,-1.17905663,1.78370776,0.26157014,0.322078705,-1.0002918,-0.784732765
117,1715673360860,-1.122233488888889,1.697090888888889,0.33237711666666664,0.3753597388888889,-1.0837258222222221,-1.1122667944444444
118,1715673360870,-0.96554415,1.67156095,0.389077575,0.1260826,-1.04897786,-1.3471716
119,1715673360880,-0.78675326,1.6960013799999998,0.441708708,-0.33829716,-0.963304008,-1.5383419200000001
120,1715673360890,-0.6744296,1.7328451,0.47112507,-0.6574437,-0.90667677,-1.6462818
121,1715673360900,-0.40851978666666666,1.8796218333333334,0.6421716333333333,-1.2254635777777778,-0.7166297766666667,-2.0037058888888892
122,1715673360910,-0.300810223,1.93172246,0.734780696,-1.48544096,-0.5013676680000001,-2.278619
123,1715673360920,-0.07524829,2.0274353,0.91407776,-1.7400496,-0.1049161,-2.693763
124,1715673360930,0.13826010111111112,2.052518233333333,0.9130682022222223,-1.8220583111111113,0.7464942866666667,-3.457480311111111
125,1715673360940,0.266991192,2.0106173800000002,0.78130169,-1.4393512000000002,1.3575716500000001,-4.20282915
126,1715673360950,0.442855112,1.8715359,0.628341558,-0.922589756,1.4786604,-4.61438438
127,1715673360960,0.6230173666666666,1.8012364888888888,0.6222043111111111,-0.28615642266666663,1.4235705222222221,-4.968743877777778
128,1715673360970,0.8159683550000001,1.79411081,0.700010335,0.0746477353,1.4299133,-5.209809809999999
129,1715673360980,1.16677545,1.8535837499999999,0.8252006,0.198867188,1.67899362,-5.54225802
130,1715673360990,1.430242,1.91433122,0.8507203560000001,0.07345654800000001,2.03983174,-5.88669436
131,1715673361000,1.7740398333333334,1.9998524111111111,0.8314102822222222,-0.17416446666666666,2.4481611555555554,-6.235525555555555
132,1715673361010,2.00420234,2.0788042,0.8021077480000001,-0.401017755,2.75290992,-6.506905949999999
133,1715673361020,2.19952481,2.1883897400000003,0.82998744,-0.5594303899999999,2.94673752,-6.7244658
134,1715673361030,2.4753070666666668,2.335156566666667,0.9384490666666667,-0.7392487566666667,3.3611842666666667,-7.141523666666667
135,1715673361040,2.65002046,2.54666077,1.0068271100000001,-0.852630439,3.69830039,-7.4974240100000005
136,1715673361050,2.842062822222222,2.9136862444444445,1.1572152333333334,-0.971683,3.970980466666667,-7.900829466666668
137,1715673361060,3.1777769499999997,3.20040025,1.35901215,-0.9889908350000001,4.27964535,-8.114276
138,1715673361070,3.5636347799999997,3.39224678,1.53424804,-0.725585734,4.67965534,-8.1003786
139,1715673361080,3.8579824444444437,3.4735156444444444,1.5965295222222222,0.22929506111111111,5.234181833333333,-7.903052222222223
140,1715673361090,4.0540229,3.4533476800000003,1.42937612,1.32423366,5.52579508,-7.6787747
141,1715673361100,4.1411986800000005,3.3635682099999995,1.21666856,2.47974632,5.4513612799999995,-7.369142200000001
142,1715673361110,4.239088733333333,3.2255336666666667,0.9231229999999999,4.279891622222222,4.904603177777777,-6.78863
143,1715673361120,4.1737497,3.02146295,0.6935343700000001,5.294246960000001,4.14667544,-6.4913594
144,1715673361130,3.9306499500000003,2.65978938,0.55458109,4.97103812,3.5009298,-6.6187248400000005
145,1715673361140,3.34614626,1.85381538,0.478076654,4.09579022,3.5179424,-6.67452768
146,1715673361150,2.5426144111111113,0.9761003222222223,0.3188803944444445,2.6095145666666664,3.8875294222222223,-6.391534
147,1715673361160,1.9549920399999998,0.46745412000000003,0.166399956,1.8866878799999998,4.007489820000001,-5.9199561
148,1715673361170,1.3342547,-0.06043035499999999,-0.020397529999999997,1.5153276,3.89831285,-5.0486485000000005
149,1715673361180,0.9969687466666666,-0.36786699,-0.12897093999999998,1.5534303333333335,3.6527196666666666,-4.2580361333333325
150,1715673361190,0.702388555,-0.645220575,-0.190742845,1.73584995,3.1635947,-3.0988429999999996
151,1715673361200,0.616535962,-0.75272686,-0.177583534,1.7621934799999999,2.83702621,-2.3344062699999997
152,1715673361210,0.62458519,-0.805284808,-0.17074166200000002,1.6650964900000003,2.55343206,-1.5545145999999999
153,1715673361220,0.6373000333333334,-0.8067002033333334,-0.19011272777777777,1.58321,2.4312437,-1.2206615
154,1715673361230,0.65418452,-0.713425755,-0.20363994500000002,1.2462262499999999,2.02208623,-0.47230573800000003
155,1715673361240,0.693979532,-0.68700348,-0.149862414,1.00194124,1.77337242,-0.152349796
156,1715673361250,0.7575442285714286,-0.70297658,-0.01926942,0.5824818057142858,1.5947727571428572,0.11021754428571429
157,1715673361260,0.80791297,-0.78169195,0.11872644000000002,0.214749676,1.61644106,0.260289682
158,1715673361270,0.86288567,-0.85636095,0.137904392,-0.18997909400000002,1.7062688000000001,0.375162888
159,1715673361280,0.90075372,-0.94182325,0.042106117000000005,-0.500451364,1.7265189800000003,0.41157046399999997
160,1715673361290,0.86673754,-1.0114546888888887,-0.10384752222222221,-0.6299548111111111,1.4627507555555554,0.3412191577777778
161,1715673361300,0.82062106,-1.06623296,-0.18738898399999998,-0.603870867,1.2414309,0.27843239
162,1715673361310,0.798351454,-1.1462375999999999,-0.236623568,-0.3936110084,0.7123299596,0.20170769900000002
163,1715673361320,0.8155556933333333,-1.316093,-0.22997277666666666,-0.040317106888888884,-0.030271764666666662,0.3093523488888889
164,1715673361330,0.83962214,-1.4103262,-0.17257105,0.196545886,-0.72256196,0.6608951060000001
165,1715673361340,0.8923217400000001,-1.4406328333333334,0.01440463466666667,0.05353555555555556,-1.161271811111111,1.23693422
166,1715673361350,0.9192852869999999,-1.4152837,0.157490899,-0.15396858200000002,-1.19100392,1.5268270999999998
167,1715673361360,0.924834468,-1.33265084,0.254234352,-0.719874122,-0.96712182,2.0552865799999998
168,1715673361370,0.915358282,-1.2338037,0.216402868,-1.1487015,-0.776195946,2.367225
169,1715673361380,0.8902755333333333,-1.1187441333333334,0.12779200666666665,-1.4805337333333333,-0.7389942433333334,2.5281676666666666
170,1715673361390,0.85398888,-1.00407078,-0.018013244,-1.86558244,-0.88480775,2.68915088
171,1715673361400,0.8094104,-0.9574474566666668,-0.11425462777777777,-1.9853968888888889,-1.2305371333333333,2.8047369
172,1715673361410,0.7929487,-0.9429818400000001,-0.145057236,-1.95715119,-1.54825328,2.92143263
173,1715673361420,0.7911681199999999,-0.935213102,-0.16225337199999998,-1.8462332799999999,-1.79573004,3.0580831699999997
174,1715673361430,0.79339384,-0.895564469,-0.197261512,-1.58982264,-2.12019114,3.31402028
175,1715673361440,0.8011104222222222,-0.7962997977777778,-0.22058874888888888,-1.31728,-2.4214868222222226,3.556321644444444
176,1715673361450,0.84647624,-0.6892353360000001,-0.241026264,-1.15401606,-2.66731256,3.74054176
177,1715673361460,0.93252395,-0.62979282,-0.24638632500000002,-1.14132535,-2.84296675,3.916028
178,1715673361470,1.01917532,-0.587509872,-0.243733731,-1.21572875,-2.91700368,4.08716181
179,1715673361480,1.1516796777777778,-0.4883618333333334,-0.2525147277777778,-1.3791640555555555,-2.9492235,4.335395222222222
180,1715673361490,1.24664596,-0.40035872999999994,-0.277711311,-1.51561782,-2.94415664,4.4971288000000005
181,1715673361500,1.379922,-0.26616186799999997,-0.346288482,-1.65342894,-2.9578706400000003,4.67238636
182,1715673361510,1.49278224,-0.206609608,-0.40897507600000005,-1.7077653600000002,-3.08630504,4.86881004
183,1715673361520,1.6846592399999998,-0.1470024898,-0.47265564,-1.7296190800000002,-3.28466825,5.0907374
184,1715673361530,2.0875269888888885,-0.03034729711111111,-0.3941693488888889,-1.744206877777778,-3.7495758222222224,5.628970588888889
185,1715673361540,2.753690411111111,0.29419740333333333,0.05526067777777777,-1.6949304333333335,-4.042587422222223,6.7647725
186,1715673361550,3.5194278625,0.76903881375,0.346872375,-1.5602262,-3.84371685,7.61329
187,1715673361560,4.097169833333333,1.2107075222222223,0.4573166555555555,-1.4472076555555555,-3.552452911111111,8.293276555555556
188,1715673361570,4.6558996,1.7583160100000002,0.558044753,-1.44228336,-3.34066928,8.6086493
189,1715673361580,5.043526,2.23635,0.65229416,-1.6789632,-2.9846876,8.658404
190,1715673361590,5.2991261000000005,2.68175394,0.771618186,-2.2091178,-2.61946647,8.43224646
191,1715673361600,5.3374456,3.0941235666666667,0.9480430799999999,-3.5592063333333335,-1.9547178666666665,7.653835933333334
192,1715673361610,5.0842725,3.09802216,1.0648792,-4.29018309,-1.54526004,6.89906632
193,1715673361620,4.7760105,2.9918208,1.1526892,-4.3815837,-1.3833044,6.550461
194,1715673361630,4.024393399999999,2.52818406,1.15318922,-2.78380464,-1.23636076,5.786787599999999
195,1715673361640,3.7044357000000003,2.2947802,1.065830492,-0.9232006399999999,-1.31977442,5.657467199999999
196,1715673361650,3.453168877777778,2.296753311111111,0.9477450022222222,1.3184848,-1.389056677777778,5.685390999999999
197,1715673361660,3.1472080599999996,2.38707836,0.729908484,3.8111271600000003,-1.122128964,5.4178248799999995
198,1715673361670,2.8925164,2.45743,0.44408082000000004,4.5527787,-0.93859446,5.2429037
199,1715673361680,2.57451,2.4849621500000003,0.144795040832,5.1522665000000005,-0.38744128499999997,4.3468407
200,1715673361690,2.313705433333334,2.429044188888889,-0.038064552039111105,4.6903759,-0.13327043533333333,3.780288633333333
201,1715673361700,1.99725076,2.2559853199999997,-0.180644686,3.79561106,0.09202685120000001,3.30643028
202,1715673361710,1.7951840099999998,2.1608637600000002,-0.21471373700000002,2.4974614,0.295475508,3.068987
203,1715673361720,1.2758062049999999,2.02845369,-0.157070132,0.6407671399999999,0.58566703,2.85605458
204,1715673361730,0.8887470000000001,1.9734809600000003,-0.1252756,-0.9505674199999999,0.79702646,2.62736196
205,1715673361740,0.44234291000000003,1.9185469666666668,-0.10677452333333333,-2.165619166666667,0.7887797333333333,2.0615174666666665
206,1715673361750,0.006555260000000007,1.81974035,-0.08851126200000001,-2.3012516,0.662972042,1.72105174
207,1715673361760,-0.31150598,1.74649216,-0.0797851436,-2.0137173,0.419664425,1.2625821
208,1715673361770,-0.5322871711111111,1.7051672111111111,-0.09539851555555555,-1.2696834166666666,0.12400563833333332,0.8645609666666667
209,1715673361780,-0.6778200400000001,1.68366525,-0.10896367,-0.6105445378,-0.1437518629,0.56552375
210,1715673361790,-0.810010645,1.6870496,-0.100896132,0.0878576978,-0.49057061199999996,0.1981341371
211,1715673361800,-0.8846044566666666,1.7327839333333332,-0.045144907000000005,0.3122539611111111,-0.7230947799999999,-0.08643743122222222
212,1715673361810,-0.9166875990000001,1.78062219,0.052948215300000004,0.117408296,-0.911685815,-0.46153924
213,1715673361820,-0.909199374,1.78732382,0.174705324,-0.30384438,-0.90084298,-0.79809546
214,1715673361830,-0.853299803,1.76320047,0.32046990399999997,-0.91127351,-0.688735297,-1.26444523
215,1715673361840,-0.7131378444444444,1.7335836222222223,0.3311236533333333,-1.2491685666666665,-0.38097629666666666,-1.7055866333333334
216,1715673361850,-0.618267795,1.76082218,0.299273572,-1.2563513,-0.290099905,-1.9648632899999998
217,1715673361860,-0.40569441,1.8363266500000002,0.25708815500000004,-0.9065240250000001,-0.26626089,-2.5406649
218,1715673361870,-0.23755044600000003,1.86182808,0.244258144,-0.5658903000000001,-0.291840865,-3.00820585
219,1715673361880,-0.04444703333333334,1.8528858444444447,0.2678001755555555,-0.21967393333333332,-0.2993579055555556,-3.5531316444444445
220,1715673361890,0.024391668,1.8446197999999998,0.28446782,-0.09621128,-0.29046643,-3.7775908
221,1715673361900,0.0629731866,1.82934452,0.298791824,-0.062262443,-0.272186284,-3.8929069600000004
222,1715673361910,0.25733887777777775,1.7299112777777779,0.36228401111111114,0.032732196666666664,-0.13087787666666667,-4.361730666666666
223,1715673361920,0.42556142799999996,1.6711829000000002,0.38005875600000005,-0.027305676,0.181610234,-4.695201880000001
224,1715673361930,0.8029127199999999,1.63349772,0.403072288,-0.11914927,0.65811566,-5.08465908
225,1715673361940,1.0148831166666665,1.5994293333333334,0.39149980333333334,-0.08603019111111111,0.9665246000000001,-5.418815811111111
226,1715673361950,1.2414261199999999,1.5644570999999998,0.38731528800000004,-0.0253509072,1.1332772800000002,-5.67713714
227,1715673361960,1.4890807499999998,1.5485963999999999,0.43023851999999996,0.012217305000000001,1.31473475,-5.972658699999999
228,1715673361970,1.70759965,1.6051241,0.507499135,-0.081168719,1.5908457999999999,-6.26526315
229,1715673361980,1.9146239777777778,1.7285900333333333,0.5960307344444444,-0.2566143155555556,1.928331888888889,-6.553141722222223
230,1715673361990,2.08174955,1.8802743399999997,0.6739905690000001,-0.434936068,2.20030606,-6.762675079999999
231,1715673362000,2.2754833249999997,2.090274275,0.7654410025,-0.779502225,2.677575025,-7.10860055
232,1715673362010,2.446186111111111,2.3367352555555554,0.8446224444444445,-1.0298169666666666,3.0527821222222222,-7.307424633333334
233,1715673362020,2.64965472,2.66156999,0.94845168,-1.1548407,3.2469015,-7.377877700000001
234,1715673362030,3.015054,3.1490252,1.1491524,-1.2504412,3.6763399,-7.415293
235,1715673362040,3.46530578,3.343195,1.26542146,-1.015594021,4.0020988299999996,-7.3552604200000005
236,1715673362050,3.8982558888888885,3.3880297222222224,1.391558188888889,0.09437867444444445,4.144890333333333,-7.107603844444444
237,1715673362060,4.0710424,3.2103214199999996,1.44447452,1.3733472580000001,3.98253596,-6.810872720000001
238,1715673362070,4.1324365,2.9715148,1.3894408,3.0670016999999996,3.6793942,-6.3766696000000005
239,1715673362080,4.06440804,2.80211468,1.21169264,4.0694316,3.436728,-6.0981151
240,1715673362090,3.8430020111111114,2.4906940555555557,0.9363621888888889,4.562348777777777,3.2032755555555554,-5.984714777777778
241,1715673362100,3.6862519,2.265376,0.81199855,4.487263,3.14168,-6.029087
242,1715673362110,3.12996337,1.46913443,0.521426746,3.3770463800000003,3.2330960400000004,-6.04640522
243,1715673362120,2.5613892,0.7836229800000001,0.3418898733333333,2.565481333333333,3.2841135333333336,-5.773745566666666
244,1715673362130,2.12062374,0.34071502119999997,0.26875959399999994,1.7687603199999997,3.2926553999999997,-5.25670928
245,1715673362140,1.6241985199999998,-0.0989569938,0.222214188,1.041403055,3.3492518000000002,-4.41496752
246,1715673362150,1.22690086,-0.44745293999999997,0.1159092032,0.817826378,3.3760384,-3.7305236
247,1715673362160,0.9282181377777778,-0.7136391944444445,-0.03538824277777777,0.8615066388888889,3.261019344444444,-2.9772555555555558
248,1715673362170,0.68293618,-0.9155716999999999,-0.16991845,1.11230925,2.9657508,-2.2045364
249,1715673362180,0.5340250500000001,-1.0593606,-0.22422040000000001,1.36177135,2.6262624000000003,-1.4517976000000001
250,1715673362190,0.4780156933333333,-1.1517135666666667,-0.23842855000000002,1.4887295,2.404518266666667,-0.8001825133333333
251,1715673362200,0.47646682599999995,-1.21141829,-0.25795409,1.52801831,2.27554936,-0.21024453599999998
252,1715673362210,0.5055783,-1.2232422,-0.26452765,1.476614,2.1676552,0.3454443
253,1715673362220,0.5970104430000001,-1.19031336,-0.23653819,1.23910967,1.99474999,0.9262855350000001
254,1715673362230,0.73906749,-1.12655358,-0.181437409,0.96428134,1.87312669,1.217133765
255,1715673362240,0.924761264,-1.13478578,-0.134666387,0.145080492,1.66744828,1.13306346
256,1715673362250,0.9471013400000001,-1.1948800444444445,-0.14284030555555555,-0.2025187977777778,1.5646464111111111,0.9059301866666666
257,1715673362260,0.808370365,-1.3955083,-0.217878565,-0.487653731,1.38571723,0.484156515
258,1715673362270,0.6526261777777778,-1.5570218,-0.2804364088888889,-0.7136602766666668,0.8305222177777778,0.08445212155555554
259,1715673362280,0.52362812,-1.75531585,-0.30901192,-0.8487209050000001,0.260915817,0.2123520355
260,1715673362290,0.472582464,-1.89920225,-0.29212069900000004,-0.971535375,-0.1703855822,0.6165004919999999
261,1715673362300,0.46792974000000004,-1.9723710799999998,-0.22322033800000002,-1.1369882399999998,-0.61511074,1.34889737
262,1715673362310,0.48893096999999996,-1.9516991,-0.16885132,-1.2414309,-0.82741696,1.844813
263,1715673362320,0.5520565989999999,-1.79028741,-0.0838707474,-1.43113501,-1.002414613,2.5696351300000004
264,1715673362330,0.6489403,-1.572287,-0.06055231400000001,-1.6660127299999998,-1.0955868500000001,3.15379039
265,1715673362340,0.7365267177777778,-1.3619357666666667,-0.13589546666666666,-1.9539881888888888,-1.3035355666666666,3.526592977777778
266,1715673362350,0.809144768,-1.18009322,-0.210817172,-2.15901156,-1.62352708,3.6496144799999994
267,1715673362360,0.85753784,-1.0815509799999998,-0.242721484,-2.26148418,-1.92126286,3.71030376
268,1715673362370,0.8881982,-1.01703502,-0.270406032,-2.29639518,-2.25494792,3.787456
269,1715673362380,0.9309324,-0.9752154799999999,-0.313091456,-2.22956654,-2.5546689000000002,3.91543226
270,1715673362390,0.9967789944444445,-0.90319636,-0.37491348333333335,-2.0564777666666667,-2.8161905666666667,4.1035379999999995
271,1715673362400,1.07536756,-0.782728604,-0.38085149399999996,-1.78474966,-3.09302465,4.335341
272,1715673362410,1.16149462,-0.659081144,-0.343367598,-1.52424621,-3.3013754,4.56210961
273,1715673362420,1.2307493555555555,-0.5674924533333333,-0.3123352877777778,-1.4230106,-3.3589952,4.6761737
274,1715673362430,1.43649848,-0.335934236,-0.295383098,-1.3857478,-3.37457238,5.07283868
275,1715673362440,1.62141167,-0.16803418579999999,-0.321616346,-1.60313947,-3.41131587,5.29600304
276,1715673362450,1.8917024666666669,0.008435451111111113,-0.3399317666666667,-2.106976011111111,-3.598742888888889,5.42648548888889
277,1715673362460,2.24667988,0.13237357700000002,-0.25619788,-2.6601654,-3.8621345399999996,5.48984596
278,1715673362470,2.6186467,0.213049013,-0.073790893,-3.17292576,-4.06298712,5.57918509
279,1715673362480,3.1278654,0.45527045,0.20351797,-3.6429713,-4.0625595,5.85712865
280,1715673362490,3.5322997,0.7879931,0.4109792666666667,-3.7999382333333336,-4.026467433333334,6.144642666666666
281,1715673362500,4.0799821000000005,1.31486938,0.727493656,-3.64255894,-4.027526180000001,6.49914816
282,1715673362510,4.48735966,1.7074533000000003,1.007070912,-3.31201972,-4.006329200000001,6.703238260000001
283,1715673362520,4.8423557,2.1785620999999997,1.3740842,-2.7550190888888886,-3.8175174666666667,6.7830986555555555
284,1715673362530,4.9516306,2.4464843,1.5428339,-2.382527,-3.5547776,6.668358
285,1715673362540,4.810293069999999,2.65982591,1.6084901299999999,-1.86518537,-2.738402,5.94768942
286,1715673362550,4.34672918,2.6346172,1.5142835,-1.46461054,-1.79643258,5.11083442
287,1715673362560,4.0612124666666665,2.5396604000000003,1.4033136,-1.2214759866666667,-1.4168511,4.843499666666666
288,1715673362570,3.7224854,2.4275805999999998,1.2351818399999999,-0.721706736,-1.0696556400000001,4.67779228
289,1715673362580,3.4780932,2.38789542,1.1447619999999998,-0.16780467400000001,-0.90435544,4.57626632
290,1715673362590,3.07882606,2.29468259,0.9800510900000001,1.015044271,-0.5787948199999999,4.27297188
291,1715673362600,2.897669,2.2614734,0.8666359,1.6181821,-0.4109596,4.105778
292,1715673362610,2.52347652,2.2232759799999995,0.61331625,2.60196518,-0.1550834147,3.79109075
293,1715673362620,2.3274528625,2.188305975,0.46886119374999996,2.9509373,-0.052687127,3.6198347
294,1715673362630,1.9821279000000003,2.1217701,0.240014,3.1481789888888887,0.09188431033333333,3.254808833333333
295,1715673362640,1.52730856,2.01083063,0.016946112000000003,2.5885720599999997,0.163207923,2.78976054
296,1715673362650,1.2091253800000001,1.90807467,-0.078961921,1.610149178,0.17038559,2.3284045200000003
297,1715673362660,0.8785336777777778,1.7600620333333334,-0.05534875555555555,0.5243259888888889,0.18239417777777778,1.948201977777778
298,1715673362670,0.557837425,1.61302095,0.010214010999999999,-0.3894266,0.277485525,1.6029867500000001
299,1715673362680,0.3002410902222222,1.4998436444444443,0.045693722444444446,-0.9036903,0.3537758022222222,1.3655722333333333
300,1715673362690,-0.0913589956,1.32485783,0.0449965242,-1.2935835399999998,0.37212384000000004,0.96057034
301,1715673362700,-0.298212536,1.2296937,0.0453563032,-1.2980886999999999,0.30833423,0.71101662
302,1715673362710,-0.5415437759999999,1.13120014,0.0219159138,-1.0145861219999999,0.179548569,0.429988045
303,1715673362720,-0.6789013844444445,1.080550811111111,-0.018693502666666667,-0.75502944,0.1142318,0.31047225
304,1715673362730,-0.797448988,1.0451585600000002,-0.12506826799999998,-0.102747532,-0.08750644399999999,0.070738196
305,1715673362740,-0.8234932,1.0750993100000001,-0.171644152,0.309113081,-0.370169058,-0.134863779
306,1715673362750,-0.74806806,1.20713136,-0.1248487496,0.37771325899999997,-0.59757894,-0.295002104
307,1715673362760,-0.68531442,1.32712005,-0.046618574499999996,0.078877975,-0.69348478,-0.513661325
308,1715673362770,-0.5983818066666667,1.4425977444444444,0.072002852,-0.37213571666666667,-0.6657752222222222,-0.7551821777777777
309,1715673362780,-0.512298168,1.5494685,0.16228996,-0.8460483599999999,-0.546342572,-0.98323345
310,1715673362790,-0.42835424800000005,1.68140292,0.223281316,-1.28675708,-0.371955838,-1.2361775000000002
311,1715673362800,-0.3112986466666666,1.8409001,0.24430288000000003,-1.5521237777777779,-0.21037520555555556,-1.5658003000000003
312,1715673362810,-0.20961250222222222,1.9168666333333333,0.24609159555555551,-1.6643702777777778,-0.11070235422222222,-1.9860417666666668
313,1715673362820,-0.042374426,1.96275471,0.27315617,-1.6484046200000002,-0.0088880878,-2.80124481
314,1715673362830,0.072955476,1.9349422,0.317664868,-1.43812952,0.055191676,-3.43324594
315,1715673362840,0.22195196,1.8050322,0.40376135900000004,-1.01602157,0.101647974,-4.03229106
316,1715673362850,0.37256914444444444,1.6554490222222222,0.4956115811111111,-0.2684243577777778,0.1897584888888889,-4.569068388888889
317,1715673362860,0.54844663,1.56170695,0.586650105,0.25479189199999996,0.400849764,-4.882157080000001
318,1715673362870,0.703101992,1.54371811,0.624383989,0.507735926,0.651273972,-5.12726704
319,1715673362880,0.9884235,1.61208186,0.633915042,0.41358632800000006,1.06394398,-5.454996100000001
320,1715673362890,1.3044256666666665,1.7209743666666668,0.5978804166666666,0.06551529666666667,1.4949908666666667,-5.8543796666666665
321,1715673362900,1.60602056,1.86682846,0.55234931,-0.369603998,1.823616,-6.3158271599999996
322,1715673362910,1.7916656199999998,2.04810728,0.57092356,-0.66975264,1.99997282,-6.74941936
323,1715673362920,1.8952867777777778,2.2093157777777774,0.6382418444444444,-0.8242608555555555,2.0894815111111114,-7.074939377777778
324,1715673362930,2.01240399,2.37783379,0.8461774500000001,-0.845055676,2.19172336,-7.36115523
325,1715673362940,2.2447041666666667,2.631921866666667,1.1160001333333334,-0.6747176244444444,2.589135333333333,-7.434959788888889
326,1715673362950,2.59541976,2.99407708,1.31854648,-0.467663166,3.18958696,-7.333926099999999
327,1715673362960,3.1042664777777778,3.4060320666666666,1.4099806444444445,-0.3088263133333333,3.8680325555555553,-7.317486777777778
328,1715673362970,3.4501403499999994,3.62740675,1.3533716500000001,-0.111452364,4.30485904,-7.4075045799999995
329,1715673362980,3.59291693,3.6129119600000004,1.26465307,0.323147727,4.52990191,-7.547377540000001
330,1715673362990,3.6861498999999998,3.359301666666666,1.1780362,1.1048516333333334,4.474689866666667,-7.6213584333333335
331,1715673363000,3.6721653699999997,3.12396276,1.12305337,1.75753567,4.324284700000001,-7.51652897
332,1715673363010,3.5112843399999996,2.5954623000000003,0.97228847,3.50254862,3.6603961999999997,-6.904213
333,1715673363020,3.41500408,2.3780289999999997,0.99192374,3.95872753,3.3954943299999996,-6.538609800000001
334,1715673363030,3.2556843666666664,2.1221901777777776,1.006115577777778,4.071586522222223,3.2594071777777778,-5.867852855555555
335,1715673363040,2.8627035100000002,1.69071456,0.7644287700000001,3.36391286,3.5266931,-5.26614733
336,1715673363050,2.4362701,1.2136866579999999,0.46428926299999995,2.4505469300000002,3.7536600800000004,-4.9786588
337,1715673363060,1.8844595,0.5520918377777778,0.15318644333333334,1.8548583444444446,3.6244162444444448,-4.667859055555556
338,1715673363070,1.4959714,0.13116619499999999,0.032562875000000005,1.6618589400000001,3.3636378799999997,-4.27049798
339,1715673363080,1.20831435,-0.186858459,-0.0223244735,1.58956302,3.0052737499999997,-3.6394893500000003
340,1715673363090,1.000265624,-0.48038167200000004,-0.0313432918,1.68931726,2.61059378,-2.7554604400000002
341,1715673363100,0.9575761733333334,-0.61861332,0.006301179999999999,1.8182403666666669,2.3654229333333334,-2.0486383999999997
342,1715673363110,0.9845696499999999,-0.72028593,0.0489052905,1.89850806,2.24996932,-1.4405424
343,1715673363120,1.0020341,-0.78835086,0.0467344322,1.87083588,2.2467622599999997,-1.1114998980000002
344,1715673363130,1.03088327,-1.00093038,-0.0087688059,1.68559105,2.24210447,-0.790505432
345,1715673363140,1.0669592777777777,-1.224122988888889,-0.0908183111111111,1.3740734666666665,2.180653133333333,-0.51173538
346,1715673363150,1.0499393,-1.4144423,-0.20854875,0.73143479,1.9042197,-0.38881573
347,1715673363160,1.0260355,-1.4825865,-0.25245374,0.48395798,1.7730364,-0.42730024
348,1715673363170,0.9243019000000001,-1.7020301666666666,-0.29383151444444444,-0.07888645566666666,1.3687623444444443,-0.5625899422222223
349,1715673363180,0.85381812,-1.83532654,-0.313920768,-0.391961684,1.09992392,-0.569204256
350,1715673363190,0.7715694,-1.9569435,-0.32440916,-0.641713974,0.74820299,-0.3857461306
351,1715673363200,0.676216269,-2.11509284,-0.342215082,-0.85070622,0.215711781,0.24289529199999998
352,1715673363210,0.5976703611111112,-2.2142889555555554,-0.3678941044444444,-0.9280061333333334,-0.02504547622222222,0.6183992522222223
353,1715673363220,0.575814108,-2.2027626000000002,-0.355532948,-1.04070058,-0.322781196,1.121029372
354,1715673363230,0.59747386,-2.139393,-0.29489526,-1.2377657,-0.73548174,1.8629863
355,1715673363240,0.69089395,-1.9828595,-0.1806203,-1.5370727444444445,-1.0821647222222222,2.7291083
356,1715673363250,0.875441293,-1.64206532,-0.0843585815,-1.7939279899999998,-1.29588959,3.32306111
357,1715673363260,0.957350025,-1.462623425,-0.062069171875,-2.07867905,-1.490110325,3.72707975
358,1715673363270,1.0219227666666666,-1.3115737666666667,-0.07822272222222222,-2.2315417,-1.6354389666666667,3.8837793333333335
359,1715673363280,1.05297614,-1.23088884,-0.106676956,-2.2672569000000005,-1.82132528,4.027892700000001
360,1715673363290,1.07988014,-1.12509612,-0.15543590699999998,-2.1538802400000003,-2.03754102,4.1823802400000005
361,1715673363300,1.1133698200000002,-1.0242792399999998,-0.16285096999999998,-1.8438050799999999,-2.3146906199999995,4.40913352
362,1715673363310,1.1471062111111112,-0.9514037555555556,-0.16654087555555555,-1.553820611111111,-2.4816230999999997,4.606178311111111
363,1715673363320,1.16899503,-0.89532052,-0.17481507400000001,-1.42626345,-2.52818799,4.70326518
364,1715673363330,1.20983892,-0.7638434000000001,-0.207518201,-1.22756426,-2.5825855200000003,4.931362399999999
365,1715673363340,1.32071124,-0.62156066,-0.269357182,-1.24460741,-2.5970325300000003,5.1154009
366,1715673363350,1.408131,-0.5061881,-0.28379703,-1.3831517,-2.640465,5.262604
367,1715673363360,1.54469989,-0.32700078,-0.279510227,-1.71103354,-2.68153042,5.36313705
368,1715673363370,1.81393506,-0.13469079,-0.286736252,-2.04734542,-2.76462352,5.50349866
369,1715673363380,2.0891341199999998,0.016513161,-0.27554047800000003,-2.1527196799999997,-2.92583076,5.71552982
370,1715673363390,2.4879743999999997,0.19077942,-0.198560364,-2.036243,-3.1626021,6.038402700000001
371,1715673363400,2.686958822222222,0.2656184677777778,-0.14391760355555555,-1.8843835333333334,-3.3172189444444444,6.303976511111111
372,1715673363410,3.1570134,0.45142877,0.012622687999999998,-1.65089389,-3.46604948,6.727046509999999
373,1715673363420,3.7887089000000005,0.7599589800000001,0.221488536,-1.4695585599999998,-3.41244602,7.334964650000001
374,1715673363430,4.3251305,1.1140285,0.40227956,-1.4498887,-3.3098207,7.658876
375,1715673363440,4.98202236,1.7862872200000002,0.644055864,-1.59365576,-2.9130331600000003,8.1414288
376,1715673363450,5.49958914,2.5704304000000002,0.8246334660000001,-1.9600528000000002,-2.27800808,7.8493132
377,1715673363460,5.5530341666666665,2.7973651111111106,0.8551176388888888,-2.1713036444444445,-1.9186089333333334,7.202203155555556
378,1715673363470,5.3368357,2.87586905,0.926273575,-2.2254585,-1.5262468500000002,6.159507
379,1715673363480,4.983766266666667,2.826079533333333,1.0345726,-1.8241115111111108,-1.2922175999999999,5.453533444444444
380,1715673363490,4.3381495,2.6317388999999998,1.06987955,-0.7336491749999999,-1.03220955,5.0287955
381,1715673363500,3.9355710999999998,2.46577788,0.9619829800000002,0.345429035,-0.84734643,4.83452501
382,1715673363510,3.4305661,2.2835173,0.66479486,2.0447187,-0.76686495,4.616613849999999
383,1715673363520,3.0631462000000003,2.1889895666666668,0.45606318,3.029161955555556,-0.8024054333333334,4.493999666666666
384,1715673363530,2.8333909499999996,2.13243535,0.364338345,3.8748098399999997,-0.8363050599999999,4.31551854
385,1715673363540,2.39845698,1.9831216900000002,0.212244096,4.31753434,-0.70163984,4.03754436
386,1715673363550,2.0471316333333336,1.8561516333333334,0.084320636,4.0493579,-0.40317106444444445,3.730163733333333
387,1715673363560,1.7108011,1.7529377499999999,-0.0255807615,3.14861328,-0.129014736,3.5173009399999997
388,1715673363570,1.49951428,1.71564896,-0.092163914,1.9874500000000002,0.0608574525,3.2955416499999997
389,1715673363580,1.23515736,1.7219785599999997,-0.16205823800000002,0.8478809399999999,0.171439336,3.04720964
390,1715673363590,1.0072606,1.7707266666666666,-0.19700336999999998,-0.11248404111111111,0.2156015,2.7757037111111114
391,1715673363600,0.7503638875,1.822987475,-0.20979882375,-0.94926549,0.20023017875000002,2.42190885
392,1715673363610,0.48576006888888884,1.8391723333333334,-0.20306741111111112,-1.6701564666666666,0.09071349000000001,1.9694294666666667
393,1715673363620,0.37947336,1.8401682000000001,-0.1832424,-1.9298759999999997,0.01038471,1.7788396
394,1715673363630,0.198072531,1.8662856399999999,-0.085840376,-2.1754286,-0.132206507,1.47403309
395,1715673363640,-0.21346368,1.8498152,0.149581896,-2.32287616,-0.262397168,0.8608313259999999
396,1715673363650,-0.529927272,1.76514564,0.23312945300000001,-2.09395443,-0.22513438400000002,0.18939877600000002
397,1715673363660,-0.8037664066666667,1.7539506111111112,0.20474095555555555,-1.7538281,-0.22634254666666667,-0.2999008966666667
398,1715673363670,-0.92639552,1.7837015999999999,0.21083548,-1.5204130599999999,-0.311083138,-0.663491268
399,1715673363680,-1.000851084,1.8482296999999999,0.278930912,-1.3476451,-0.409508795,-1.0972667
400,1715673363690,-1.01642516,1.9240146599999999,0.4244882,-1.3005321,-0.39599339499999997,-1.4757741000000002
401,1715673363700,-0.9657067666666665,1.9857120555555556,0.582906688888889,-1.2996667000000002,-0.281456162,-1.8082120333333336
402,1715673363710,-0.86729453,2.04117392,0.66963058,-1.3243558700000002,-0.0186008462,-2.14494636
403,1715673363720,-0.7296767,2.0920124,0.7277254,-1.329701,0.20204368,-2.3652701
404,1715673363730,-0.6836374433333333,2.1114037666666667,0.7358762666666666,-1.3072008,0.27931813333333333,-2.4346543
405,1715673363740,-0.2044143569,2.21562914,0.7266216689999999,-0.778257629,0.900491738,-3.2069967499999996
406,1715673363750,0.04847234189999999,2.1812978000000003,0.65276366,-0.22626449,1.1581089,-3.8271319500000005
407,1715673363760,0.27762595599999995,2.14585674,0.5749969399999999,0.396986035,1.17309035,-4.5275042
408,1715673363770,0.6202530111111111,2.1146896111111113,0.5546326288888889,0.7004078866666666,1.1067690444444445,-4.952538988888889
409,1715673363780,0.848354388,2.0663278,0.580265572,0.90278247,1.0386236500000001,-5.658902899999999
410,1715673363790,1.075026162,2.01569084,0.6510989819999999,0.74785178,1.0880732,-6.04747438
411,1715673363800,1.33165094,1.99495784,0.7902534400000001,0.39283218799999997,1.26175742,-6.361123
412,1715673363810,1.5637904666666667,2.010103611111111,0.9063807922222222,-0.005226291111111111,1.5963266222222223,-6.596326555555556
413,1715673363820,1.85190084,2.0608884400000003,1.0031561119999999,-0.24072671799999998,2.0308062700000002,-6.85590871
414,1715673363830,2.14578376,2.17856002,1.08230096,-0.1693165652,2.3426071800000003,-7.146283339999999
415,1715673363840,2.4942104888888887,2.339540355555555,1.1719044666666667,0.06454809533333333,2.6849224777777776,-7.559474222222223
416,1715673363850,2.8894369600000003,2.62573852,1.22020536,0.476047282,3.0908558999999998,-8.2242312
417,1715673363860,3.09247317,2.81040782,1.26023811,0.664086855,3.24525212,-8.5737222
418,1715673363870,3.7385719199999996,3.19201538,1.46715876,0.8086328500000001,3.62472165,-8.914738000000002
419,1715673363880,4.063916033333333,3.3675338,1.537671,0.7919528555555555,3.999215911111111,-8.994906222222223
420,1715673363890,4.406232610000001,3.4844045,1.54461458,0.7648033,4.2218423,-9.033934
421,1715673363900,4.643231444444444,3.4926020222222225,1.4159973333333333,0.7106399077777777,4.797379299999999,-9.116417333333334
422,1715673363910,4.5822795,3.36794055,1.2274802,0.98372212,4.9351039,-9.0414165
423,1715673363920,4.3804752,3.1427688799999998,1.07045272,1.44549044,4.73606886,-8.909714
424,1715673363930,4.2286005,2.9551115,0.9786547000000001,1.7939585,4.5109344,-8.810204
425,1715673363940,3.8204059999999997,2.3376973,0.8436467999999999,2.5880833,3.8634171000000004,-8.56601
426,1715673363950,3.2283862333333335,1.6083932555555556,0.7198387344444445,3.2080436555555556,3.3141814555555555,-8.10921888888889
427,1715673363960,2.702400222222222,1.0804492044444445,0.49005569444444436,3.761046433333333,2.811388488888889,-6.559369011111111
428,1715673363970,2.3082445,0.86447118,0.24568507,3.6535850000000005,2.4082599,-5.08300965
429,1715673363980,2.006031722222222,0.7701804555555555,0.1503746288888889,2.865619711111111,2.136772711111111,-4.118334722222222
430,1715673363990,1.83977205,0.6679048,0.175101685,1.7734372125,1.9964030875,-3.4871051499999997
431,1715673364000,1.7003066100000002,0.523786635,0.209152447,0.640812891,2.00997579,-3.1466738899999998
432,1715673364010,1.44624295,0.16290584749999998,0.22858040000000002,-0.610620918,2.13958608,-2.92302078
433,1715673364020,1.2749186444444445,-0.2361723077777778,0.22779105666666666,-1.181905488888889,2.2964290666666667,-2.692320733333333
434,1715673364030,1.18250808,-0.467466284,0.20892681400000002,-1.1847426,2.35290014,-2.51343566
435,1715673364040,1.0783556,-0.70382154,0.14311811,-0.9091202,2.3577871,-2.2789855
436,1715673364050,1.0165897899999998,-1.103564394,0.0011159203999999985,0.305035565,2.0162676399999997,-1.66605862
437,1715673364060,1.0221260333333335,-1.3823096555555554,-0.06087076066666667,1.402122411111111,1.6348112222222222,-1.0634315555555556
438,1715673364070,1.0201937,-1.47685442,-0.07626055000000001,1.9409632399999999,1.4009279,-0.668683648
439,1715673364080,1.0264867,-1.5352725,-0.0886027348,2.1672887199999997,1.12609958,-0.15891659789999998
440,1715673364090,1.0320520666666666,-1.5293168666666668,-0.080492504,1.8640552000000001,1.0270171833333333,0.07376198016666667
441,1715673364100,1.03008452,-1.54008988,-0.069296724,1.1782368399999998,0.959883093,0.252776042
442,1715673364110,1.0067050800000001,-1.58559254,-0.0621011832,0.03326161200000001,0.930133964,0.35915822
443,1715673364120,0.93250562,-1.6656337799999998,-0.0481491498,-0.643760348,0.91987142,0.42977424
444,1715673364130,0.8551786444444445,-1.7424390444444446,-0.03248157,-1.2705827666666667,0.9027400222222222,0.5646261311111112
445,1715673364140,0.8012053,-1.8067517,-0.038599815,-1.6216946,0.8793405,0.77106464
446,1715673364150,0.6903817400000001,-1.85764498,-0.15675305,-1.76197968,0.57806178,1.7410270799999998
447,1715673364160,0.6761708777777777,-1.7019962333333334,-0.15224465777777776,-1.529589577777778,0.22615588533333333,2.4606161111111113
448,1715673364170,0.704882584,-1.49828246,-0.108347784,-1.1578186499999998,-0.1708895515,3.1939851999999997
449,1715673364180,0.7962964450000001,-1.25229865,-0.05695454099999999,-0.86758135,-0.42760565999999994,3.70451595
450,1715673364190,0.8761486640000001,-1.0880269,-0.05696673719999999,-0.7548461599999999,-0.55924712,3.9987239000000003
451,1715673364200,0.9423856488888889,-0.9246203555555557,-0.10491126888888888,-0.8215458355555555,-0.6515895888888888,4.184749244444444
452,1715673364210,0.966422276,-0.813169416,-0.169558674,-1.024879178,-0.74574428,4.2797525
453,1715673364220,0.9695931200000001,-0.7415554639999999,-0.21650044,-1.3086567,-0.8768665239999999,4.35577466
454,1715673364230,0.977404559,-0.6937722049999999,-0.226616887,-1.55963067,-0.9931447419999999,4.42202279
455,1715673364240,0.99298483,-0.6572335,-0.22665958,-1.7749198888888889,-1.0852530444444444,4.4963413333333335
456,1715673364250,1.0359446499999998,-0.5488734999999999,-0.22156779499999998,-2.0078377,-1.2274573500000001,4.678158649999999
457,1715673364260,1.0864793666666666,-0.48225036666666665,-0.2756732444444444,-1.9503230666666669,-1.3067425444444443,4.811717833333333
458,1715673364270,1.11718096,-0.433232588,-0.333598715,-1.7774652,-1.4241559499999998,4.97450495
459,1715673364280,1.1436033,-0.38209546,-0.39502305,-1.687668,-1.4944818,5.0488014
460,1715673364290,1.1833617,-0.32572023,-0.43008606,-1.59328925,-1.6436093,5.1408892
461,1715673364300,1.24647515,-0.24123359500000002,-0.47341175,-1.46790918,-1.88819972,5.2775551
462,1715673364310,1.5084077333333334,0.009790543333333334,-0.5217174455555555,-1.4644137,-2.401022711111111,5.240290277777778
463,1715673364320,1.73112535,0.0545580613,-0.5369093859999999,-1.6303535,-2.6759257599999997,5.111476049999999
464,1715673364330,2.0357163700000003,0.057357004899999994,-0.47707055800000003,-1.86753718,-2.8484035600000004,5.35121
465,1715673364340,2.3915481099999996,0.1304771224,-0.38089418799999997,-2.0074558,-2.9541442,5.662568
466,1715673364350,3.0946995555555556,0.5563265000000001,-0.1748611422222222,-1.8934277333333336,-3.1800626666666663,6.623764666666667
467,1715673364360,3.7382669999999996,1.0226815999999999,-0.0025306350000000033,-1.6737707499999999,-3.3328808000000003,7.3373315
468,1715673364370,4.22070972,1.4183449199999998,0.139727661,-1.6626835800000002,-3.43758316,7.6147405599999995
469,1715673364380,4.763123366666666,1.8643973666666664,0.36386269,-1.8469680666666666,-3.492146977777778,7.653785044444444
470,1715673364390,5.177619166666667,2.2314648333333333,0.6558716099999999,-2.431158755555556,-3.3135367444444443,7.426424344444445
471,1715673364400,5.40624234,2.5613202100000003,0.9232490219999999,-2.79947324,-3.0225306400000003,7.16202838
472,1715673364410,5.475116344444444,2.8952976111111113,1.1596273444444445,-2.656992333333333,-2.429597822222222,6.597616344444444
473,1715673364420,5.2595142,3.10512012,1.31362542,-2.18906624,-2.05580602,6.133667579999999
474,1715673364430,4.85900895,3.0752708600000003,1.31850987,-1.1586281399999998,-1.64112002,5.47784264
475,1715673364440,4.31710556,2.90964546,1.15555516,-0.048960840000000026,-1.3511728399999998,4.9738484
476,1715673364450,3.6349072,2.709345133333333,0.9315787666666667,1.3559172333333334,-1.0799588333333334,4.5106799
477,1715673364460,3.1723191999999996,2.5644301,0.75769058,2.1181752,-0.8703913400000001,4.28103516
478,1715673364470,2.6098168999999998,2.41910465,0.5026817400000001,2.37504415,-0.46662469999999995,3.992157
479,1715673364480,2.2781409999999997,2.3352243111111113,0.35755473555555556,2.0186720777777776,-0.19809001999999998,3.7728904222222224
480,1715673364490,1.9640536400000002,2.22532492,0.245819222,1.48122599,-0.0034819319999999988,3.58309122
481,1715673364500,1.67611002,2.0876463,0.15747259800000002,0.701426016,0.16725490199999998,3.33865352
482,1715673364510,1.4445084333333333,1.9781980666666665,0.08862306,0.009672026666666667,0.21298834666666666,3.069597866666667
483,1715673364520,1.13685288,1.8573522,0.045496558799999996,-0.55051176,0.0855211364,2.68224808
484,1715673364530,0.88890557,1.7457726399999998,0.0566984308,-0.81912447,-0.0719446573,2.33515444
485,1715673364540,0.630390464,1.61287446,0.10581104799999999,-0.94705492,-0.20531181599999998,2.03738824
486,1715673364550,0.23541617600000003,1.4649635399999998,0.204377776,-1.04430472,-0.291688152,1.6968920400000003
487,1715673364560,-0.030733499999999993,1.4064506222222224,0.24401830000000002,-1.0780923666666666,-0.2502171888888889,1.5474065222222224
488,1715673364570,-0.3683616111111111,1.370466111111111,0.18681984111111113,-1.0561011555555555,-0.11112656555555556,1.3619579666666666
489,1715673364580,-0.5554348520000001,1.37145806,0.097908152,-0.958416984,-0.096272362,1.15080902
490,1715673364590,-0.6938270510000001,1.39169099,0.036807023300000005,-0.809701872,-0.20412062200000003,0.85800608
491,1715673364600,-0.82665797,1.4202048299999999,0.022897677499999998,-0.64690627,-0.44165559,0.40446914500000003
492,1715673364610,-0.8985402,1.43118108,0.0937859616,-0.656542698,-0.5651725599999999,0.12208141700000001
493,1715673364620,-0.9354204000000002,1.4386815,0.15049659,-0.7545713,-0.643852,-0.13683382
494,1715673364630,-0.9568241000000001,1.4557557,0.21702486000000004,-1.0065532,-0.6450737,-0.3744604
495,1715673364640,-0.9384083999999999,1.5202717,0.2932488,-1.35676224,-0.58684296,-0.654679547
496,1715673364650,-0.83576012,1.607187311111111,0.3767699488888889,-1.6012644888888887,-0.4849422022222222,-0.9547314555555556
497,1715673364660,-0.65680662,1.7145757199999998,0.451855632,-1.68311706,-0.333929488,-1.2524570000000002
498,1715673364670,-0.39462058,1.87104824,0.488930968,-1.5643037,-0.07547240799999999,-1.7222124
499,1715673364680,-0.14936846799999998,1.98968925,0.45633758999999996,-1.2759447800000001,0.164506012,-2.24822842
500,1715673364690,0.001056972666666665,2.0209715333333333,0.37278598333333335,-0.8615745333333334,0.35888333333333333,-2.8235718666666667
501,1715673364700,0.131202782,1.99211624,0.222695914,-0.327332142,0.45179592799999996,-3.4479371999999997
502,1715673364710,0.254191667,1.9157763200000002,0.08677335760000002,0.1050230115,0.40025417,-3.9046201799999998
503,1715673364720,0.39256355111111113,1.826163488888889,-0.027894582999999997,0.49318886000000006,0.2600249622222222,-4.324281333333333
504,1715673364730,0.51061517,1.80133682,-0.0404047964,0.563187222,0.1192714368,-4.5866814
505,1715673364740,0.6728306033333333,1.8177347333333331,-0.01033258111111111,0.33753697777777775,0.020294301666666667,-4.834200888888889
506,1715673364750,0.9447045025,1.98310355,0.1625247325,-0.5853616,0.11934779725,-5.0208924
507,1715673364760,1.19694798,2.1112452399999997,0.310396164,-1.47472033,0.493518025,-5.25095172
508,1715673364770,1.69836135,2.3124216,0.47795471,-2.2142339,1.060767525,-5.675930849999999
509,1715673364780,1.8671212000000001,2.3691018,0.515213,-2.4308874,1.4497869,-6.0573398
510,1715673364790,2.3970911,2.50474378,0.72026152,-2.33610144,1.9765766599999999,-6.655376800000001
511,1715673364800,2.67116798,2.5457400399999996,0.8815391800000001,-1.9316934,2.4059538199999997,-7.149719500000001
512,1715673364810,2.9250730799999998,2.57195488,1.02102292,-1.29555355,2.92340251,-7.61840572
513,1715673364820,3.0636204555555557,2.598566244444444,1.0614846555555555,-0.8356637,3.2931745,-7.8813834
514,1715673364830,3.25343973,2.6528439799999997,1.07684335,-0.47653599899999993,3.6328921000000003,-8.049386700000001
515,1715673364840,3.497826,2.7242444,1.112626,-0.16233744,4.0431643,-8.182845
516,1715673364850,3.8555419399999997,2.7797842,1.1403103799999998,-0.004444045700000001,4.74904959,-8.11456586
517,1715673364860,3.9636256000000003,2.731379,1.1351678333333333,0.09739906866666666,5.096295933333334,-7.9389915111111105
518,1715673364870,4.00524568,2.65727704,1.06707442,0.399780756,5.302890700000001,-7.585541359999999
519,1715673364880,3.8636128666666667,2.4999900444444445,0.9662758444444444,0.9534418977777778,5.1263810888888885,-7.190562666666667
520,1715673364890,3.6843247,2.2739436900000003,0.9472869899999999,1.36676519,4.81193822,-6.9874127
521,1715673364900,3.365172,1.81390457,0.9954239600000001,1.94507121,4.3342874799999995,-6.6644788
522,1715673364910,2.9926684900000002,1.34531624,0.9969850299999999,2.54184074,4.026457280000001,-6.082202
523,1715673364920,2.4763301666666666,0.9772250488888888,0.759502311111111,3.152420977777778,3.8351308,-5.111686333333333
524,1715673364930,2.0950248399999998,0.783070068,0.51178598,3.3904854,3.65379888,-4.4610265
525,1715673364940,1.801663488888889,0.6385873666666666,0.33336634444444446,3.3432315111111115,3.269707155555556,-3.7739593888888887
526,1715673364950,1.48187918,0.411603268,0.290321826,2.90484738,2.85015976,-3.1312494699999998
527,1715673364960,1.1628117999999998,0.104884176,0.299194295,2.24195175,2.7377453,-2.5783095499999997
528,1715673364970,1.0048418444444445,-0.11343479999999999,0.22856347,1.8957693333333334,2.7648270333333334,-2.1339559333333336
529,1715673364980,0.913041075,-0.26275923,0.10506710000000001,1.7195093,2.6902505,-1.45950975
530,1715673364990,0.874386372,-0.33055586800000003,0.0563142624,1.73270403,2.4926814,-1.026345238
531,1715673365000,0.8559889479999999,-0.407103017,0.0814559776,1.76665286,2.1678385,-0.518930016
532,1715673365010,0.8571163555555555,-0.4579467844444445,0.1454082211111111,1.7361978777777776,2.0760085333333334,-0.3633799722222222
533,1715673365020,0.8545254800000001,-0.5180790319999999,0.17814453800000002,1.58235474,2.0560807199999998,-0.25531113000000005
534,1715673365030,0.8463298,-0.58905876,0.15580177,1.4949399,2.070375,-0.2499966
535,1715673365040,0.83273154,-0.74321413,0.053234816,1.2260065,2.0044017,-0.32818735
536,1715673365050,0.787509398,-0.9704590979999999,-0.0274040375,0.946306632,1.8222721199999998,-0.42392519999999995
537,1715673365060,0.7175012466666666,-1.2104568000000002,-0.07167084666666668,0.576079868888889,1.546948288888889,-0.5018427644444444
538,1715673365070,0.64482425,-1.44944435,-0.101530313,0.270918745,1.3423763499999999,-0.45784349999999996
539,1715673365080,0.584729268,-1.6065999000000002,-0.1410021282,0.01954769,1.17154792,-0.293581838
540,1715673365090,0.48011947,-1.7763232500000001,-0.23007439999999998,-0.23472496999999998,0.93027143,0.057955839999999995
541,1715673365100,0.4045967733333333,-1.8238801777777778,-0.28175763555555555,-0.4308636111111111,0.65722314,0.5025554444444444
542,1715673365110,0.357569644,-1.8051784999999998,-0.310140046,-0.6249762249999999,0.3450014142,1.0172433650000001
543,1715673365120,0.353343803,-1.75214487,-0.31240237299999996,-0.8017301,0.0390648316,1.5096313000000001
544,1715673365130,0.40140145799999993,-1.6065449,-0.247660796,-1.07487846,-0.394802202,2.12147392
545,1715673365140,0.43726805555555553,-1.5305228222222222,-0.20505938888888886,-1.2168775,-0.5670696,2.3603663666666668
546,1715673365150,0.4932605,-1.4149606,-0.13470298,-1.4468343,-0.7664832,2.6558893
547,1715673365160,0.56718552,-1.26715319,-0.0671136717,-1.75406897,-0.9233075700000001,2.98679499
548,1715673365170,0.618145815,-1.1499146,-0.040490167,-1.9755381499999998,-1.03022423,3.2620967999999997
549,1715673365180,0.6388177633333334,-1.0770546666666667,-0.05864163133333333,-2.0512176666666666,-1.1261470555555555,3.472497522222222
550,1715673365190,0.6582335340000001,-1.0004608080000001,-0.09317616599999999,-2.05461484,-1.23859044,3.64732372
551,1715673365200,0.69234528,-0.9069919799999999,-0.127001306,-1.99099304,-1.43550285,3.8828733800000004
552,1715673365210,0.7217088166666666,-0.8418987200000001,-0.14840296555555554,-1.9295365777777778,-1.6000597,4.040551177777777
553,1715673365220,0.7458972,-0.7849848,-0.16818054,-1.8738291,-1.7771597,4.2003093
554,1715673365230,0.7563246,-0.7647336659999999,-0.16779636599999997,-1.86778164,-1.83859748,4.25734896
555,1715673365240,0.8332803139999999,-0.686052227,-0.1481610812,-1.89386553,-1.98926733,4.462095570000001
556,1715673365250,0.9582334311111111,-0.5698164377777778,-0.09967383933333333,-1.9282639999999998,-2.056291088888889,4.786587222222222
557,1715673365260,1.0584154000000001,-0.46878344800000005,-0.0642354552,-1.94145192,-2.0317377800000003,4.9714352
558,1715673365270,1.20887536,-0.315542806,-0.052795765800000005,-1.95137848,-1.9135048600000002,5.214376
559,1715673365280,1.43194335,-0.112476074,-0.103054795,-1.95293615,-1.78128305,5.453805
560,1715673365290,1.6249119666666667,0.02727801266666667,-0.15212269666666667,-1.9452494333333332,-1.7830647333333336,5.536882566666667
561,1715673365300,1.9620352,0.189279332,-0.21958598499999998,-1.9036699,-1.8843665599999997,5.65044242
562,1715673365310,2.27730967,0.33689771,-0.23641624,-1.85739688,-2.09138876,5.7452487
563,1715673365320,2.5871632,0.48612595000000003,-0.19501138,-1.8240436,-2.437505,5.8334575
564,1715673365330,2.781178588888889,0.6071695722222222,-0.08887375000000002,-1.8265040444444445,-2.582246111111111,5.8904716666666666
565,1715673365340,3.5698349875,1.1044470587500002,0.265579518,-1.920388425,-2.6970845875,6.144025375
566,1715673365350,4.179986722222222,1.4928175222222224,0.4881043666666667,-2.066641811111111,-2.5447458333333333,6.381421
567,1715673365360,4.751496739999999,1.9760421000000001,0.6940527,-2.3729059599999998,-2.22397712,6.63442386
568,1715673365370,4.9713571000000005,2.48551095,0.88215512,-2.7749776400000004,-1.8186679599999998,6.53167678
569,1715673365380,4.920497166666667,2.728817888888889,0.9663707666666667,-3.0483195555555556,-1.4536047666666667,5.9958121111111105
570,1715673365390,4.77482761,2.76160015,0.984722075,-3.12497294,-1.2198063000000001,5.46834334
571,1715673365400,4.458796820000001,2.6836320799999998,0.9661539180000001,-2.8711276499999996,-1.0312169,4.74824031
572,1715673365410,4.093531633333333,2.547872133333333,0.9312941633333334,-2.2520565,-1.0138836,4.2941791
573,1715673365420,3.71749731,2.40367668,0.8225541250000001,-1.31219962,-1.06837276,4.0081311
574,1715673365430,3.4373956,2.3516006,0.7195542,-0.6942484,-1.133155,3.867846
575,1715673365440,3.19069226,2.33720349,0.632366122,-0.105862956,-1.23333692,3.69399384
576,1715673365450,2.5998671,2.1707567666666665,0.4603317466666666,1.5496124,-1.613906,3.0715833
577,1715673365460,2.30441486,2.01599562,0.398901328,2.3167370299999996,-1.82599837,2.6550952899999998
578,1715673365470,1.9161179499999998,1.8431563,0.3908155,2.49393365,-1.89933275,2.30456545
579,1715673365480,1.7137788333333333,1.728861,0.41447542333333337,2.0214039666666666,-1.7464128333333333,2.1986567333333333
580,1715673365490,1.42499165,1.5666158,0.459691465,0.76694128,-1.26571275,2.10191095
581,1715673365500,1.2053345333333334,1.4700857666666665,0.48071912000000006,-0.3952128333333333,-0.7693338355555556,2.024509188888889
582,1715673365510,0.9279138680000001,1.35993298,0.491461619,-1.33275522,-0.316550371,1.92529453
583,1715673365520,0.672246568,1.25221938,0.486406444,-2.10317848,0.135092846,1.8071991
584,1715673365530,0.385803007,1.1870814299999999,0.39677316,-2.51328292,0.427758392,1.70859016
585,1715673365540,0.22043969,1.1687268,0.3164819,-2.643214,0.5184719,1.6522378
586,1715673365550,-0.058600980000000004,1.1816543,0.16866837,-2.5050056,0.39385536,1.3767376
587,1715673365560,-0.45020920999999997,1.1411031,-0.00689064575,-1.7634152999999997,-0.30482177615,0.690659525
588,1715673365570,-0.6085179111111111,1.1203905111111112,0.008225412777777778,-1.192324122222222,-0.8755056555555556,0.1742662777777778
589,1715673365580,-0.7170845299999999,1.06597685,0.11991553000000002,-0.7828543459999999,-1.28660436,-0.21047362
590,1715673365590,-0.778972256,0.992631128,0.262344572,-0.396146105,-1.670411,-0.6876052
591,1715673365600,-0.8231238844444444,0.90045905,0.42874453888888886,-0.34074402666666664,-1.722029088888889,-0.9770789666666667
592,1715673365610,-0.8308107,0.8107790250000001,0.562502355,-0.491838154,-1.5617227699999998,-1.1352014000000001
593,1715673365620,-0.805425076,0.7647885299999999,0.638329916,-0.8462774279999999,-1.18544509,-1.17504506
594,1715673365630,-0.7513446666666667,0.7631949133333333,0.6777834,-1.2452488333333334,-0.7157304333333333,-1.1050551999999998
595,1715673365640,-0.7066266,0.78291154,0.6890036,-1.4477507,-0.43524149999999995,-1.0375546
596,1715673365650,-0.61914588,0.878002432,0.67916156,-1.6513215000000003,0.088422745,-0.9845620399999999
597,1715673365660,-0.41940252000000006,1.071013752,0.62610972,-1.5794837400000001,0.46117270899999996,-1.079124008
598,1715673365670,-0.1393495952,1.34152944,0.5161764719999999,-1.0927769,0.978850502,-1.6308575
599,1715673365680,-0.018612196222222224,1.4462564666666669,0.4393481077777778,-0.8143682277777777,1.1507853555555556,-2.041036522222222
600,1715673365690,0.10519516200000001,1.50378288,0.32779352,-0.578199235,1.26591132,-2.5906948499999998
601,1715673365700,0.21661833444444445,1.5044237888888887,0.19759282555555555,-0.4268760277777778,1.2764537999999999,-3.101091466666667
602,1715673365710,0.3226611,1.4960426333333334,0.15342358,-0.3145446888888889,1.1342239888888888,-3.528951555555556
603,1715673365720,0.45398990000000006,1.4926074666666667,0.21151641333333332,-0.22230402999999999,1.0552187666666668,-3.8153625333333334
604,1715673365730,0.66161178,1.51740564,0.31399394799999997,-0.175837558,1.1860865,-4.1066027599999995
605,1715673365740,0.8448054,1.5567372,0.38270527,-0.252776036,1.47588098,-4.4363171
606,1715673365750,1.098980177777778,1.6402040444444443,0.42818214222222223,-0.4694499333333333,1.7921768333333334,-4.794172
607,1715673365760,1.3393708,1.6737683,0.485296616,-0.9715811499999999,2.26203395,-5.391878350000001
608,1715673365770,1.5019474000000002,1.7406502499999998,0.5928089799999999,-1.4365107,2.59367268,-5.79903522
609,1715673365780,1.6800065499999999,1.9129165499999998,0.82364563,-1.8705915999999998,2.93294722,-6.0509255600000005
610,1715673365790,1.8878065888888886,2.2378203555555554,1.1407102222222223,-2.1081638666666667,3.317778888888889,-6.083420288888889
611,1715673365800,2.17689525,2.66393585,1.4530725500000001,-2.1373411,3.73941175,-6.0796362
612,1715673365810,2.4338275777777776,2.978683144444444,1.6731598666666667,-2.1008673222222223,4.085840200000001,-6.103714444444445
613,1715673365820,3.04839749,3.3698857099999997,2.06912692,-1.79554671,4.84860546,-6.307794400000001
614,1715673365830,3.3914172999999996,3.3828194,2.2381184,-1.42362138,5.56730367,-6.548139420000001
615,1715673365840,3.6111863,3.1936011,2.286597,-1.16492,6.0477185,-6.6674414
616,1715673365850,3.6394500799999996,2.8575630599999995,2.05335147,-0.393443033,6.695495749999999,-6.68228537
617,1715673365860,3.45414655,2.20603115,1.3226687,2.439307106,5.7885285,-6.047229740000001
618,1715673365870,3.400491,1.98451828,1.15088428,4.05189972,4.83744176,-5.59696092
619,1715673365880,3.477005,1.817077577777778,1.3347594444444446,5.795227666666666,3.1084897333333337,-4.847673666666666
620,1715673365890,3.39413105,1.6589993,1.4612743,5.9547907,2.61435055,-4.486346849999999
621,1715673365900,3.1383538,1.32888855,1.40669795,5.2660401,2.9665143499999997,-4.3172900499999995
622,1715673365910,2.8176236666666665,0.9173502666666669,1.1830568333333333,4.524780766666667,3.5425093999999997,-4.200360266666666
623,1715673365920,2.18524955,0.20714621500000002,0.65692856,3.6414441999999996,4.1664826,-3.9324449999999995
624,1715673365930,1.6744135,-0.25128158333333334,0.2854434777777778,3.1589369333333335,4.283845,-3.6023231666666664
625,1715673365940,1.363256445,-0.48248543999999993,0.101713257,2.9140104200000003,4.11014558,-3.2157015700000002
626,1715673365950,0.8923874509999999,-0.744012934,-0.107512374,2.8538096,3.7673587999999993,-2.7507262
627,1715673365960,0.5153593510000001,-0.8605502360000001,-0.230220753,2.98427524,3.1733228,-1.92902078
628,1715673365970,0.349886274,-0.9428354600000001,-0.332982836,3.20814204,2.634448,-1.052337532
629,1715673365980,0.30319520222222224,-0.9946176444444446,-0.41440085666666665,3.2540283333333333,2.2709933333333336,-0.4600324466666666
630,1715673365990,0.303029876,-1.02307192,-0.45366061799999996,3.12802716,1.99600212,-0.029413155999999985
631,1715673366000,0.34643484,-1.03240172,-0.4636856,2.75185624,1.68473578,0.432095536
632,1715673366010,0.40301809555555557,-1.0041574666666666,-0.4434540488888889,2.273284022222222,1.421178011111111,0.745476188888889
633,1715673366020,0.46941763,-0.960239,-0.4110606,1.7092009999999997,1.1827878,0.9424124
634,1715673366030,0.5627157869999999,-0.933048353,-0.382327184,1.166355509,0.9951759150000001,0.9650296700000001
635,1715673366040,0.6670450189999999,-0.990197988,-0.359472189,0.028573216000000002,0.5923560259999999,0.84696465
636,1715673366050,0.6940649,-1.0431706,-0.33727577,-0.24327709,0.45937067,0.79779
637,1715673366060,0.7304877409999999,-1.2129365799999998,-0.188767106,-0.8022187690000001,0.012171490999999998,0.751975128
638,1715673366070,0.75361106,-1.33989525,-0.044880668750000005,-1.0336603500000001,-0.341397305,0.886136415
639,1715673366080,0.7483905566666667,-1.3819980333333333,0.0276235625,-1.0289346777777777,-0.5428895122222221,1.0883073611111111
640,1715673366090,0.747702164,-1.3998012,0.08176087039999999,-0.9619600800000001,-0.750050904,1.3680938599999999
641,1715673366100,0.74687282,-1.3899896,0.143514468,-0.9044623700000001,-0.9638690000000001,1.7488309000000002
642,1715673366110,0.755702584,-1.33078494,0.19202338400000002,-0.924605624,-1.0947927,2.0803322
643,1715673366120,0.7853981155555556,-1.2042572444444444,0.2202296411111111,-1.0040588000000001,-1.1960232666666668,2.419094266666667
644,1715673366130,0.8065105109999999,-1.086234052,0.22381183799999999,-1.09311275,-1.25038005,2.59796402
645,1715673366140,0.8186589044444443,-0.973871161111111,0.21938272222222224,-1.1803443,-1.2709051,2.664136
646,1715673366150,0.8202307,-0.84193933,0.17336378,-1.4367551,-1.3133603,2.7577512
647,1715673366160,0.7401854466666666,-0.7171963333333333,0.05965795366666667,-1.8333593,-1.4371623333333332,2.8379780333333335
648,1715673366170,0.7072160466666667,-0.6804665333333334,0.003780710333333333,-1.9468784000000001,-1.4919874666666668,2.8881199333333334
649,1715673366180,0.67799078,-0.64304362,-0.0721383505,-2.0317530199999996,-1.5634637100000002,2.9620856499999997
650,1715673366190,0.6380927688888889,-0.6104828,-0.2316124277777778,-2.0406972,-1.7923804555555556,3.1358937222222223
651,1715673366200,0.6270304510000001,-0.5937602799999999,-0.30025532899999996,-2.0088915199999997,-1.9975140799999997,3.2696103899999995
652,1715673366210,0.638153768888889,-0.5437783333333334,-0.30501780000000006,-1.9406170777777778,-2.2961236555555558,3.4926559888888886
653,1715673366220,0.6770449133333334,-0.4989586444444445,-0.3109463277777778,-1.8968723444444444,-2.441390811111111,3.642860988888889
654,1715673366230,0.70890314,-0.47216168999999997,-0.33814981,-1.867839222222222,-2.562902111111111,3.8167538555555556
655,1715673366240,0.7327257,-0.45033115000000007,-0.37185097,-1.8655825,-2.6169467,3.8907535
656,1715673366250,0.89498514,-0.373247377,-0.468155365,-1.9219653,-2.8495031400000004,4.0671102999999995
657,1715673366260,1.0993933999999999,-0.263887355,-0.48636985,-1.9794172199999998,-3.0666963000000003,4.217138799999999
658,1715673366270,1.2347603777777776,-0.19144749333333333,-0.4676966766666667,-2.0313306222222223,-3.2665848888888886,4.365752055555555
659,1715673366280,1.56218872,-0.02766015,-0.354386522,-2.1299649599999997,-3.4202650400000003,4.6339015
660,1715673366290,1.8338143000000002,0.098761855,-0.24495331,-2.24693034,-3.47661728,4.8229336
661,1715673366300,2.2970852,0.30366947777777775,-0.06354706888888889,-2.4852203555555556,-3.5022430888888887,5.093954111111111
662,1715673366310,2.72003664,0.51318848,0.121872964,-2.77418336,-3.4959207,5.4061572
663,1715673366320,3.1557124444444447,0.7534382833333333,0.29548472,-2.9552132444444448,-3.481117411111111,5.661312111111112
664,1715673366330,3.6434685700000005,1.10091797,0.48030851399999996,-3.0253559599999997,-3.4656369399999996,5.9265840999999995
665,1715673366340,4.01591739,1.42274155,0.670441536,-2.8570778900000002,-3.40813945,6.109843509999999
666,1715673366350,4.631849399999999,2.0715843400000002,1.0948017,-2.57238406,-3.21147134,6.1029104
667,1715673366360,4.793023566666666,2.4417684333333334,1.3459728666666666,-2.1229093999999997,-2.669888333333333,5.7281343
668,1715673366370,4.63069725,2.56673515,1.4558472,-1.6521614,-1.8611537500000002,4.9806135
669,1715673366380,4.3828168,2.4704491,1.42145495,-1.1724336640000002,-1.2335813,4.36524298
670,1715673366390,4.1088237111111106,2.3236044000000002,1.3557837,-0.32594750222222224,-0.6555602266666667,3.8808777
671,1715673366400,3.76998814,2.20333578,1.2671592600000001,0.6307183719999999,-0.290863488,3.65434852
672,1715673366410,3.37169065,2.0996651500000003,1.06817205,1.8428277000000002,0.07574729,3.4811682499999996
673,1715673366420,3.0764803333333335,2.030870466666667,0.8454151666666667,2.6759630333333333,0.32796676888888887,3.377847222222222
674,1715673366430,2.8456538,1.992982,0.6455255,3.4309247,0.5661194,3.245527
675,1715673366440,2.65400843,1.97591404,0.473527625,3.87487103,0.723768413,3.0768823000000003
676,1715673366450,2.23936844,1.8969705099999998,0.125970761,3.98400198,0.841986114,2.7517035200000004
677,1715673366460,1.747154688888889,1.7823533333333335,-0.1978028711111111,3.4843414666666668,0.879069011111111,2.345926266666667
678,1715673366470,1.3323948,1.7109840000000003,-0.33562934499999997,2.50234842,0.8254011479999999,2.0197649
679,1715673366480,1.0773731666666668,1.663064488888889,-0.35739890888888887,1.4161892233333333,0.7639378933333334,1.7414240666666665
680,1715673366490,0.790869295,1.59277585,-0.37611951,0.159054035,0.7623598300000001,1.4404966
681,1715673366500,0.5117066699999999,1.5306381,-0.419414715,-0.60075544,0.7277543320000001,1.2322373599999998
682,1715673366510,0.31058722333333333,1.4916317333333333,-0.42295151000000003,-1.1212940777777778,0.5723128666666667,1.0083348666666667
683,1715673366520,0.034172726,1.44866992,-0.368582482,-1.2748452000000001,0.422138416,0.82891358
684,1715673366530,-0.181120324,1.4030574999999998,-0.324567712,-1.25761882,0.15341881000000002,0.488325664
685,1715673366540,-0.356807404,1.34024278,-0.265161807,-1.0700373399999998,-0.134298729,0.1868025975
686,1715673366550,-0.5071975888888889,1.2908815444444446,-0.13314462999999999,-0.7654650333333334,-0.45066582999999993,-0.08429940333333333
687,1715673366560,-0.58327788,1.29880139,-0.029379765000000002,-0.5428148690000001,-0.643851969,-0.29906435499999995
688,1715673366570,-0.60715734,1.352274,0.08305362200000001,-0.44412958399999997,-0.7061907940000001,-0.529589632
689,1715673366580,-0.576619,1.40111835,0.17424797,-0.5211444000000001,-0.6213262850000001,-1.02709353
690,1715673366590,-0.5339539166666667,1.3915243,0.22289919,-0.63468898,-0.48838674000000004,-1.4359405333333333
691,1715673366600,-0.481967125,1.32791895,0.25198421299999996,-0.723188106,-0.305340999,-1.91982724
692,1715673366610,-0.41767678999999996,1.2209554,0.28364460999999996,-0.6654460440000001,-0.16609426200000002,-2.3278242
693,1715673366620,-0.37930870600000005,1.16887308,0.330129034,-0.48905870399999996,-0.0880256784,-2.51946798
694,1715673366630,-0.32455146222222225,1.1370175333333332,0.40125648444444445,-0.18117244233333332,0.029474248000000005,-2.6615908000000004
695,1715673366640,-0.24330688,1.1378713,0.45209953,0.004428773,0.11010846,-2.7044532
696,1715673366650,0.015458217500000005,1.2202236,0.55433113,0.40737075999999994,0.55336754,-2.8196013
697,1715673366660,0.16080206166666666,1.282994888888889,0.5485008466666668,0.5197784444444444,0.8006916,-2.9173057555555553
698,1715673366670,0.36569205,1.3869102,0.46289290000000005,0.59742624,1.0853548,-3.1564934
699,1715673366680,0.5279637150000001,1.4610304299999999,0.377320804,0.718942596,1.1474034100000001,-3.53416087
700,1715673366690,0.83989657,1.49978265,0.288736355,1.04603035,1.11879965,-4.4084617999999995
701,1715673366700,0.9954645933333334,1.4550442333333333,0.29644005333333334,1.2099203666666667,1.0514517666666667,-4.810971
702,1715673366710,1.154625275,1.393861825,0.3527035,1.35688435,1.008194875,-5.2152619
703,1715673366720,1.33411444,1.3350779200000003,0.44197700399999995,1.3730417799999999,1.11116392,-5.54036436
704,1715673366730,1.5315460444444444,1.3265272444444447,0.5043790166666666,1.2346095666666668,1.3432927333333333,-5.762648133333333
705,1715673366740,1.6824762199999999,1.3481457799999998,0.5235854219999999,1.0158841539999999,1.6050332400000002,-5.88922953
706,1715673366750,1.7840674999999997,1.3776414,0.52405494,0.571769886,1.9992398000000002,-6.149916360000001
707,1715673366760,1.9296856999999998,1.4441086,0.51246893,0.25167647,2.257147,-6.388887
708,1715673366770,2.12612402,1.7387904500000002,0.5747530249999999,0.069913525,2.43298464,-6.65162014
709,1715673366780,2.22708108,2.04959516,0.6668681599999999,0.08420777239999999,2.5120305600000004,-6.94685126
710,1715673366790,2.309538511111111,2.288521022222222,0.7836771611111111,0.30334549777777775,2.483489666666667,-7.23235588888889
711,1715673366800,2.46843674,2.47146124,0.903821016,0.407050056,2.51856684,-7.273603
712,1715673366810,2.6805955,2.68564452,1.061098504,0.5359120639999999,2.63402036,-7.1806600000000005
713,1715673366820,2.80795662,2.79730348,1.17595887,0.646463392,2.74819116,-7.0668863
714,1715673366830,2.8831221,2.8153202222222222,1.2428165333333334,0.8653754777777778,2.945812744444444,-6.963269666666666
715,1715673366840,2.91309681,2.73751332,1.1493598200000001,1.33083101,3.0939256,-6.9223556
716,1715673366850,2.83588501,2.5329527300000003,0.9963751999999999,1.771051,3.0448577,-6.903541
717,1715673366860,2.6020759222222223,2.1130162777777777,0.8803562333333333,2.336763211111111,2.7034688666666664,-6.7563731222222225
718,1715673366870,2.4535638499999997,1.8668222999999997,0.82766411,2.83617105,2.3907738000000003,-6.43431985
719,1715673366880,2.1384175,1.44767585,0.6797347699999999,2.97575365,2.3025800999999997,-6.05520165
720,1715673366890,1.75352916,1.046902504,0.46832002,2.9983709000000003,2.2396762,-5.6328191400000005
721,1715673366900,1.3117431333333331,0.6423748933333333,0.21812249666666667,2.9590821999999997,2.1283562000000003,-5.138700266666667
722,1715673366910,0.95753755,0.2992979558,0.036056982,2.84898392,1.91268008,-4.53561312
723,1715673366920,0.7086389,0.008354146,-0.08000467,2.7519479,1.7496707,-4.1946588
724,1715673366930,0.4033365344444444,-0.38713639111111114,-0.15091666222222222,2.3051508444444444,1.4280671666666667,-2.970009788888889
725,1715673366940,0.298017407,-0.529933345,-0.1079026413,1.78791085,1.21479719,-1.96887983
726,1715673366950,0.29648072,-0.6036937,0.058113147,1.186453,1.1276573,-1.1227703
727,1715673366960,0.376576866,-0.59716289,0.258990718,-0.017684558000000006,1.45115626,-0.009101885999999986
728,1715673366970,0.3132906466666667,-0.6558038333333334,0.1552190877777778,-0.852241911111111,1.9947803666666668,0.36271820222222223
729,1715673366980,0.27141827999999996,-0.764105556,-0.022452533999999993,-1.0494665399999998,2.1772916,0.377270369
730,1715673366990,0.29900796555555553,-0.9885265444444445,-0.21952500444444445,-0.946756271111111,2.0065735,0.46133900777777787
731,1715673367000,0.351410748,-1.21379036,-0.32162851200000003,-0.6254343840000001,1.60853036,0.7445225580000001
732,1715673367010,0.374534046,-1.3710799999999999,-0.337416018,-0.11766792000000001,1.03060603,1.2040917500000001
733,1715673367020,0.409511706,-1.47623248,-0.32562873999999997,0.164444924,0.686673602,1.48495232
734,1715673367030,0.4782257455555556,-1.5138416444444447,-0.2870628111111111,0.4022208288888889,0.29484428777777777,1.825502911111111
735,1715673367040,0.51679235,-1.5269427500000001,-0.24323978400000001,0.433897578,0.10960449400000001,2.01866537
736,1715673367050,0.5787533,-1.5650303,-0.16470474,0.28710666,-0.11759156,2.3545802
737,1715673367060,0.63770186,-1.5817142199999998,-0.12905630699999998,-0.12171490440000002,-0.23215934000000002,2.6627617
738,1715673367070,0.734158674,-1.5772932599999998,-0.07649226699999999,-0.6662401960000001,-0.32549954200000003,2.99655366
739,1715673367080,0.8434638400000001,-1.566567,-0.074467762,-1.263025,-0.40402627300000005,3.36302697
740,1715673367090,0.9302439666666668,-1.5564119444444444,-0.10667967222222222,-1.6880412999999999,-0.5684779933333333,3.6956329777777777
741,1715673367100,1.00105837,-1.5575542599999999,-0.14689881999999999,-1.86762884,-0.7572590960000001,3.93278102
742,1715673367110,1.0687208499999998,-1.53460175,-0.177205455,-1.8632000999999998,-1.0246348,4.179173499999999
743,1715673367120,1.13485888,-1.45979256,-0.17815672600000002,-1.6492598,-1.41888725,4.509331
744,1715673367130,1.2169612333333335,-1.3447736666666668,-0.15630992666666665,-1.4698266,-1.6397829333333336,4.693549255555556
745,1715673367140,1.2835505,-1.261964,-0.13647138,-1.1968378,-1.9066632,4.9400673
746,1715673367150,1.3938414555555556,-1.1568628777777776,-0.13075289333333334,-1.0324809888888888,-2.0784689888888885,5.1521054444444445
747,1715673367160,1.49431274,-1.03112721,-0.14284370100000002,-1.0602635299999998,-2.18410278,5.3525388
748,1715673367170,1.61821642,-0.871697204,-0.143984014,-1.3237449499999998,-2.2618049499999997,5.5688765
749,1715673367180,1.7232848333333333,-0.7613655266666667,-0.12972302111111111,-1.6440588888888887,-2.3034202111111113,5.766466
750,1715673367190,1.84686378,-0.599778876,-0.096298301,-2.00116394,-2.33805616,5.92615648
751,1715673367200,1.9457476599999999,-0.42328077799999997,-0.060076675600000004,-2.35546576,-2.33689548,5.92484302
752,1715673367210,2.00799516,-0.329482628,-0.0694796644,-2.68087368,-2.30320632,5.74283584
753,1715673367220,2.0537174333333335,-0.33548704444444444,-0.11722228666666666,-2.929981211111111,-2.3274814444444445,5.566848866666667
754,1715673367230,2.1819200199999997,-0.352337632,-0.20523149,-3.12911135,-2.56019744,5.48908222
755,1715673367240,2.3110188999999997,-0.306164209,-0.226141253,-3.1300735,-2.8368583,5.5243597
756,1715673367250,2.4584360333333333,-0.23669401888888889,-0.17604685933333333,-2.9151847777777777,-3.233072122222222,5.656731
757,1715673367260,2.83328727,-0.0598144656,0.0393864414,-2.318478,-3.75306444,5.92527088
758,1715673367270,3.424029,0.1524113324,0.355630492,-1.54787144,-3.87755892,6.24811316
759,1715673367280,3.84912695,0.28096152500000005,0.49496792,-1.23906385,-3.6819903,6.52175015
760,1715673367290,4.235240355555556,0.43394133222222225,0.5908271777777778,-1.2330315222222223,-3.4146518222222224,6.761514688888889
761,1715673367300,4.6273616099999995,0.646080412,0.69862615,-1.405265,-3.1081892600000005,6.97214101
762,1715673367310,5.03562346,0.98665518,0.84061004,-1.79322552,-2.61844344,7.221038
763,1715673367320,5.45225719,1.63293678,1.05481764,-1.98793875,-2.1083862,7.2663488
764,1715673367330,5.519488933333333,2.2519539444444443,1.184635488888889,-1.8712159444444447,-1.5244311666666666,7.0181626
765,1715673367340,5.45236101,2.4753092,1.1879900300000001,-1.46842845,-1.013089424,6.542366830000001
766,1715673367350,5.2424397,2.646374,1.1215289,-1.0621419,-0.77366084,6.168517
767,1715673367360,4.8245837,2.732828844444444,1.0078094333333334,-0.28736117666666666,-0.6173811466666668,5.614971466666667
768,1715673367370,3.9860130899999993,2.65663048,0.894881474,1.194638647,-0.365221055,4.73258686
769,1715673367380,3.3960214,2.57704055,0.79175352,2.2290473000000004,0.053679775,4.1861067
770,1715673367390,3.0184322000000003,2.58147988,0.64757438,2.5324946400000004,0.47561966800000005,3.9521147999999995
771,1715673367400,2.6637123333333332,2.6072049333333336,0.4147396566666667,2.5646668666666668,0.97636628,3.668245766666667
772,1715673367410,2.3816510199999996,2.62470809,0.1919989996,2.31627878,1.33330503,3.40028982
773,1715673367420,1.9207096399999997,2.6522279,-0.11756783639999999,1.317422536,1.63626364,2.81883762
774,1715673367430,1.5524992,2.6215248,-0.259832235,0.538508276,1.70513868,2.31728676
775,1715673367440,1.3561360777777778,2.583680422222222,-0.30767378,0.11399424666666667,1.7094385222222224,1.9156055666666667
776,1715673367450,1.0601839,2.476791,-0.41282898,-0.12843442,1.6856827,1.5144876
777,1715673367460,0.540074205,2.19016438,-0.6271829200000001,-0.09717338810000001,1.235948366,0.714269486
778,1715673367470,0.22529363600000002,1.9320150999999999,-0.6535991520000001,0.061468316499999995,0.40065125,0.08407033000000001
779,1715673367480,-0.014647196000000001,1.75810262,-0.50485872,0.02761111,0.04633413200000001,-0.13625349
780,1715673367490,-0.2012718888888889,1.7001262777777777,-0.3053023644444444,-0.3254554233333333,-0.27989506444444445,-0.36762209444444444
781,1715673367500,-0.31945764,1.7428333999999999,-0.1411423888,-0.668775278,-0.348819335,-0.49692360099999994
782,1715673367510,-0.4428036222222222,1.8282028888888888,0.06283564800000001,-1.1985006777777776,-0.23370687555555555,-0.7867774755555555
783,1715673367520,-0.50179759,1.89411657,0.15032585,-1.38238807,-0.060109148,-1.03590532
784,1715673367530,-0.53869,2.0067024499999997,0.18659625500000002,-1.40242445,0.19837848500000002,-1.48431093
785,1715673367540,-0.520640166,2.0513025999999996,0.173107662,-1.222341406,0.333746224,-1.93720636
786,1715673367550,-0.4640514677777777,2.074247088888889,0.14500846777777776,-0.88667089,0.2975422844444444,-2.420027488888889
787,1715673367560,-0.341013813,2.09220146,0.197310293,-0.42656719499999995,0.10768027009999999,-3.04481205
788,1715673367570,-0.18846831420000001,2.06716321,0.346501919,-0.036728273,-0.0216551736,-3.6172233400000002
789,1715673367580,-0.065491624,2.0349357,0.4656369,0.33662068222222225,0.03736459166666666,-4.210728277777778
790,1715673367590,0.23650160800000003,1.93477144,0.6785761800000001,0.582001865,0.3071125,-4.6683850499999995
791,1715673367600,0.52213411,1.8436746499999999,0.7724231,0.7385055680000001,0.72057666,-5.00542994
792,1715673367610,0.8278836500000001,1.8176975,0.7738866000000001,0.85559315,1.1652254499999999,-5.25802275
793,1715673367620,1.1476008555555555,1.8619650555555556,0.7109628888888889,1.001445711111111,1.5683286444444444,-5.594541555555555
794,1715673367630,1.3311143,1.9074285,0.6572335,1.0922271,1.7072156999999997,-5.818186
795,1715673367640,1.75578538,1.9095870599999998,0.512944564,1.3430788599999999,1.73128368,-6.3779828
796,1715673367650,2.01577005,1.87610336,0.464953968,1.5732376000000001,1.6049110300000002,-6.9493253
797,1715673367660,2.4009327333333332,1.8156547333333333,0.5347466533333334,1.6973569222222222,1.4736445444444444,-7.454727888888889
798,1715673367670,2.67826604,1.74028444,0.633110096,1.6532151599999998,1.4977040499999998,-7.8957537
799,1715673367680,2.9161457,1.66296285,0.7019922000000001,1.4337007,1.7652478000000003,-8.1974295
800,1715673367690,3.0847226500000002,1.63658935,0.7364759000000001,1.2664000000000002,2.0370065,-8.325406
801,1715673367700,3.2214684500000006,1.6490291,0.7715694,1.18240605,2.2628738999999998,-8.3572475
802,1715673367710,3.336089,1.7301212333333333,0.8019167133333334,1.1550953,2.4032965333333336,-8.333474500000001
803,1715673367720,3.4349566000000005,1.8599255,0.8298045399999999,1.1458305,2.4839308,-8.3060875
804,1715673367730,3.5345844799999995,2.0000069500000004,0.8864846780000001,1.054261786,2.49277313,-8.308118799999999
805,1715673367740,3.6872638800000006,2.10509842,0.9894601780000001,0.789787696,2.5202466,-8.2474752
806,1715673367750,3.7363630000000003,2.1122505333333335,1.0535438333333333,0.6537446111111112,2.552585222222222,-8.189157666666667
807,1715673367760,3.699606,2.0356066,1.0930516,0.5190827,2.611907,-8.108931
808,1715673367770,3.54009685,1.66388971,1.09177099,0.607948355,2.74475508,-7.68114185
809,1715673367780,3.4299256999999996,1.264586,1.00118653,1.185918475,2.75691125,-6.952944499999999
810,1715673367790,3.2754146,0.9840208666666665,0.87988879,1.9938641333333333,2.5873706999999997,-6.263455666666666
811,1715673367800,3.061581,0.7762038,0.76041025,2.8179214,2.3101397,-5.702885
812,1715673367810,2.69004102,0.54775147,0.75623927,4.0511054600000005,1.48136346,-4.61872152
813,1715673367820,2.29074335,0.44066594,0.8807221249999999,4.1573196,1.2519683000000001,-3.5975381
814,1715673367830,2.0270816199999997,0.371131396,0.89118613,3.60725084,1.4491098199999999,-2.99429339
815,1715673367840,1.7847720555555557,0.26967698000000007,0.8459843,2.6470318222222224,1.8794627000000002,-2.4384553555555555
816,1715673367850,1.624607,0.14214244,0.7429702,2.0276144,2.2153027,-2.2908974
817,1715673367860,1.25964671,-0.301115128,0.362533328,0.986089275,2.7358363800000003,-2.21573039
818,1715673367870,0.883722304,-0.8225357799999999,0.0005122260000000017,0.739635636,2.64944476,-2.1053166
819,1715673367880,0.6789759333333333,-1.135174588888889,-0.14416830777777778,0.9524407111111112,2.358958022222222,-1.8365494666666666
820,1715673367890,0.47791814000000005,-1.39544726,-0.24203851599999998,1.38910756,1.92960118,-1.249188848
821,1715673367900,0.34617873,-1.49902654,-0.285809356,1.88137338,1.4791796400000001,-0.36392295799999996
822,1715673367910,0.267149718,-1.45187738,-0.263905644,2.18057516,1.124114196,0.5729610359999999
823,1715673367920,0.29034891333333335,-1.3839425333333333,-0.22763523111111109,2.156863366666667,0.9358455600000001,1.3086769333333335
824,1715673367930,0.339489321,-1.3399927999999999,-0.199987279,1.80005194,0.874239822,1.87787611
825,1715673367940,0.395846262,-1.29225833,-0.17468091800000002,1.33906244,0.8847467019999999,2.22049518
826,1715673367950,0.464594196,-1.20428363,-0.178303091,0.8344572037000001,0.897849724,2.42290546
827,1715673367960,0.51807904,-1.1426886,-0.20007265,0.062155537,0.874759,2.5993843
828,1715673367970,0.576308014,-1.13138316,-0.18267529,-0.8376947902999999,0.7076263,2.66439571
829,1715673367980,0.645653526,-1.22358972,-0.092310263,-1.6730224660000002,0.46244024999999994,2.8144701000000003
830,1715673367990,0.6932992555555555,-1.2679805444444445,-0.05866195611111111,-1.9404304555555554,0.2545441488888889,3.0048461555555557
831,1715673368000,0.733109836,-1.2908132,-0.0442159931,-1.9168188000000002,-0.04360051,3.30997325
832,1715673368010,0.8583732549999998,-1.3280957,0.002652593,-1.6657532,-0.340251945,3.6613735
833,1715673368020,0.9487680944444443,-1.3087958,0.034737797888888894,-1.3075231777777776,-0.5757913888888889,4.0076663888888895
834,1715673368030,1.0491466,-1.2637626999999998,0.028599228999999997,-0.8987354999999999,-0.7758752,4.36005075
835,1715673368040,1.11366256,-1.2279497,-0.005073466400000001,-0.6742119599999999,-0.9049052200000001,4.6020753800000005
836,1715673368050,1.1521810222222222,-1.1967907666666666,-0.036702682888888886,-0.6094738222222222,-0.9912645999999999,4.7597432444444445
837,1715673368060,1.2513806,-1.0853343288888888,-0.08364986333333332,-0.7346672555555556,-1.1521766444444443,4.982522255555556
838,1715673368070,1.3417043333333334,-0.91838694,-0.098603312,-1.1791226000000001,-1.2852604333333333,5.155040666666666
839,1715673368080,1.3964974666666667,-0.7701397777777778,-0.12411293044444445,-1.7850839333333335,-1.3906686222222222,5.203401055555556
840,1715673368090,1.43090665,-0.7096145500000001,-0.13448955,-2.2219459,-1.46813825,5.2136586000000005
841,1715673368100,1.46074374,-0.668795128,-0.12519022999999999,-2.62076465,-1.5406022,5.2777993500000004
842,1715673368110,1.4884099499999999,-0.587076965,-0.11473230999999999,-2.93545188,-1.6113709,5.420848879999999
843,1715673368120,1.5321015666666666,-0.5027122833333333,-0.1310035833333333,-3.0051006666666664,-1.6717854333333333,5.529247000000001
844,1715673368130,1.62900359,-0.386211589,-0.175644394,-2.92332624,-1.8191871800000001,5.6572842
845,1715673368140,1.72575933,-0.23911151800000002,-0.223098381,-2.75536884,-2.0137172,5.69801355
846,1715673368150,1.7944610111111112,-0.09894208499999999,-0.2348443166666667,-2.562240288888889,-2.256536133333333,5.659683333333333
847,1715673368160,1.8741946999999999,0.057381395,-0.17446141,-2.3102922,-2.6254988,5.466786
848,1715673368170,1.95932164,0.038185155240000004,-0.0568935632,-2.31553048,-2.80141272,5.25481568
849,1715673368180,2.1384479,-0.0260685944,0.048813822,-2.5284019200000003,-2.77595504,5.268345999999999
850,1715673368190,2.293955,-0.053824279,0.09062859111111111,-2.6684631333333337,-2.7302622999999997,5.354793666666667
851,1715673368200,2.66314325,-0.0498199785,0.132660175,-2.8320324,-2.6902506199999996,5.51418912
852,1715673368210,2.9471353999999996,0.0007683377999999991,0.195865076,-2.83815625,-2.686509,5.69754015
853,1715673368220,3.3680623333333335,0.10999286555555556,0.3355954644444445,-2.6442319666666667,-2.679000333333333,5.872044
854,1715673368230,3.7406147000000005,0.261356715,0.46399049000000003,-2.1579119799999997,-2.65052906,6.13611108
855,1715673368240,4.11771,0.48728454,0.59695555,-1.4564249,-2.57638528,6.490137880000001
856,1715673368250,4.4614434,0.7572392960000001,0.7057485,-1.00456792,-2.4665823199999997,6.6936475799999995
857,1715673368260,4.7115555,0.9813377,0.778704,-0.5671884,-2.24325,6.8626127
858,1715673368270,5.00979825,1.4707686500000001,0.9036136559999999,-0.377239836,-1.4739719980000001,6.76146908
859,1715673368280,5.0820955,1.9732858,0.8906007199999999,-0.5302615900000001,-0.6101322039999999,6.420560399999999
860,1715673368290,4.9284585,2.2708336499999997,0.76879485,-0.7465537,0.11789698999999998,5.839108250000001
861,1715673368300,4.6331091777777775,2.4217944333333334,0.6254633444444445,-0.7137281733333334,0.5123971722222223,5.134390277777778
862,1715673368310,4.29762878,2.44542322,0.50031579,-0.343825501,0.668194978,4.397725670000001
863,1715673368320,3.83283328,2.3403316,0.39513282000000005,0.5416236939999999,0.591134312,3.5835188600000003
864,1715673368330,3.36730005,2.2166232999999997,0.33700138500000004,1.45233215,0.451276705,3.1067844
865,1715673368340,3.135589333333334,2.1757029,0.31843322555555553,1.9020986222222223,0.41279218444444443,2.9072775
866,1715673368350,2.7427208,2.1598213,0.29013887,2.3335052,0.48120909999999995,2.6422975
867,1715673368360,2.42319,2.169273,0.23995303,2.1949916,0.68218374,2.4013114
868,1715673368370,2.01111726,2.14606426,0.1297880596,1.108582949,1.123961558,1.9236757700000002
869,1715673368380,1.4197291399999998,2.03111848,-0.0466856492,-0.46071455199999994,1.59457208,1.2475395200000001
870,1715673368390,1.1619376766666667,1.9534066333333335,-0.16232653666666666,-1.0518081266666668,1.7200437666666668,0.9145670333333334
871,1715673368400,0.8035346860000001,1.84925422,-0.383973618,-1.45550862,1.67123566,0.47238206799999993
872,1715673368410,0.569155172,1.7835309000000001,-0.5246403799999999,-1.44097004,1.44264986,0.1854892346
873,1715673368420,0.25849069199999997,1.695599,-0.60753544,-1.00525515,0.7066947100000001,-0.2824488035
874,1715673368430,0.07144725022222223,1.652040888888889,-0.5367860400000001,-0.6544911888888889,0.054808191111111126,-0.6999837000000001
875,1715673368440,-0.0950177364,1.62008237,-0.374625505,-0.48915033399999996,-0.353080104,-1.0397231999999998
876,1715673368450,-0.229928044,1.6079840600000002,-0.18138254469999998,-0.449291384,-0.49918380199999995,-1.2290150299999998
877,1715673368460,-0.3515449,1.627412,-0.019208437,-0.5358815,-0.5523749,-1.416902
878,1715673368470,-0.502492744,1.71834408,0.21485400000000002,-0.9522778199999999,-0.33154711400000003,-1.67856608
879,1715673368480,-0.48607712999999997,1.8417416,0.326165372,-1.5156788,0.07602217599999998,-1.9518670999999999
880,1715673368490,-0.429018925,1.9296552999999999,0.36435053,-1.83247356,0.36807685599999995,-2.24978598
881,1715673368500,-0.3156756,1.9532712111111112,0.35208016000000003,-1.9937284444444445,0.7216015388888889,-2.813679111111111
882,1715673368510,-0.188029265,1.88358555,0.32364692,-1.6914859,0.923246445,-3.4474179
883,1715673368520,-0.05899124400000001,1.7814149099999999,0.324360372,-1.089768364,0.9485057400000001,-3.8914100599999997
884,1715673368530,0.11578724299999998,1.6560539200000002,0.35837455399999996,-0.11768319700000003,0.8924435980000001,-4.32057351
885,1715673368540,0.21659800666666668,1.6001136777777778,0.38401291555555556,0.4327810711111111,0.8729094777777777,-4.49518751111111
886,1715673368550,0.40227955899999995,1.54860261,0.40899947000000003,1.4266452600000001,0.91139569,-4.833837959999999
887,1715673368560,0.70611438,1.51596646,0.37776594,1.83442832,0.98181316,-5.05341344
888,1715673368570,1.0733065400000001,1.50933198,0.31534768,1.9652909400000003,1.12270924,-5.4174584
889,1715673368580,1.3250908444444445,1.4907374555555555,0.25616670333333336,1.7083015333333333,1.269768288888889,-5.805951688888889
890,1715673368590,1.61338675,1.5438401,0.262271395,1.3530665,1.3290137,-6.16088155
891,1715673368600,1.9468514499999998,1.6183871499999998,0.30340183499999995,0.999681015,1.41926905,-6.541832250000001
892,1715673368610,2.1726878666666667,1.6352377333333332,0.3312998,0.77727512,1.5375478333333334,-6.9143836
893,1715673368620,2.38911508,1.5837143999999999,0.38003436,0.606314272,1.68000158,-7.39269104
894,1715673368630,2.5906998999999997,1.51386885,0.4847539,0.5416847450000001,1.8643607,-7.72591805
895,1715673368640,2.7222318999999997,1.49709952,0.5644475800000001,0.548801337,2.0293401799999997,-7.85920892
896,1715673368650,2.864767422222222,1.5283953,0.6147716255555555,0.6187386111111111,2.185506288888889,-7.900540888888888
897,1715673368660,3.000114,1.5953369,0.63217103,0.8002335,2.3478606,-7.918187999999999
898,1715673368670,3.2866675200000004,1.98332912,0.766373963,1.12991742,2.37067635,-8.0514174
899,1715673368680,3.4021973333333335,2.1319197777777776,0.8294657155555556,1.1859099888888887,2.364540588888889,-8.128579888888888
900,1715673368690,3.6248762999999995,2.3130008,1.04533537,0.7134142299999999,2.44819525,-8.377941000000002
901,1715673368700,3.76075612,2.30673216,1.19639906,0.154854344,2.68930372,-8.4597206
902,1715673368710,3.8248234444444447,2.2041056666666665,1.279810411111111,-0.32097574,3.0510853,-8.434640777777778
903,1715673368720,3.74210877,1.86723084,1.2193942899999999,-0.640721278,3.5531740400000005,-8.26777063
904,1715673368730,3.5986856999999994,1.5870438,1.0940273,-0.30604348,3.897473,-7.8157153
905,1715673368740,3.39613716,1.38727602,0.920163458,0.529986668,3.7320812000000005,-7.361139939999999
906,1715673368750,3.11275464,1.1253583800000002,0.699174966,2.02391866,3.1764992,-6.65162002
907,1715673368760,2.80843214,0.9477016800000001,0.69685775,3.9901105799999996,2.04746756,-5.7463481199999995
908,1715673368770,2.4441466666666667,0.8359972555555556,0.8438229066666667,4.979993977777777,1.393722988888889,-5.014185666666666
909,1715673368780,2.01728848,0.588595326,0.892844796,4.612460400000001,1.4795461600000002,-4.4495122600000006
910,1715673368790,1.5867999,0.077748438,0.6526905249999999,3.26041685,2.2143102,-4.0260602
911,1715673368800,1.2464684222222222,-0.37359904111111114,0.3805777633333333,2.253227344444445,2.6304197777777776,-3.5489743444444444
912,1715673368810,0.9422135319999999,-0.8372439700000001,0.1027742932,1.4038905400000001,2.82577108,-2.8896674399999998
913,1715673368820,0.695680815,-1.2121439,-0.049210188499999995,0.88376933,2.6724591,-2.00211075
914,1715673368830,0.5630816,-1.3711776,-0.08872469,0.66905016,2.5497515,-1.514793
915,1715673368840,0.45120517777777774,-1.4228607999999998,-0.06147377882222222,0.515179991111111,2.3959491666666666,-0.7658043955555556
916,1715673368850,0.319939391,-1.442383,0.00025611261,0.45330781600000003,2.2313074999999998,0.5408753660000001
917,1715673368860,0.31627182888888883,-1.4280508,-0.03126198733333333,0.6210633,2.204510977777778,1.2678847444444445
918,1715673368870,0.37350351000000004,-1.4191194599999999,-0.198035945,0.95751597,2.02917221,2.07601024
919,1715673368880,0.43541566600000003,-1.38442228,-0.28316285199999996,1.11192745,1.6446783,2.53211285
920,1715673368890,0.493839815,-1.3432186,-0.32129923,1.02545954,1.29958526,2.6539652400000002
921,1715673368900,0.50167564,-1.33860252,-0.319067388,0.7070154559999999,0.9066767,2.62818658
922,1715673368910,0.4963772166666667,-1.3515896888888888,-0.2897255611111111,0.3801448352222222,0.638269348888889,2.5532638888888886
923,1715673368920,0.49567528000000005,-1.4017525,-0.22234222800000003,-0.3189022018,0.262275,2.481915
924,1715673368930,0.501785383,-1.45604836,-0.13337973,-0.88402891,0.033246339,2.55563112
925,1715673368940,0.50972486,-1.478074,-0.07152857,-1.260215,-0.08124508,2.6780334
926,1715673368950,0.552080982,-1.51289312,0.028501661,-1.8611231400000001,-0.157511608,3.06440556
927,1715673368960,0.6004009,-1.539663,0.05927175,-2.2511911,-0.19226983,3.4008396
928,1715673368970,0.68661928,-1.51555179,0.0269101064,-2.57081114,-0.37667476899999996,4.05139566
929,1715673368980,0.8089767333333334,-1.4447997,0.0066670551111111115,-2.675980122222222,-0.50404866,4.384179666666666
930,1715673368990,0.970575,-1.3006247,-0.069546738,-2.6647469,-0.834839,4.8768426
931,1715673369000,1.08760008,-1.1904719400000001,-0.146569526,-2.5964369599999997,-1.104734495,5.0416848000000005
932,1715673369010,1.22010776,-1.08018502,-0.23137935399999998,-2.46927012,-1.54982614,5.1529232
933,1715673369020,1.3089381777777778,-1.0034325666666666,-0.2789254844444444,-2.341242966666667,-1.8896607222222224,5.163151922222223
934,1715673369030,1.39239834,-0.927066276,-0.285101996,-2.1063856000000003,-2.3234565,5.08636944
935,1715673369040,1.4352057,-0.89468634,-0.26775953,-1.9475911,-2.5711317,5.029101
936,1715673369050,1.4543044200000002,-0.8849175240000001,-0.240922592,-1.8594891099999997,-2.66803029,5.02429014
937,1715673369060,1.4535604800000002,-0.8804172539999999,-0.23233062599999998,-1.8400330699999998,-2.69661881,5.05124457
938,1715673369070,1.45668261,-0.8475006439999999,-0.233592905,-2.04064115,-2.70677452,5.38242545
939,1715673369080,1.54832208,-0.7967416239999999,-0.247343708,-2.4597710800000003,-2.6839280600000004,5.71265918
940,1715673369090,1.7201207333333333,-0.7495356133333333,-0.24706726,-2.8372993666666666,-2.660403,5.874691077777778
941,1715673369100,1.8927934399999997,-0.71002924,-0.25727110799999997,-3.2001397799999998,-2.661937,5.95483658
942,1715673369110,2.20670196,-0.65448942,-0.265747212,-3.61815484,-2.75283372,5.9739567000000005
943,1715673369120,2.631657644444444,-0.6317441755555556,-0.19773511,-3.9141869555555555,-2.987232777777778,5.987395944444444
944,1715673369130,2.98493644,-0.617792129,-0.0645525465,-3.89136435,-3.23941835,6.1074308
945,1715673369140,3.27293495,-0.575588442,0.08384635500000001,-3.7311343399999997,-3.33617947,6.2219983800000005
946,1715673369150,3.80616128,-0.40434066900000004,0.30421286700000005,-2.99727134,-3.4541986299999996,6.5842110300000005
947,1715673369160,4.298834944444445,-0.16862095555555556,0.46920082777777783,-2.305235711111111,-3.4764511111111114,6.8913912999999996
948,1715673369170,5.04186716,0.361472294,0.6990164200000001,-1.6418225,-3.1801034,7.195503840000001
949,1715673369180,5.48034409,0.926005229,0.8182673109999999,-1.78305458,-2.73844788,7.19052518
950,1715673369190,5.73966398,1.50670988,0.923907578,-2.58389898,-2.0470706,6.7850329799999995
951,1715673369200,5.707080955555556,1.9355195666666667,0.9880657777777778,-3.2269975,-1.4846740222222223,6.152380222222223
952,1715673369210,5.458983160000001,2.12052017,1.02046197,-3.38791972,-1.100443156,5.41104424
953,1715673369220,4.9714607200000005,2.1622236999999997,1.0571958399999999,-2.9643458,-0.81666576,4.63096952
954,1715673369230,4.5477452666666665,2.1494343333333332,1.0867707666666666,-1.9481510999999996,-0.7232135266666666,4.174194866666666
955,1715673369240,4.09256838,2.1660591499999997,1.0914051299999998,-0.46998442999999995,-0.7339545619999999,3.8883099100000003
956,1715673369250,3.7832696,2.1426249,1.062379,0.6733262,-0.73716164,3.7023014999999995
957,1715673369260,3.5431335000000006,2.1267705,1.0371946,1.30312828,-0.641011448,3.5724316600000003
958,1715673369270,3.09013761,2.18802995,0.87240454,2.2606749600000002,-0.06678283900000001,3.22988882
959,1715673369280,2.5000916666666666,2.225597222222222,0.6153272222222221,1.8523130555555558,0.5011131133333333,2.742004422222222
960,1715673369290,2.17129732,2.1745048000000002,0.465722288,1.18904922,0.83955795,2.3039546
961,1715673369300,1.8112031600000003,2.0755723,0.26555209199999996,0.580138732,1.06629588,1.8764863200000002
962,1715673369310,1.5335379111111112,1.9816399666666666,0.11105662266666667,0.16853092888888888,1.1063278666666667,1.5154209
963,1715673369320,1.0798678800000001,1.81436204,-0.0296480728,-0.221102678,0.8569522900000001,0.985600528
964,1715673369330,0.76838019,1.66347512,-0.027324765699999996,-0.329592347,0.583345735,0.6440046939999999
965,1715673369340,0.48657311999999997,1.4824442666666666,-0.002134270666666666,-0.3387587077777778,0.3729502011111111,0.36558586777777774
966,1715673369350,0.28678503600000005,1.3888128,0.013073933800000001,-0.31322116,0.27412578,0.21426098
967,1715673369360,0.013732511999999997,1.34035868,0.0117567848,-0.27763826,0.2180789,0.07086037
968,1715673369370,-0.30770087555555553,1.3443670222222222,-0.020800670888888886,-0.27992899,0.090357148,-0.19904025333333333
969,1715673369380,-0.49946818400000004,1.3915080199999998,-0.0127080587328,-0.320918056,-0.008857544799999999,-0.39522979999999996
970,1715673369390,-0.62207898,1.48630625,0.014147166168,-0.38736492,-0.16271923,-0.79236858
971,1715673369400,-0.6609532199999999,1.5639022,0.077839912,-0.37430767,-0.30199650499999997,-1.17820635
972,1715673369410,-0.6517792222222222,1.5994293333333334,0.16225201444444445,-0.30787607777777776,-0.39292210333333333,-1.5777801333333334
973,1715673369420,-0.6116684511111111,1.6005337444444445,0.23366538666666667,-0.2653700511111111,-0.40177965555555556,-1.7682004222222223
974,1715673369430,-0.5366776588888889,1.6237328777777777,0.3735041866666667,-0.11513112944444444,-0.1970379811111111,-2.2520056333333334
975,1715673369440,-0.4764844322222222,1.659968088888889,0.4362991822222222,-0.03497203833333334,-0.06159557933333334,-2.429292322222222
976,1715673369450,-0.368533673,1.71114258,0.48021705,0.19402607449999998,0.1828472428,-2.70698834
977,1715673369460,-0.168052489508,1.7495776800000002,0.492284815,0.5815742580000001,0.476016746,-3.06306168
978,1715673369470,0.091005310984,1.7892019599999998,0.46966155,1.04461011,0.68768155,-3.4314133599999996
979,1715673369480,0.36048852666666664,1.8566937666666665,0.44793264000000005,1.306012922222222,0.7892718388888889,-3.8927387999999996
980,1715673369490,0.748787604,1.9568946999999999,0.43915976399999995,1.3607939400000002,0.856677418,-4.35791264
981,1715673369500,0.9902881244444445,1.9834422666666667,0.45409830111111105,1.2976474666666666,0.9336566333333334,-4.8309768222222225
982,1715673369510,1.2798186,1.9351496000000001,0.5027366600000001,1.1259315600000002,1.08236155,-5.4646631999999995
983,1715673369520,1.5040755799999999,1.8515836999999997,0.5344336359999999,0.95634008,1.29356824,-5.97386516
984,1715673369530,1.68628133,1.7850309500000001,0.553221316,0.88798424,1.48498285,-6.2595208399999995
985,1715673369540,1.8518153,1.7408942,0.57588726,0.883922,1.6705637,-6.4747133
986,1715673369550,2.12725221,1.74093689,0.649336675,0.9924727600000001,1.81121548,-6.582424350000001
987,1715673369560,2.3472102,1.8079103,0.70418745,1.1777482,1.9775236000000003,-6.72303
988,1715673369570,2.7343059,1.9868232,0.7777893,1.3107641,2.1746802,-7.0087624
989,1715673369580,3.15208642,2.2174464699999996,0.8220053100000001,1.26722465,2.38179412,-7.6405346199999995
990,1715673369590,3.62113806,2.31958664,0.910053138,1.00316294,2.52586662,-8.526610199999999
991,1715673369600,3.84361446,2.34912488,1.001448658,0.8103127499999999,2.56632125,-8.8653345
992,1715673369610,4.107848111111111,2.426977588888889,1.1812477666666668,0.6928569000000001,2.620153788888889,-8.957099666666666
993,1715673369620,4.27058462,2.51032323,1.34381623,0.714147251,2.69185409,-8.877108699999999
994,1715673369630,4.47792,2.60888388,1.61342344,0.837236641,2.8537028600000003,-8.6885804
995,1715673369640,4.5473022,2.55020976,1.72211274,1.05297897,3.23705135,-8.442081499999999
996,1715673369650,4.54050888888889,2.426198444444444,1.7370932444444445,1.2278051888888888,3.5038212555555557,-8.269843
997,1715673369660,4.45249135,2.22894118,1.680726,1.5225510400000002,3.7086545,-8.01986672
998,1715673369670,4.14986418,1.56688408,1.3233455200000002,2.34795216,3.78244706,-7.49623296
999,1715673369680,3.806014725,1.0556865500000001,0.926380325,3.2257884,3.574707075,-7.050034175
1000,1715673369690,3.1469213,0.58527805,0.51881077,4.33179805,2.6379452,-6.49403185
1001,1715673369700,2.620823588888889,0.3314353288888889,0.37927686666666666,4.85162738888889,1.7989981777777777,-5.930211888888889
1002,1715673369710,2.19415244,0.20075562200000002,0.40274301999999995,4.659558,1.26708724,-5.24852384
1003,1715673369720,1.90061094,0.12439750599999999,0.47307639999999995,3.6679099200000005,1.21107086,-4.53946196
1004,1715673369730,1.61339893,-0.087261189,0.51265795,2.39013246,1.5210086,-4.0280302400000005
1005,1715673369740,1.3729865444444445,-0.45965420222222225,0.4659282777777778,1.1220746666666668,1.9685471555555556,-3.6550443555555554
1006,1715673369750,1.3020881,-0.59058326,0.43752554000000005,0.355829,2.3043363,-3.4335208
1007,1715673369760,1.07517252,-0.9633367119999999,0.292870736,-0.380843952,2.7450451,-3.0104050399999998
1008,1715673369770,0.79490002,-1.5191739800000001,0.028708986,-0.60643649,3.00692318,-2.36404864
1009,1715673369780,0.73329481,-1.8226062666666667,-0.1806203,-0.15650029444444444,2.8781255,-1.3610756444444445
1010,1715673369790,0.666746215,-1.95923005,-0.36227725,0.56596665,2.5112669999999997,-0.51419584
1011,1715673369800,0.606102425,-2.0028607000000003,-0.47957065,1.3390929999999999,1.9943222499999997,0.15966491
1012,1715673369810,0.58078591,-2.0104018666666668,-0.5254574466666667,1.7684548999999998,1.5529721666666667,0.5285511666666667
1013,1715673369820,0.557063031,-2.03011235,-0.5403546880000001,1.84536279,1.08378189,0.8116261120000001
1014,1715673369830,0.5220122,-2.0622239,-0.486369835,1.399950411,0.672394665,1.020771058
1015,1715673369840,0.504017219,-2.06752307,-0.404255283,0.42432228,0.387364925,1.223334
1016,1715673369850,0.48563131888888894,-2.066258888888889,-0.29457002666666665,-0.20289210777777777,0.32935818,1.3462622
1017,1715673369860,0.4768571300000001,-2.0740845,-0.20976834000000003,-1.236162195,0.34935384599999997,1.6689144300000003
1018,1715673369870,0.4893781566666666,-2.1049398999999998,-0.1807693488888889,-2.1336335555555554,0.37193209555555556,2.1775988888888893
1019,1715673369880,0.50631004,-2.0706208,-0.19660903200000002,-2.59452808,0.263130204,2.77360316
1020,1715673369890,0.585314628,-1.9632731200000002,-0.196633428,-2.7413800000000004,-0.038209624,3.5721260800000003
1021,1715673369900,0.68077143,-1.8392334666666668,-0.16803825666666666,-2.631980777777778,-0.33797816333333336,4.222622966666666
1022,1715673369910,0.796558654,-1.68080548,-0.14153264000000002,-2.47269086,-0.5557041039999999,4.61844674
1023,1715673369920,0.944969796,-1.45277992,-0.13503225800000002,-2.18271312,-0.9091507400000001,5.0826736
1024,1715673369930,1.0850836666666668,-1.2286692666666665,-0.11933623333333333,-1.9355774000000001,-1.2697343333333333,5.3511795
1025,1715673369940,1.16335452,-1.09891778,-0.11820811499999999,-1.82214997,-1.48064575,5.44479443
1026,1715673369950,1.22312018,-0.99408242,-0.141666804,-1.7860173,-1.5648841,5.4586916
1027,1715673369960,1.2772697,-0.9070041,-0.18342534,-1.7490939222222222,-1.7352475666666667,5.447289022222223
1028,1715673369970,1.3468468,-0.7830335,-0.23129399,-1.8009834000000002,-2.005776,5.394704
1029,1715673369980,1.36367712,-0.724408138,-0.1865840548,-1.9642372000000001,-2.11768658,5.32637846
1030,1715673369990,1.40771632,-0.6690268420000001,-0.12432432639999999,-2.2879348,-2.090839,5.34510158
1031,1715673370000,1.4730738333333333,-0.61566601,-0.14478487666666667,-2.5350229444444445,-2.0112737333333333,5.540666666666667
1032,1715673370010,1.5733845199999998,-0.521676775,-0.203487492,-2.68070575,-2.0326541,5.799402
1033,1715673370020,1.77860983,-0.36748485,-0.27345498600000007,-2.72044248,-2.14893231,5.983654209999999
1034,1715673370030,1.987555,-0.24275808,-0.30922535,-2.7224736,-2.3080015,6.1509547
