id,timestamp,acc_x,acc_y,acc_z,gyro_x,gyro_y,gyro_z
0,1715673261020,2.5388168849999997,-0.2523318066666667,0.5339538978333334,0.257403355,-0.16050484933333334,-0.06034852080000016
1,1715673261030,2.74558096,-1.6140332149999999,0.7367624859999999,2.8358045499999998,0.95333159,-7.1646094300000005
2,1715673261040,3.2524823999999994,-1.5282843400000001,0.836890228,2.6932744,1.08504941,-8.7764536
3,1715673261050,3.2227489999999994,-1.5558225,0.8224259999999999,2.3577871,1.3660474,-8.764847
4,1715673261060,3.205945888888889,-1.5875316555555556,0.8271959288888889,2.2075143,1.5830573,-8.856172
5,1715673261070,3.17862448,-1.59299544,0.800064982,2.15838542,1.67141892,-8.922817
6,1715673261080,3.1249385,-1.5949712,0.7251033,2.17804,1.6510159999999998,-9.015913
7,1715673261090,3.0001932800000004,-1.67641499,0.641464257,2.25789538,1.51109741,-9.0152254
8,1715673261100,2.9093363666666665,-1.7473783,0.5465969233333333,2.3425155333333336,1.2796100333333333,-8.949480999999999
9,1715673261110,2.75994152,-1.7845552599999999,0.45759986799999997,2.3931410000000004,0.90637135,-8.823108
10,1715673261120,2.4029817,-1.7217589400000002,0.39810249400000003,2.35829104,0.332249629,-8.5478983
11,1715673261130,2.192445,-1.6563770999999998,0.3784367,2.29628831,0.19491182999999998,-8.466164899999999
12,1715673261140,1.8877320000000002,-1.6004593,0.3471544,2.1798725,0.16371189,-8.430704
13,1715673261150,1.5198448,-1.5985079,0.31812832,1.9587394,0.33475417,-8.354193
14,1715673261160,1.1841666400000002,-1.65797478,0.255978344,1.5908458,0.77564615,-8.160854
15,1715673261170,0.5893229577777778,-1.8091639,0.011647018888888892,1.1140994888888889,1.2625736611111111,-7.810217555555555
16,1715673261180,0.048795520000000016,-1.91450204,-0.312725578,0.53881372,1.6032159199999998,-7.282460400000001
17,1715673261190,-0.256344232,-1.9673100000000001,-0.536677668,0.20711386799999998,1.67682516,-6.873302820000001
18,1715673261200,-0.5779538,-2.032544111111111,-0.7640350866666666,-0.10318532222222222,1.4052615777777777,-6.134054055555556
19,1715673261210,-0.8249872,-2.0884755,-0.92322457,-0.3220787,1.0627528,-5.4501395
20,1715673261220,-1.5540418500000002,-2.05502224,-0.8441224,0.13735306,0.15344934559999998,-3.7942062
21,1715673261230,-1.8055139199999999,-2.02180698,-0.786265372,0.88245594,-0.1373377758,-2.8035812499999997
22,1715673261240,-2.025667,-2.1175628,-0.7433361,1.5123496,-0.22388211000000002,-1.9761490999999998
23,1715673261250,-2.13542938,-2.2172635400000003,-0.77889912,1.42200262,-0.09752463539999999,-1.5968017399999999
24,1715673261260,-2.3804438,-2.5423434,-0.87651455,0.5719226,0.28298333,-0.904386
25,1715673261270,-2.4942553199999997,-2.72440284,-0.8455859499999999,-0.16123788,0.5831625060000001,-0.61080416
26,1715673261280,-2.59749911,-2.91220657,-0.8000649550000001,-0.6719059759999999,0.9356928400000001,-0.27044530349999996
27,1715673261290,-2.6910717,-3.0683496,-0.81608415,-0.54199016,1.2388347,-0.019242255
28,1715673261300,-2.75774635,-3.21497412,-1.014528725,-0.06061308900000001,1.23263438,0.2333657895
29,1715673261310,-2.7201588333333335,-3.3737607222222223,-1.1438269777777779,0.59849522,1.0194831555555555,0.6680150577777778
30,1715673261320,-2.56000909,-3.4996493900000005,-1.15279899,1.44243609,0.60810106,1.4617088900000001
31,1715673261330,-2.28346244,-3.48560564,-1.0247305,1.90324232,0.262549872,2.4098023
32,1715673261340,-1.965975211111111,-3.3263322444444445,-0.6943900777777778,2.039186911111111,0.2193006211111111,3.2289998222222223
33,1715673261350,-1.50403292,-3.1935889299999998,-0.30833506,2.05620285,0.712803415,4.16009911
34,1715673261360,-0.8347574111111111,-3.0786283222222224,-0.050768544444444445,1.9099719333333336,1.5067500333333335,5.107953233333333
35,1715673261370,-0.41484740000000003,-2.9890585400000003,0.010646963200000002,1.6495805000000001,2.34318744,6.07374144
36,1715673261380,0.19166361999999998,-2.8829427,0.01030547949,1.11815829,3.2179465499999997,7.175284360000001
37,1715673261390,0.6890103888888889,-2.798971,-0.011938365733333333,0.6236934000000001,3.6647334333333337,7.863922466666667
38,1715673261400,1.25543908,-2.6335194399999997,-0.00540885213,-0.32432363,3.95475692,8.6121615
39,1715673261410,1.8758899800000002,-2.40206708,0.05913759782,-1.36285561,3.9576585399999997,9.2158184
40,1715673261420,2.353294422222222,-2.2062736000000003,0.17431234777777777,-2.051591,3.5870006,9.457416
41,1715673261430,2.5918178,-2.1088831666666668,0.30774154666666664,-2.214793666666667,3.1769065333333333,9.423614333333333
42,1715673261440,2.83718994,-2.07386478,0.49610210200000004,-2.27464844,2.43747454,9.3159387
43,1715673261450,3.20104034,-2.06393758,0.9211878800000001,-2.19945083,1.86513956,9.272888400000001
44,1715673261460,3.3210473,-2.0013971,1.1171994,-2.1369593,1.4341589,9.242697
45,1715673261470,3.37573346,-1.82924086,1.35199356,-2.22968866,1.46506866,9.0871698
46,1715673261480,3.34818914,-1.6482302700000002,1.47775686,-2.4428196,1.69573141,8.8254903
47,1715673261490,3.1919546,-1.4875258,1.492892,-2.8693867,2.112372,8.419098
48,1715673261500,3.0644837199999997,-1.43566908,1.4564508,-3.25134544,2.39660757,8.1413211
49,1715673261510,2.8574295111111114,-1.3808597444444444,1.3582295666666666,-3.809219788888889,2.6505444111111114,7.8310889999999995
50,1715673261520,2.65254496,-1.32684574,1.25967102,-4.24676582,2.64571856,7.590428319999999
51,1715673261530,2.48598636,-1.32994348,1.1942038400000001,-4.632191,2.3409884,7.287927600000001
52,1715673261540,2.32092807,-1.47959249,1.14421921,-4.727409870000001,1.84647769,7.141671529999999
53,1715673261550,2.2907436,-1.6460106,1.2018994,-4.7303877,1.3640621,7.1216197
54,1715673261560,2.2553754,-1.8101057,1.3387367,-4.674494,0.7666359,7.2688384
55,1715673261570,2.2846453,-1.9383448,1.4139849,-4.696408375,0.4860196725,7.5078968
56,1715673261580,2.397226544444445,-2.019487822222222,1.4782163666666668,-4.781853,0.19807306,7.836637499999999
57,1715673261590,2.6178968,-1.9583459,1.5548468,-4.8630982000000005,0.012247848799999999,7.9834899
58,1715673261600,2.802155388888889,-1.8224166333333334,1.621625788888889,-4.8901966111111115,-0.2465180771111111,7.932645222222222
59,1715673261610,2.9620691900000002,-1.7137463,1.69862959,-4.7726747000000005,-0.398833927,7.71846575
60,1715673261620,3.05057432,-1.66153595,1.79633647,-4.464814,-0.55955255,7.350847
61,1715673261630,3.0740682333333336,-1.7036494555555555,1.8062638888888887,-4.170105288888888,-0.4291328333333333,7.276134722222222
62,1715673261640,3.131158,-1.6894279,1.7675422,-3.8745655999999995,-0.22495113,7.4513345
63,1715673261650,3.19679626,-1.42182685,1.7233628199999997,-3.641215,0.04062254,7.847022
64,1715673261660,3.3081808,-1.0351824,1.6385713,-3.5784484999999995,0.4175264,8.148789
65,1715673261670,3.547402,-0.3784977,1.3585548,-3.7581955999999996,0.9818132,8.184983
66,1715673261680,3.67609858,0.017031483,1.10203986,-3.88107125,1.12296884,7.929885830000001
67,1715673261690,3.92611342,0.357063519,0.797101355,-3.78078239,0.91681711,7.2984348699999995
68,1715673261700,4.155486399999999,0.475722876,0.6480377900000001,-3.4049017999999998,0.50573534,6.832527799999999
69,1715673261710,4.450930400000001,0.56716725,0.5945875466666667,-2.802700633333333,-0.04718933333333334,6.365266666666667
70,1715673261720,4.75982648,0.71905418,0.593583422,-2.24022612,-0.4073555,5.8950632
71,1715673261730,5.32600571,0.990996805,0.5560385379999999,-1.63214034,-0.47545169400000004,4.84918581
72,1715673261740,5.719968,0.98804545,0.43301308,-1.7792976999999999,-0.2779437,4.223828
73,1715673261750,6.120479,0.9928627999999999,0.37746105,-2.257147,-0.22235495,3.7496436
74,1715673261760,6.442741549999999,1.2319254800000001,0.5220731219999999,-2.43142696,-0.25492932500000004,3.43393323
75,1715673261770,6.81019625,1.58953176,0.661788593,-2.2239160399999998,-0.0729678496,3.0170635
76,1715673261780,7.06950392,1.88692718,0.6717891899999999,-1.8007085799999998,0.23806945929999998,2.1871267
77,1715673261790,7.1559052,2.134271,0.5932663,-1.4369078,0.42562035,0.8729264
78,1715673261800,7.05320428,2.0931222,0.557026369,-1.35234878,0.42348232599999996,-0.17780761999999997
79,1715673261810,6.753199100000001,1.8763595499999997,0.6226582549999999,-1.3438424000000002,0.41731259,-2.03335668
80,1715673261820,6.1218513,1.4112409,0.76922172,-1.3397343400000001,0.626106315,-3.15110262
81,1715673261830,5.1016324,0.8636614866666666,0.8489316333333333,-1.2348641,1.1792754,-4.5274277
82,1715673261840,4.56951657,0.652952736,0.7983637050000001,-1.13736999,1.39949232,-4.82215521
83,1715673261850,3.9969404000000006,0.44362345,0.6846131,-0.9340129500000001,1.6862935,-5.3339224
84,1715673261860,3.59729531,0.339843019,0.652891745,-0.78129667,1.66344718,-5.56482928
85,1715673261870,3.2465978899999994,0.291760916,0.6792225350000001,-0.53626331,1.5422820700000002,-5.8558
86,1715673261880,2.9340737,0.21824445,0.73815286,-0.2723271088888889,1.3626197666666666,-6.127012266666666
87,1715673261890,2.7650881,0.126385426,0.8189868920000001,0.005803219999999998,1.19002662,-6.36255862
88,1715673261900,2.65878914,0.0420024508,0.889295848,0.252944041,1.0674259300000002,-6.52772123
89,1715673261910,2.5888433333333336,-0.045239768444444446,0.9513495711111111,0.5096313022222223,0.9875145666666667,-6.630908177777778
90,1715673261920,2.52981832,-0.157875064,1.0374629560000002,0.9491624,0.878515844,-6.75781896
91,1715673261930,2.5426667,-0.31385367799999997,1.18411785,1.7255721099999999,0.8064642949999999,-6.92250839
92,1715673261940,2.619421,-0.4189269,1.2460483,2.3518312,0.95340794,-7.117649
93,1715673261950,2.68837039,-0.554629912,1.17650163,2.8268402200000002,1.123426994,-7.384703930000001
94,1715673261960,2.7941265,-0.7515073,1.0610986,3.3296738000000006,1.2064588,-7.7650137
95,1715673261970,2.87052114,-0.87517298,1.005241592,3.51989724,1.15087008,-7.990911539999999
96,1715673261980,3.0391407,-1.100674,0.9556045499999999,3.7067304,0.9682214000000001,-8.432536
97,1715673261990,3.11109003,-1.23354145,0.9618610349999999,3.6213312800000006,0.8914967600000001,-8.5936824
98,1715673262000,3.1437470666666667,-1.282520611111111,0.9761409777777779,3.524980888888889,0.8535654333333333,-8.662136777777778
99,1715673262010,3.28036216,-1.3684334200000001,1.04754888,3.2659299400000004,0.8257370999999999,-8.6849916
100,1715673262020,3.448189,-1.3890445,1.1195775,3.05188264,0.8515767000000001,-8.685129
101,1715673262030,3.517955822222222,-1.4117625333333335,1.1378848333333333,2.840981477777778,0.933520861111111,-8.730503
102,1715673262040,3.61271696,-1.43630941,1.1392311300000002,2.76109564,1.014570825,-8.8128461
103,1715673262050,3.77595218,-1.4512371700000002,1.14272529,2.7588049299999997,1.08801204,-9.0289556
104,1715673262060,3.86101804,-1.4809644800000001,1.11349178,2.7833769599999996,1.13529306,-9.2541808
105,1715673262070,3.941246422222222,-1.566358288888889,1.0366593888888889,2.8141034,1.132086,-9.720393
106,1715673262080,3.94065675,-1.6429617,1.0014608500000002,2.8354074000000002,1.08382765,-9.8639465
107,1715673262090,3.8332356400000003,-1.90588546,0.90419301,2.9052293199999997,0.81895649,-10.1659729
108,1715673262100,3.74491364,-1.98499386,0.880575808,2.90219028,0.67638052,-10.160124999999999
109,1715673262110,3.6017140333333333,-2.023431066666667,0.83378852,2.8809931888888887,0.5955935777777778,-10.127196
110,1715673262120,3.41037562,-2.03746644,0.7408542170000001,2.83708725,0.5505422799999999,-10.125168
111,1715673262130,3.0757892,-2.0640838,0.54826367,2.63938066,0.558895872,-10.170036
112,1715673262140,2.95062946,-2.06424845,0.486546667,2.34721926,0.546693836,-10.151236
113,1715673262150,2.5199032,-2.0585957,0.29751736,2.1192443,0.5545129,-10.118372
114,1715673262160,2.09292682,-2.0628214700000003,0.149063566,1.7045736200000001,0.612102253,-9.9970079
115,1715673262170,1.6184663700000002,-2.04716822,0.009524944600000002,1.324386376,0.704159615,-9.861488
116,1715673262180,1.0110955,-2.0401192,-0.08024859,0.95630956,0.8923213999999999,-9.700541
117,1715673262190,0.4191708,-2.16909,-0.25513685,0.46502115999999993,1.3552046,-9.288664
118,1715673262200,0.135160329,-2.34531378,-0.44140382,0.29055805599999995,1.50511092,-8.921534399999999
119,1715673262210,-0.09435305499999999,-2.45802764,-0.5814851649999999,0.187199656,1.4618311,-8.2794844
120,1715673262220,-0.8514033160000001,-2.6498741600000004,-0.9770569800000001,0.220461268,1.01229535,-6.6710150200000005
121,1715673262230,-1.457029388888889,-2.5392877333333335,-1.0730572333333335,0.6192137666666667,0.3798733388888889,-5.299866855555556
122,1715673262240,-1.74824223,-2.64305059,-1.09464315,0.8705440879999999,0.19660698199999999,-4.64957036
123,1715673262250,-1.9342226,-2.80583444,-1.14420092,0.931355696,0.177517442,-4.19490334
124,1715673262260,-2.1412833,-3.1834173,-1.3308094,0.59574634,-0.05100725,-2.8112018
125,1715673262270,-2.2700348700000004,-3.4920695999999998,-1.2701656,0.103144597,-0.240543452,-2.2010847799999995
126,1715673262280,-2.3874564,-3.772476,-1.0735382,-0.6010914,-0.36560285,-1.2660183
127,1715673262290,-2.39735928,-3.9704392,-0.85494012,-0.6958976800000001,-0.38722749,-0.44416013200000004
128,1715673262300,-2.3597244222222225,-4.154463333333334,-0.6133420222222222,-0.44321667222222216,-0.2400530722222222,0.5324878233333333
129,1715673262310,-2.2782061000000002,-4.2043916,-0.54727583,0.17373007000000001,0.143339532,1.46687067
130,1715673262320,-2.0388749600000002,-4.1670479,-0.602815615,0.9201769200000001,0.557689428,2.4687813800000002
131,1715673262330,-1.6753619555555557,-4.015444277777778,-0.6633381333333334,1.3167709666666667,0.7712682777777778,3.104468111111111
132,1715673262340,-1.3246504,-3.874982,-0.66497785,1.7741054000000003,1.1198688,4.2610908
133,1715673262350,-0.9945946059999999,-3.75265166,-0.591217405,1.8018998,1.3674219,5.092936
134,1715673262360,-0.7541971177777778,-3.6854248666666667,-0.47057621777777775,1.7170573111111112,1.7134430555555555,5.9591431111111115
135,1715673262370,0.058844898,-3.5517316,-0.03823394,1.48901452,2.38303099,7.05427197
136,1715673262380,0.53984857,-3.4808128,0.12500729,1.0865766,3.195436,8.093659
137,1715673262390,0.996021474,-3.32329136,0.196377306,0.440861448,4.02120364,9.139063
138,1715673262400,1.3678846555555555,-3.155712533333334,0.21483638555555556,-0.2192157911111111,4.644679866666667,9.958121222222223
139,1715673262410,1.8941409,-2.89626649,0.19320030500000002,-0.9444282139999999,5.0142111,10.5670213
140,1715673262420,2.3218427499999996,-2.67247295,0.20269476000000003,-1.7201201999999998,5.1048482,11.0176415
141,1715673262430,2.9635875,-2.3503811,0.37599754,-2.93893388,4.649112000000001,11.357236799999999
142,1715673262440,3.2142456,-2.2506395777777777,0.5868635177777778,-3.7877887111111113,3.7944234000000003,11.201436222222222
143,1715673262450,3.54320064,-2.1803222399999997,0.974971544,-4.4150286,2.9251282,10.830488
144,1715673262460,3.7688173,-2.1520218,1.39150803,-4.86474744,2.2403789499999998,10.4986967
145,1715673262470,3.9144967,-2.0821335,1.9318198999999998,-5.3404894,1.63437,10.1312
146,1715673262480,3.8858487100000003,-1.99141503,2.21698292,-5.5580640400000005,1.57595595,9.7265627
147,1715673262490,3.66198803,-1.90406246,2.4371300400000004,-5.62910785,1.8490280000000001,9.2358699
148,1715673262500,3.5769499444444444,-1.9127133555555555,2.4409148333333333,-5.617482833333333,1.9150455666666666,9.137135555555554
149,1715673262510,3.34943928,-2.02475218,2.35741802,-5.466938600000001,2.0730322,8.8689696
150,1715673262520,3.20771152,-2.10445204,2.31078114,-5.34459745,2.0479408900000005,8.8241472
151,1715673262530,3.19830862,-2.0686695,2.2979146,-5.35316476,1.8803959,8.8220856
152,1715673262540,3.1867307666666664,-1.8783278333333335,2.3069910444444446,-5.458098011111111,1.5689734777777777,8.545020666666666
153,1715673262550,3.0662766,-1.852852,2.3078785,-5.498551,1.2536482,8.051509
154,1715673262560,2.979381,-2.0705476,2.2898898,-5.2500815,0.73884153,7.7234745
155,1715673262570,2.890758066666667,-2.2325084,2.269292377777778,-4.684691722222222,0.15784079222222222,7.790398322222221
156,1715673262580,2.84609292,-2.28903007,2.17336457,-3.69231396,-0.38896845199999996,8.128081179999999
157,1715673262590,2.8504713,-2.2076898,1.9673709,-2.49185686,-0.766025048,8.50910875
158,1715673262600,2.95306258,-2.0369968399999996,1.7241370599999999,-1.5704735600000002,-1.0586294600000001,8.6800591
159,1715673262610,3.03154272,-1.9000742,1.6071302800000002,-1.20248825,-1.17507565,8.6898635
160,1715673262620,3.2071383111111107,-1.609978711111111,1.4997622444444445,-1.0553715333333331,-1.1002870555555555,8.509946888888889
161,1715673262630,3.3859901999999997,-1.3196807,1.53298575,-1.6472744499999998,-0.6562983250000001,8.404055000000001
162,1715673262640,3.6257238300000005,-0.832701065,1.56259729,-3.62081219,0.707855379,8.318289600000002
163,1715673262650,3.8161924,-0.40271862399999997,1.45137732,-4.65233463,1.4415350180000002,8.2072646
164,1715673262660,4.015957471428571,-0.06185901057142857,1.2469890857142858,-5.442765642857142,2.0645064285714283,8.021315428571429
165,1715673262670,4.251156222222223,0.2402579151111111,0.9428327444444444,-5.331428111111111,2.0994928444444443,7.772853044444444
166,1715673262680,4.4979698,0.6831313440000001,0.6433607400000001,-4.33686845,1.3772414400000001,7.25691103
167,1715673262690,4.63458136,1.3395781900000001,0.51762165,-2.8089264299999996,0.35088099500000003,6.2649273
168,1715673262700,4.643808,1.8609622999999997,0.30184686,-1.1293371,-0.622319,4.696943
169,1715673262710,4.61468412,1.9109774000000002,0.243014172,-0.700876224,-0.8979413600000001,4.18894736
170,1715673262720,4.63492306,1.7657249,0.118933767,0.203937369,-1.5218026999999998,3.09823216
171,1715673262730,4.858474666666667,1.4371774,0.026505610533333335,0.6507751022222222,-1.7557284888888889,2.684973288888889
172,1715673262740,5.3075657,1.2197663,-0.06280854,0.93352424,-1.56876312,2.71117272
173,1715673262750,5.609331233333333,1.3041614333333333,-0.2012719,1.057255,-1.0873401,2.5557075
174,1715673262760,6.0845623,1.37961715,-0.468515136,1.01780845,-0.8825475300000001,2.15285715
175,1715673262770,6.46097434,1.27953197,-0.643141192,0.8188037940000001,-0.88659453,1.3440410000000003
176,1715673262780,6.631809955555556,1.0981264,-0.6382011888888889,0.21288654,-1.1049025,-0.20433442
177,1715673262790,6.442998,0.7968757,-0.3413004,-0.8674286309999999,-0.9581116,-1.6743053019999998
178,1715673262800,6.2508892,0.6380859799999999,-0.138410512,-1.72575545,-0.54425038,-2.55088164
179,1715673262810,5.755423944444445,0.31528939333333333,0.21386071333333334,-3.1968276,0.6132238466666666,-3.781934711111111
180,1715673262820,5.3322747,0.197718852,0.44312342000000005,-3.8311636800000004,1.444299276,-4.3232156
181,1715673262830,4.478439011111111,0.2003640088888889,0.5921890022222223,-4.302697311111111,3.0718716111111113,-4.945870422222223
182,1715673262840,4.021570049999999,0.24697782199999999,0.47343614800000006,-4.01827164,3.7278663,-5.350690999999999
183,1715673262850,3.5760488333333336,0.19420510666666668,0.34876020222222226,-3.2499388666666666,3.5992181111111115,-5.734888088888889
184,1715673262860,3.26520267,0.07451044999999999,0.39722439,-2.4282657,3.13916015,-5.9880832
185,1715673262870,3.096705,-0.034514207,0.57668,-0.865183723,2.18834845,-6.3659183399999995
186,1715673262880,2.9878098888888887,-0.13506207633333334,0.8123577244444444,0.32803464,1.6372715,-6.7137146
187,1715673262890,2.93322,-0.25983223,1.09482,1.0613784,1.5180001,-7.022354
188,1715673262900,2.9526356,-0.365448126,1.24185296,1.38367088,1.68146762,-7.24470896
189,1715673262910,2.9828079799999996,-0.44580646799999996,1.3168084800000002,1.57080946,1.8476841,-7.394859679999999
190,1715673262920,3.0116864000000003,-0.5265076555555556,1.3239728222222222,1.7511979666666668,2.0333668,-7.528048666666667
191,1715673262930,3.09721731,-0.74982425,1.23499886,2.30623004,2.25193943,-7.81450888
192,1715673262940,3.2020159999999995,-0.9696297000000001,1.0431097,3.1256447,2.0157025,-8.211862
193,1715673262950,3.2271531555555555,-1.0859712555555554,0.9559365222222223,3.5641781333333333,1.4738311,-8.499426666666666
194,1715673262960,3.23117638,-1.2295534700000001,1.01196152,4.01934068,0.601549537,-8.8035604
195,1715673262970,3.2787766599999997,-1.39384955,1.14910979,4.181479599999999,0.0321162401,-8.927734300000001
196,1715673262980,3.362818,-1.4675856,1.2717816,4.2041273,-0.3013093,-9.036987
197,1715673262990,3.43218811,-1.48377561,1.3533899100000002,4.167017329999999,-0.370306513,-9.159863099999999
198,1715673263000,3.4905017000000003,-1.5382198666666667,1.4377261666666667,4.077915866666667,-0.27276829222222226,-9.428586222222224
199,1715673263010,3.5453530399999997,-1.60766694,1.47657396,4.00645144,-0.187138566,-9.525252
200,1715673263020,3.6132594499999997,-1.6809517499999997,1.5046,3.83249225,0.0006872199999999884,-9.640064
201,1715673263030,3.68910548,-1.73384508,1.52223518,3.498975,0.4032627059999999,-9.8293408
202,1715673263040,3.7123508000000003,-1.744431,1.5230157,3.3655619999999997,0.57864213,-9.907776
203,1715673263050,3.6447046666666663,-1.8893175999999998,1.3223129,3.0424991555555554,0.9653198288888889,-10.167580333333333
204,1715673263060,3.4705682,-2.0375578,1.1645192,2.9095511,1.0102184,-10.287276
205,1715673263070,3.3093395,-2.086768,1.0863439,2.9820914,0.9731083500000001,-10.312474
206,1715673263080,3.1676910200000004,-2.1415394799999996,1.01691907,3.1002938,0.938334852,-10.3160479
207,1715673263090,2.961426166666667,-2.155647511111111,0.9180887911111112,3.2216183333333333,0.8804434588888889,-10.315765888888889
208,1715673263100,2.76336248,-2.15901019,0.8311277340000001,3.2554078600000005,0.8480489600000001,-10.3130392
209,1715673263110,2.5077508285714285,-2.111029057142857,0.6746038428571429,3.1629076,0.7699956,-10.270935
210,1715673263120,2.27906595,-2.07481609,0.55459945,3.03227388,0.66726339,-10.214491200000001
211,1715673263130,1.98453048,-2.03396012,0.43364726,2.8628504,0.5424789000000001,-10.1523666
212,1715673263140,1.17449536,-1.9156606,0.147776916,2.5461321999999997,0.375804295,-10.0877678
213,1715673263150,0.6572334666666667,-1.9267993999999997,-0.07443523666666667,2.2218697333333335,0.39619701,-10.017783
214,1715673263160,-0.055430062,-2.1964087,-0.28849244,1.4851661,0.50656,-9.660528
215,1715673263170,-0.6450924762,-2.4875352800000003,-0.585430444,0.9692293599999999,0.595364532,-8.36285233
216,1715673263180,-1.1908011,-2.6792417,-0.9845696,0.8546004999999999,0.43799036999999996,-7.2134023
217,1715673263190,-1.7618101,-2.7690032,-1.3455054,1.1372783,-0.09972375,-5.864001
218,1715673263200,-1.9999270777777776,-2.863588533333333,-1.4910421999999999,1.253071188888889,-0.9586002388888887,-4.339960111111111
219,1715673263210,-2.1163795399999996,-2.94180578,-1.3805439800000001,1.17835906,-1.6264898000000003,-3.0092138
220,1715673263220,-2.144637233333333,-3.0412139000000002,-0.9857892666666667,0.7147462333333334,-1.9166236333333333,-1.5789847888888888
221,1715673263230,-2.12954489,-3.00285197,-0.45133733000000004,0.008399378000000013,-1.426248137,-0.744033836
222,1715673263240,-2.039936,-2.8064442,0.20867069999999996,-1.5554156,0.32696563,0.5849035
223,1715673263250,-1.9418815999999999,-2.84142188,0.2063291,-2.19890104,1.6221221659999998,0.9732916600000001
224,1715673263260,-1.86449297,-2.9934734400000003,0.021275628,-2.43484776,2.7585453299999996,1.4040891100000001
225,1715673263270,-1.7715667,-3.2383597,-0.45289226999999993,-1.960572,3.431841,1.9526308000000003
226,1715673263280,-1.6976356400000001,-3.3336335499999996,-0.7430677429999999,-1.082056152,3.1595629799999996,2.3614218399999998
227,1715673263290,-1.50520978,-3.38885632,-1.084173012,0.718102644,2.16171462,3.23992237
228,1715673263300,-1.21536972,-3.32291947,-1.17222079,2.1071796399999996,1.1692571600000001,3.8983894599999998
229,1715673263310,-0.9114556444444444,-3.236652311111111,-1.043990422222222,3.453238111111111,0.1540737911111111,4.658950533333333
230,1715673263320,-0.690552504,-3.17235576,-0.89695478,3.9172956,-0.20534234599999998,5.06844064
231,1715673263330,-0.3065219533333333,-3.1003434,-0.5728789466666666,4.171768666666667,-0.3119994244444444,5.744933088888889
232,1715673263340,0.203206985,-3.05220856,-0.0713090305,3.76360192,0.273331664,6.3623753800000005
233,1715673263350,0.686942548,-2.9913696599999997,0.329933887,2.80886527,1.478904792,7.03457171
234,1715673263360,1.0546347999999999,-2.9013887666666665,0.48809759333333325,1.0887146,3.4863608,7.8181586
235,1715673263370,1.54221195,-2.76301494,0.5464648000000001,0.16459764000000005,4.4048577600000005,8.199460519999999
236,1715673263380,1.8974886999999998,-2.6408858,0.5277137,-1.4306464,5.666233,8.8737335
237,1715673263390,2.19545746,-2.46470474,0.5278905779999999,-2.4043656,6.0975042,9.282646699999999
238,1715673263400,2.3806267,-2.324648,0.59588844,-3.7143661999999997,6.2702265,9.798737
239,1715673263410,2.5116587000000004,-2.2169830399999997,0.7480924879999999,-4.616965219999999,5.9954743200000005,10.095342800000001
240,1715673263420,2.62876911,-2.12003843,0.9659893030000001,-5.2745925,5.72991607,10.2744023
241,1715673263430,2.74848344,-2.0031962400000003,1.393447091,-6.33145049,5.48358468,10.4086553
242,1715673263440,2.8191143555555556,-1.8907675333333331,1.7624334222222222,-7.493772644444444,5.378685611111111,10.354793888888889
243,1715673263450,2.83022616,-1.7857749200000002,2.060608,-8.57273,5.18540615,9.998871
244,1715673263460,2.7115485599999998,-1.7365525300000002,2.24786294,-9.213863700000001,4.242947840000001,8.9065065
245,1715673263470,2.5562197555555555,-1.8076461555555556,2.2888260666666667,-8.893043666666665,3.579636377777778,8.189428999999999
246,1715673263480,2.2951949,-2.1468937,2.370809,-7.884743,2.24157,7.0302954
247,1715673263490,2.20480547,-2.48814517,2.49363317,-7.2696785,1.4320208099999998,6.729016799999999
248,1715673263500,2.16907782,-2.84514143,2.58263235,-6.792516000000001,0.77839506,6.7815204
249,1715673263510,2.2434099555555553,-3.1611531888888886,2.5914384888888886,-6.556314844444445,0.44703458888888886,7.176274977777778
250,1715673263520,2.303223866666667,-3.2405752000000003,2.538115566666667,-6.429187033333333,0.27068118333333335,7.415259166666666
251,1715673263530,2.4134335800000004,-3.25333606,2.41666532,-6.12170985,-0.122936625,7.8309105
252,1715673263540,2.77422288,-3.10727872,2.19790874,-5.48285164,-0.9540187600000001,8.1985444
253,1715673263550,3.2344096666666666,-2.8010441777777775,2.3052157222222225,-4.650364377777778,-1.912364588888889,8.396512666666668
254,1715673263560,3.5331938000000003,-2.4484966,2.6041155,-4.2358923,-1.8791742,8.39283
255,1715673263570,3.628158777777778,-2.1596449555555552,2.6591863444444446,-4.192588744444445,-1.323965577777778,8.307987333333335
256,1715673263580,3.6190893,-1.6622922299999998,2.39776173,-4.32901868,-0.06731735000000001,8.068125
257,1715673263590,3.6745436,-1.3400782,1.9533455,-4.3357687,0.74128497,7.927351
258,1715673263600,3.8167959799999998,-0.87358759,1.18253852,-3.6969564,0.73471814,7.671704
259,1715673263610,4.012917,-0.45691693000000005,0.6274756,-2.9533043599999997,0.012705996200000014,7.48134306
260,1715673263620,4.2650046,-0.0037197291,0.34550798,-2.2017112,-0.95096445,7.265937
261,1715673263630,4.5275076400000005,0.62558528618,0.319311308,-1.6421584799999998,-1.7998228900000002,6.902960439999999
262,1715673263640,4.71950684,1.2887337159999999,0.435110756,-1.35143241,-2.26272129,6.23024519
263,1715673263650,4.834055888888888,2.086679966666667,0.7224879311111111,-1.651949288888889,-1.9424157777777777,4.927968555555555
264,1715673263660,4.7457647,2.1879325,0.8838321,-2.52707311,-0.825263705,3.68951913
265,1715673263670,4.61019574,2.1250508200000002,0.7535805480000001,-3.15131636,0.36154060200000004,2.93817014
266,1715673263680,4.6579547,2.1509793,0.39069352,-3.1668782,0.9437868,2.616183
267,1715673263690,4.843616033333333,2.1197578999999998,0.21340676,-2.7310258666666667,0.7609344933333334,2.575866
268,1715673263700,5.22636591,2.0116905,0.027397941199999998,-1.9569984900000001,0.24222335109999998,2.35997105
269,1715673263710,5.88689244,1.69361092,0.0825048112,-1.046595424,-0.8205447174,1.21415576
270,1715673263720,6.14352915,1.39184945,0.25166101999999996,-0.8484154650000001,-1.19637955,0.30108019999999996
271,1715673263730,6.289608111111111,0.9214765222222222,0.5501066388888889,-0.9225252777777777,-1.2666969,-0.8560766888888889
272,1715673263740,6.20132535,0.42860427650000005,0.83678663,-1.2992798200000002,-0.752326345,-1.86622384
273,1715673263750,5.88139807,0.0542409673,1.1047291099999998,-1.97187306,0.43768494599999996,-2.8046350999999996
274,1715673263760,5.6505127,0.033111688,1.2125708,-2.3828325,1.4327844,-3.3104315
275,1715673263770,5.393424522222222,0.13235866755555556,1.253874,-2.4701185444444445,2.0053686666666666,-3.668805722222222
276,1715673263780,4.8973713000000005,0.301895666,1.18623386,-2.28228428,2.7153722700000005,-4.311761850000001
277,1715673263790,4.5632544,0.34678853,1.0424999,-1.5885551,3.1488576,-5.1763196
278,1715673263800,4.111737066666667,0.3021246811111111,0.8227038111111111,-0.8863315444444444,3.0116166222222223,-5.707907866666667
279,1715673263810,3.64665186,0.17152221399999998,0.66406312,0.170156504,2.36427763,-6.27108134
280,1715673263820,3.3850690666666665,0.06865576999999999,0.6394817444444444,0.9740416622222222,1.6003142666666668,-6.582293444444445
281,1715673263830,3.15311699,-0.039276680999999994,0.726646042,1.61963289,0.81315329,-6.7602166
282,1715673263840,2.98951591,-0.14609388399999998,0.911553208,2.31973026,-0.10864238000000001,-6.9215919999999995
283,1715673263850,2.8963427999999998,-0.27964284624999997,1.2219463375,2.8609109624999998,-0.58956134,-7.096898625
284,1715673263860,2.9177041333333333,-0.3829423933333333,1.3915513888888889,3.1202487333333333,-0.42047890666666665,-7.297532
285,1715673263870,2.967761288888889,-0.5144947911111112,1.4657291222222222,3.2942436,0.08659015,-7.553196
286,1715673263880,3.03312828,-0.62365224,1.36362844,3.3929289600000003,0.532460689,-7.8052695299999995
287,1715673263890,3.1370122,-0.74028707,1.2077534,3.5703547,0.66813385,-8.202699
288,1715673263900,3.148042666666667,-0.75879764,1.202705688888889,3.618748788888889,0.6239479611111112,-8.342586777777777
289,1715673263910,3.2679346000000002,-1.01690084,1.1609702199999998,3.6939021600000004,0.45115454,-8.701348
290,1715673263920,3.315742,-1.3042834,1.2172052,3.65065289,0.24588852499999997,-9.074738700000001
291,1715673263930,3.3402423555555556,-1.3946409111111113,1.2316233333333333,3.5527243444444445,0.1577050411111111,-9.306022666666667
292,1715673263940,3.35159802,-1.46310976,1.25357312,3.493233,0.12721269,-9.426078799999999
293,1715673263950,3.40089362,-1.54218754,1.2888068799999999,3.50764928,0.114185987,-9.5408749
294,1715673263960,3.4949905800000005,-1.6150393099999998,1.3117533399999999,3.4936605,0.08182539600000001,-9.605337
295,1715673263970,3.5488045,-1.6545477,1.3419076,3.442531,0.04138612,-9.720241
296,1715673263980,3.56943997,-1.68028716,1.35090805,3.3602016999999997,0.080832742,-9.8875105
297,1715673263990,3.5864289,-1.6952208,1.3442857,3.2236886,0.18234327,-10.14922
298,1715673264000,3.580086944444444,-1.7281766222222221,1.3348543222222222,3.1288009555555556,0.26786441666666666,-10.326371555555555
299,1715673264010,3.55426835,-1.86192571,1.25393288,2.9822442,0.387685626,-10.55550695
300,1715673264020,3.48985606,-1.94295474,1.1661534000000002,2.89580675,0.420840322,-10.6667456
301,1715673264030,3.40399728,-1.99517727,1.09199053,2.84873949,0.414838578,-10.7014581
302,1715673264040,3.2732600333333335,-2.0533717666666664,0.9723331666666666,2.744922933333333,0.3172935866666667,-10.641883666666667
303,1715673264050,3.02121278,-2.01139768,0.8198832140000001,2.59953712,0.046792279400000004,-10.545611599999999
304,1715673264060,2.7971144,-1.8854148,0.7507755,2.52211,-0.15302174,-10.567053
305,1715673264070,2.6398492,-1.8463882000000003,0.69949204,2.4431555,-0.27885997,-10.600345
306,1715673264080,2.388615,-1.8083371,0.6121089,2.29842632,-0.38881573300000005,-10.622885499999999
307,1715673264090,2.0415826,-1.7682738,0.5772288,1.968666,-0.42348233,-10.645549
308,1715673264100,1.734898,-1.7607937333333332,0.5425519599999999,1.601994177777778,-0.12000108355555555,-10.684032666666667
309,1715673264110,1.31250951,-1.8465650100000002,0.42345153,1.3624280199999999,0.20990857519999997,-10.692676350000001
310,1715673264120,0.6597519000000001,-2.3179400400000003,-0.012781232999999998,1.021580475,0.692140848,-10.40046955
311,1715673264130,0.41584743,-2.48798045,-0.175772445,0.780991225,0.8938485500000001,-10.042625
312,1715673264140,-0.2920292466666667,-2.8380517,-0.55108908,0.43223807555555555,0.8569251555555556,-9.198578666666668
313,1715673264150,-0.88541144,-3.12239546,-0.796192842,-0.040347655999999996,0.6077498400000001,-7.6654116000000005
314,1715673264160,-1.3026776666666666,-3.3569234000000003,-0.8924504733333334,-0.25563014222222225,0.2527285288888889,-6.026321222222222
315,1715673264170,-1.65497464,-3.5100524300000004,-0.9205171380000001,-0.32921056000000004,0.011682797600000001,-4.80011805
316,1715673264180,-1.9033427,-3.623626,-0.9062114400000001,-0.3622431,-0.111177474,-3.510948
317,1715673264190,-2.0446620500000003,-3.8895256000000002,-0.8931496680000001,-0.12638802,0.011010846,-2.64270999
318,1715673264200,-2.168663,-4.1021905,-0.8618186,0.14309518,0.06078109,-1.7421877
319,1715673264210,-2.2068224666666665,-4.197806055555556,-0.7244122000000001,0.41146865555555556,0.09648277,-0.5117693177777778
320,1715673264220,-2.10671434,-4.19597052,-0.550239406,0.68629183,0.306944518,0.703777804
321,1715673264230,-1.8519982,-4.17484128,-0.40734083600000004,1.193508544,1.058675332,2.33231401
322,1715673264240,-1.5414313800000001,-4.0974466,-0.545202545,1.5126856,1.64648039,3.0468125299999995
323,1715673264250,-1.1635435,-3.9616337,-0.8237676,1.9023107700000002,2.28500247,3.8984653299999996
324,1715673264260,-0.7870987533333333,-3.7838455222222223,-0.9855114222222223,2.0888197444444447,2.5531451444444446,4.881882177777778
325,1715673264270,-0.3108108,-3.494899,-0.9439575,1.8961257,2.4329236,5.675549
326,1715673264280,-0.016153379399999997,-3.3085771300000006,-0.7790942399999999,1.4795157,2.4368942,6.278473
327,1715673264290,0.44831883999999994,-3.0089562,-0.4468553699999999,0.97894209,2.6348146399999997,6.8267394999999995
328,1715673264300,0.6606076533333334,-2.8705131555555554,-0.3151945711111111,0.4396532888888889,2.937718988888889,7.413969644444445
329,1715673264310,1.052392,-2.703904311111111,-0.12293400888888889,-0.10998967777777778,3.2549446,8.008816866666667
330,1715673264320,1.39464232,-2.5108659700000002,0.049899256,-0.81373362,3.5996150399999998,8.6748362
331,1715673264330,1.5803056,-2.35876565,0.142020485,-1.48527299,3.87934555,9.2103668
332,1715673264340,1.8444979,-2.1171052,0.270351145,-1.9999728,4.071187849999999,9.5575215
333,1715673264350,2.0774925444444445,-1.9190482444444446,0.3676569433333333,-2.7814221666666668,4.229427533333332,9.896424
334,1715673264360,2.44524019,-1.63416852,0.524975742,-3.5914906,4.115277239999999,10.0013912
335,1715673264370,2.6820467,-1.4293517,0.6608312,-4.15366996,3.7292711599999997,9.8366413
336,1715673264380,2.8199952333333336,-1.3871811222222223,0.8445817777777777,-4.585613,3.018896,9.451765
337,1715673264390,2.96036784,-1.4346934,1.05858612,-4.811144199999999,2.43906264,9.274736200000001
338,1715673264400,3.11331574,-1.5024961700000001,1.34749325,-5.09857167,1.6103170599999999,9.2102749
339,1715673264410,3.2208586,-1.4854525,1.7394307,-5.247026966666667,1.1435906333333332,9.175348666666666
340,1715673264420,3.1963572000000005,-1.45518856,1.9555896500000003,-5.3775992,0.77442443,8.999267
341,1715673264430,3.1460067,-1.43416905,2.1489973,-5.39224474,0.8416654290000001,8.782470700000001
342,1715673264440,3.027473455555556,-1.4185312555555556,2.2829177888888887,-5.378023577777778,0.9346917555555555,8.529375333333334
343,1715673264450,2.8921505499999998,-1.4695674,2.27345585,-5.2109247199999995,1.04280812,8.037673000000002
344,1715673264460,2.6271350399999998,-1.67097556,2.15818087,-4.64572196,0.7922616600000001,7.537954600000001
345,1715673264470,2.4213607,-1.9774325,2.019752,-3.827987,0.33383787,7.505854
346,1715673264480,2.4393563444444446,-2.232406633333333,1.9781777777777778,-3.104383233333333,-0.14757485666666667,7.733316277777778
347,1715673264490,2.61276232,-2.3871758400000003,1.9387350900000002,-2.01387,-0.8503244000000001,8.301048
348,1715673264500,2.9545627,-2.3149521,1.8945008999999997,-1.2550226,-1.2948816,8.782257
349,1715673264510,3.2798985700000003,-2.17077921,1.9277589599999998,-0.8187732499999999,-1.4736972,9.1379631
350,1715673264520,3.5532987,-1.9860001,2.01717867,-0.66694267,-1.3862211599999998,9.402758700000001
351,1715673264530,3.7717688000000003,-1.6937695600000002,2.10451312,-0.812420245,-0.7417736850000001,9.5433796
352,1715673264540,3.8761677333333333,-1.353297122222222,2.110522922222222,-1.17547445,0.12996158555555556,9.541290555555555
353,1715673264550,3.89259895,-1.218046669,2.07192583,-1.5367843,0.896597495,9.5020085
354,1715673264560,3.90429483,-0.6327442169999999,1.6480595900000001,-2.32049384,2.68435582,9.1760202
355,1715673264570,3.87511644,-0.306676434,1.22455928,-2.40760312,3.34140237,8.69006185
356,1715673264580,3.7872943999999995,0.09470064,0.3664848,-1.9285015999999997,3.3110423,7.945677
357,1715673264590,3.74353568,0.269784032,-0.074321408,-0.9783464900000001,2.5199108,7.3722578400000005
358,1715673264600,3.7454624,0.5539957,-0.5429585,0.28527406,1.2411255,6.866125600000001
359,1715673264610,3.8642255,0.95012863,-0.67681388,0.914358346,0.292894617,6.55192696
360,1715673264620,4.074613933333333,1.390860377777778,-0.6888139,0.89858276,-0.31978795,6.014121
361,1715673264630,4.2239538,1.54630984,-0.659331168,0.364197848,-0.217651286,5.58504924
362,1715673264640,4.38545124,1.6182164,-0.6064988060000001,-0.43545529599999994,0.167987952,5.17164612
363,1715673264650,4.6592963111111105,1.7715870555555555,-0.5157550266666667,-2.4341961644444448,1.238800811111111,4.457279877777777
364,1715673264660,5.0484653,2.0907927,-0.28202865,-4.161672,2.2492058,3.7866008
365,1715673264670,5.28575951,2.12118471,-0.243355662,-4.5883157,2.65318644,3.30607894
366,1715673264680,5.639963,2.12799,-0.23775777000000003,-4.6437974,3.026532,2.3808472
367,1715673264690,5.8729343,2.08216416,-0.28874246400000003,-3.82311548,2.8343842500000003,1.49350444
368,1715673264700,6.04370596,1.9865183600000003,-0.33694039499999995,-2.310888,2.1631959800000002,0.57422861
369,1715673264710,6.136211733333334,1.858976966666667,-0.37700031222222224,-0.5608082266666666,1.1522955222222222,-0.3607668333333333
370,1715673264720,6.163506320000001,1.78592738,-0.362039411,0.190925932,0.637101938,-0.85053822
371,1715673264730,6.0780864800000005,1.62886941,-0.136465275,1.332404002,-0.19845484099999997,-2.06414428
372,1715673264740,5.94839584,1.44731612,0.036050889999999995,1.7420655,-0.4750699,-2.79693822
373,1715673264750,5.497251533333333,0.9758292933333332,0.15712299000000002,1.6002124333333334,-0.3978259866666667,-3.8109846
374,1715673264760,5.24417172,0.799144192,0.14821596399999998,1.3215153599999998,-0.3021034,-4.1399254
375,1715673264770,4.510385,0.6248535,0.12110463,-0.0027488936,-0.07498371,-4.658764
376,1715673264780,4.2159839,0.5738444300000001,0.255222208,-0.35488216908,-0.014905112399999998,-4.909875
377,1715673264790,3.8688845999999995,0.4698445,0.46270993000000005,-0.66691214,0.09758572,-5.3705745
378,1715673264800,3.6761412399999998,0.36120402,0.612377186,-0.594952212,0.173333008,-5.7530981
379,1715673264810,3.4391030999999996,0.14586218,0.7965709,-0.21548271,0.25152376,-6.3241353
380,1715673264820,3.3138518000000006,-0.020671938,0.8866371,0.178571184,0.22430972199999996,-6.63530976
381,1715673264830,3.1456714,-0.25355136,1.0191449,0.9621128000000001,0.12385293,-7.101614
382,1715673264840,3.067069,-0.34148335,1.0871977,1.29491216,0.141690202,-7.28181912
383,1715673264850,2.9974554,-0.44529428600000004,1.1853985,1.63870712,0.30008755200000004,-7.49705728
384,1715673264860,2.9898696399999998,-0.515395924,1.2242421799999998,1.7504954600000002,0.434600092,-7.590229599999999
385,1715673264870,3.026823,-0.6219875,1.2201931,1.9523252777777778,0.9394598444444444,-7.867401288888889
386,1715673264880,3.0871375800000003,-0.6984919549999999,1.14857308,2.1966715,1.1884383,-8.238129
387,1715673264890,3.118826933333333,-0.8577872144444445,1.0250529888888888,2.501017988888889,1.1266730555555555,-8.648765444444443
388,1715673264900,3.0989003,-1.0720748,0.9772521,2.9064968,0.7805331,-9.092271
389,1715673264910,3.0571296,-1.1851912,1.0115834,3.1215215,0.46120324999999995,-9.279348
390,1715673264920,3.0266644900000004,-1.27092177,1.0429083799999999,3.2500322499999994,0.201967314,-9.3531406
391,1715673264930,3.029628,-1.3863614,1.0824412,3.360217,-0.11713341000000001,-9.390526
392,1715673264940,3.03687228,-1.40439896,1.10157646,3.3039563199999997,-0.193461024,-9.3921754
393,1715673264950,3.085877977777778,-1.4494883555555556,1.1445790777777778,3.0726013777777776,-0.2936225711111111,-9.380379
394,1715673264960,3.1315547500000003,-1.4592315,1.16567785,2.95356408,-0.294711942,-9.3875634
395,1715673264970,3.2213707,-1.4563532000000001,1.22065662,2.653507,-0.241291764,-9.435943599999998
396,1715673264980,3.2866306199999995,-1.4496821500000001,1.2464873300000001,2.5141686699999997,-0.185993196,-9.54956485
397,1715673264990,3.3740382,-1.478257,1.2694643,2.4048238,-0.0983493,-9.8126335
398,1715673265000,3.40444272,-1.54208383,1.28439206,2.4211645,-0.06414085,-10.0075
399,1715673265010,3.4269073,-1.694733,1.2726963,2.45098978,-0.037614025,-10.134499
400,1715673265020,3.3741603,-1.8066906999999999,1.1852521,2.477652411111111,-0.07457646666666667,-10.151732222222224
401,1715673265030,3.2441528000000006,-1.8122399000000002,1.1543356,2.46132882,-0.24271203400000002,-10.06979275
402,1715673265040,3.14486648,-1.78893368,1.13623696,2.4557698300000004,-0.344757084,-10.0128602
403,1715673265050,2.9687030333333335,-1.7637343555555554,1.0878615666666667,2.4629576444444443,-0.41796758,-9.98754488888889
404,1715673265060,2.6666556100000003,-1.79015317,1.00358904,2.40916084,-0.45032986700000005,-9.9780102
405,1715673265070,2.31261068,-1.85649862,0.8977841160000001,2.2357973600000003,-0.347460166,-9.881998
406,1715673265080,1.8451484000000002,-1.9154030444444448,0.7232129144444444,2.0136663777777777,-0.13332134333333334,-9.748510444444445
407,1715673265090,1.32465052,-1.9999947200000001,0.491943326,1.81054344,0.096425074,-9.625893000000001
408,1715673265100,0.60716957,-2.1829932,0.1302515,1.53867792,0.30986139599999996,-9.325376600000002
409,1715673265110,0.13836174,-2.3694675,-0.13610551,1.1404175,0.37069338,-8.622566555555556
410,1715673265120,-0.385809078,-2.53855671,-0.310737649,0.772393277,0.297369208,-7.78758486
411,1715673265130,-0.9338349000000001,-2.6061277,-0.33184862,0.31108314,0.2826779,-6.419888500000001
412,1715673265140,-1.2461092,-2.6174698,-0.3595332,0.17510452399999998,0.45653014000000003,-5.461074259999999
413,1715673265150,-1.4120403666666668,-2.6381688,-0.41451607777777777,0.14287459000000002,0.5805595288888888,-4.81114061111111
414,1715673265160,-1.63436375,-2.6932669000000002,-0.5060966149999999,0.175547395,0.75411314,-3.72818675
415,1715673265170,-1.78346993,-2.77295453,-0.575929947,0.283594188,0.9027061359999999,-2.2378130599999997
416,1715673265180,-1.7856528999999999,-2.8709602,-0.59680307,0.33643404,1.0071641,-1.4839444
417,1715673265190,-1.7783965,-3.1368904,-0.6004009,0.3200934,1.098183,-1.0383182
418,1715673265200,-1.7932875400000001,-3.2789961400000003,-0.62469496,0.301538365,1.1715632,-0.8948412149999999
419,1715673265210,-1.8080526333333333,-3.546019966666667,-0.7248390266666667,0.40933061666666665,1.3930782,-0.41783180999999997
420,1715673265220,-1.8056542,-3.7584512000000005,-0.85389125,0.9063713,1.5233452,0.28939742
421,1715673265230,-1.7883360400000001,-3.8196254400000003,-0.9146752899999999,1.39836218,1.52383392,0.5926309
422,1715673265240,-1.73971732,-3.8958371200000004,-1.0450120799999998,2.19709902,1.5031866600000001,1.1693488140000001
423,1715673265250,-1.6857081777777778,-3.9537807,-1.1951103444444444,2.9442516888888886,1.3720881777777778,1.8230255666666666
424,1715673265260,-1.52718668,-3.9061058600000003,-1.23609646,3.4597268800000003,0.9805914,2.7997787
425,1715673265270,-1.11444311,-3.69083128,-0.8314753099999999,3.4147215199999996,0.86011357,3.92012084
426,1715673265280,-0.76089805,-3.5308155999999995,-0.45423386,3.082884,1.1731668,4.656015
427,1715673265290,-0.41464478777777775,-3.4379650222222224,-0.11930913111111112,2.349167111111111,2.0076087555555557,5.4497326
428,1715673265300,0.064613529,-3.36061064,0.147075644,1.1862086900000002,3.22920163,6.45883119
429,1715673265310,0.5452757088888889,-3.2011556999999997,0.2838986466666667,-0.27030787,4.533078,7.674910999999999
430,1715673265320,0.9517506749999999,-3.0360428799999997,0.349691124,-1.347599257,5.20298373,8.5129109
431,1715673265330,1.46042062,-2.82053652,0.395510889,-2.87679343,5.81867437,9.6067572
432,1715673265340,1.8112154400000002,-2.6162257600000003,0.45733157999999996,-4.09450761,5.99255742,10.3758212
433,1715673265350,2.3387408222222223,-2.3330493444444445,0.5911455933333333,-5.5525782999999995,5.9723446,11.128403333333333
434,1715673265360,2.7680152,-2.0949026799999997,0.780862642,-6.8212880600000005,5.567151,11.3807554
435,1715673265370,3.3172666399999997,-1.8281553599999998,1.100808174,-7.936453,4.69900449,11.1664791
436,1715673265380,3.5402307200000003,-1.74351624,1.39011768,-8.569523,3.3243287,10.55117
437,1715673265390,3.672924311111111,-1.7037173333333333,1.896729977777778,-8.515902555555556,2.205766566666666,9.901074000000001
438,1715673265400,3.648079,-1.7236981,2.377029,-8.1283407,1.5029729,9.2866637
439,1715673265410,3.50030178,-1.7661579500000002,2.67361937,-7.32993993,1.07275572,8.567965300000001
440,1715673265420,3.2454333,-1.8541324999999997,2.7141218,-6.234185,0.89644474,7.963697399999999
441,1715673265430,2.96219124,-2.03161844,2.54492288,-5.4657317,0.787313647,7.79835147
442,1715673265440,2.84832478,-2.19227422,2.4121162000000003,-4.9534755200000005,0.527421034,7.90850554
443,1715673265450,2.8020334222222223,-2.322364488888889,2.3090302777777776,-4.659153977777778,0.2152960511111111,8.132584777777778
444,1715673265460,2.80199275,-2.4453560999999997,2.2330571,-4.2067235499999995,-0.459447005,8.66352025
445,1715673265470,2.931329533333334,-2.4160759333333335,2.3036506666666665,-3.857359566666667,-0.9553932333333334,9.097972333333333
446,1715673265480,3.3316698000000002,-2.23564272,2.50569512,-3.4030234,-1.2318098100000001,9.4669759
447,1715673265490,3.5025826,-2.1273193,2.5649667,-2.9967523,-0.99005985,9.496511
448,1715673265500,3.5349624,-1.9856646000000002,2.446728,-2.414445,-0.46105054000000006,9.489486
449,1715673265510,3.5114184,-1.83699126,2.09268906,-1.6221527000000002,0.068264194,9.504453
450,1715673265520,3.5090216400000003,-1.58821458,1.55667614,-0.8618087149999999,0.2355343564,9.400131300000002
451,1715673265530,3.5261204,-1.3278214,1.0934784,-0.12492193999999998,0.14966199,9.08433
452,1715673265540,3.5683991555555554,-1.1572965999999998,0.9570476977777778,0.11304400666666664,0.04907284333333333,8.816227777777776
453,1715673265550,3.59374635,-1.0332797790000001,0.9468235079999999,0.04358523494,0.139552171,8.6847934
454,1715673265560,3.62136987,-0.876538899,0.93372519,-0.22482895148,0.43771547800000005,8.593469
455,1715673265570,3.6905324999999998,-0.33126935040000005,0.742207938,-1.33006739,1.5496429600000001,8.391195499999998
456,1715673265580,3.7748678888888887,-0.04757052800000001,0.4693092166666667,-2.183690622222222,2.2167451444444444,8.275408333333333
457,1715673265590,3.907179,0.21580528000000002,0.20793895,-2.7146852,2.5276077,8.1209955
458,1715673265600,4.0877995,0.5787533,0.04768571,-2.7154486,2.390163,7.825184
459,1715673265610,4.2781157,1.1039059,-0.12445848,-2.484405933333333,1.9959512666666666,6.947981333333334
460,1715673265620,4.34446098,1.38148302,-0.22812307999999998,-2.3530224,1.7446005599999999,6.275968600000001
461,1715673265630,4.42421569,1.64746187,-0.28652890599999997,-2.3062301300000003,1.30250217,4.80628797
462,1715673265640,4.47129754,1.6915315400000002,-0.252764741,-2.36985163,1.0910359299999999,4.07295943
463,1715673265650,4.604320022222222,1.5697122222222224,-0.14730534,-2.504649288888889,0.7638191288888889,3.1348926
464,1715673265660,4.81884194,1.33746834,0.02264766999999999,-2.54733856,0.611353948,2.74437322
465,1715673265670,5.2191641099999995,1.07228213,0.30110902500000003,-2.45036382,0.6101932999999999,2.3878112199999997
466,1715673265680,5.6849998444444445,1.1337789555555555,0.4689027133333334,-1.9282979666666666,0.9004493222222221,1.979780322222222
467,1715673265690,6.0538772000000005,1.30461885,0.41345702700000003,-1.0868361199999999,1.05227644,1.375073
468,1715673265700,6.2488403,1.3560548,0.22763525,0.07574729,0.9034697000000002,0.26251933
469,1715673265710,6.1954835,1.3095751111111111,0.026017781111111117,0.8758450411111111,0.5250047488888889,-0.9395276300000001
470,1715673265720,6.00231383,1.12649256,-0.120824118,1.4538593,0.014966198,-2.1644483
471,1715673265730,5.83151096,0.920151244,-0.11211629599999999,1.62474884,-0.3250719208,-2.78707268
472,1715673265740,5.34357992,0.405096804,0.05518614399999999,1.56970992,-0.704602528,-3.7505904
473,1715673265750,4.989504419999999,0.258704115,0.1736869605,1.1528859599999999,-0.6423859120000001,-4.16185534
474,1715673265760,4.6266722,0.24698596333333336,0.27284111333333333,0.5932519466666667,-0.33821573000000005,-4.4778968
475,1715673265770,4.41333656,0.266039922,0.317738041,0.249996596,-0.11187996800000002,-4.6861918000000005
476,1715673265780,3.9418762000000003,0.34197116,0.38971785,-0.45478915999999997,0.46486846000000004,-5.484195
477,1715673265790,3.7689121111111112,0.33736385333333335,0.4830566322222222,-0.4417573911111112,0.5026063266666667,-5.893475
478,1715673265800,3.5797212000000003,0.3030055,0.57857037,-0.17547104,0.48075095,-6.374226
479,1715673265810,3.43953,0.23818462000000004,0.6651608,0.24098633,0.34254268,-6.8015265
480,1715673265820,3.3375726,0.15299673,0.7194932,0.5550474230000001,0.212932357,-7.12067298
481,1715673265830,3.210980025,0.0027135705,0.7624835,1.0038807,0.028099802250000003,-7.495163925
482,1715673265840,3.0725167222222223,-0.1945980817777778,0.7929121244444444,1.4443060333333333,-0.17613282077777778,-7.803379333333333
483,1715673265850,2.97545415,-0.318433204,0.804443264,1.6859728,-0.31974215699999997,-7.93468148
484,1715673265860,2.8914858000000003,-0.43452533200000004,0.8237431879999999,1.98433476,-0.4892114,-8.07456968
485,1715673265870,2.8487435333333333,-0.54651562,0.8162468066666667,2.1604945555555557,-0.7098763333333333,-8.185271444444446
486,1715673265880,2.88448536,-0.669856168,0.808108116,2.2462126000000002,-0.9961685200000001,-8.3577666
487,1715673265890,2.93257966,-0.7991137349999999,0.8336157140000001,2.26470665,-1.20584797,-8.5333141
488,1715673265900,3.0076756,-0.9791425500000001,0.9251759600000001,2.2024746,-1.5070046,-8.773094
489,1715673265910,3.0729964,-1.0202181099999998,1.059330072,2.1351572400000003,-1.63235412,-8.9010092
490,1715673265920,3.11659636,-1.04814652,1.181947,2.12492518,-1.5817134200000003,-9.1483792
491,1715673265930,3.1813136799999997,-1.1599639800000001,1.2712266399999999,2.16959477,-1.33292328,-9.416091300000001
492,1715673265940,3.206853722222222,-1.2553713222222223,1.300794088888889,2.1686903555555554,-1.2220359333333333,-9.467003444444446
493,1715673265950,3.2344570500000005,-1.3778243,1.3266018,2.1080195500000003,-0.97379555,-9.479560000000001
494,1715673265960,3.2858870199999997,-1.46459768,1.31554014,1.99307002,-0.66917234,-9.4474896
495,1715673265970,3.3690015099999995,-1.47751917,1.26322615,1.9075489399999999,-0.546189908,-9.439395600000001
496,1715673265980,3.4442866,-1.4303883,1.1523234,1.9150625000000001,-0.65270954,-9.588294
497,1715673265990,3.5342305000000005,-1.4820987,1.138542,1.9774776499999998,-0.84332999,-9.872849800000001
498,1715673266000,3.6111863,-1.5580788,1.1958015,1.9825630999999997,-0.9315694999999999,-10.038196
499,1715673266010,3.59845374,-1.6565235,1.29638052,1.95067601,-0.8124965979999998,-10.2814573
500,1715673266020,3.4960575,-1.7454067,1.317211,1.8947513000000002,-0.5184719,-10.460762
501,1715673266030,3.3187363499999996,-1.82235022,1.2134854599999998,1.7960965999999998,-0.048716504,-10.521543
502,1715673266040,3.12895695,-1.86843841,1.03369442,1.76256008,0.1459051606,-10.4507589
503,1715673266050,2.8147376,-1.896513,0.75040966,1.6985618,0.15286902555555557,-10.258006
504,1715673266060,2.60860972,-1.8845185,0.614499256,1.6491529,-0.0013439019999999969,-10.098274700000001
505,1715673266070,2.2718277700000002,-1.83828414,0.47168606,1.54877245,-0.357585245,-9.857532500000001
506,1715673266080,1.6225337,-1.7435774,0.3369709,1.2646438,-1.0783299,-9.369909
507,1715673266090,1.3335534,-1.7423442333333332,0.3465988166666667,1.1214297555555557,-1.1257059,-9.225609444444444
508,1715673266100,0.760959,-1.8790731,0.2666619,0.7388873300000001,-0.6579935399999999,-8.9098664
509,1715673266110,0.418719537,-2.1258191699999998,0.021178064700000002,0.46683849899999996,-0.44892489199999996,-8.529022659999999
510,1715673266120,-0.073723815,-2.3165987,-0.17562,-0.15271631,-0.20952677999999997,-7.4693546
511,1715673266130,-0.5189327,-2.3803828,-0.28751677,-0.643852,0.093767814,-6.579935
512,1715673266140,-0.873959543,-2.52054943,-0.43015313499999996,-1.07666524,0.46679266440000006,-5.9196509
513,1715673266150,-1.063671828,-2.62349442,-0.515444708,-1.23990375,0.623846115,-5.674174649999999
514,1715673266160,-1.4255303333333333,-2.883379633333333,-0.7302458333333334,-1.4108442333333333,0.8044077199999999,-5.1792211
515,1715673266170,-1.7839090599999998,-3.3295113200000004,-0.936701,-1.15972768,0.608543972,-4.33555501
516,1715673266180,-2.13354525,-3.8703418800000002,-1.0223705600000002,-0.43429465,0.07305948500000001,-2.86718767
517,1715673266190,-2.2671444,-4.038955,-0.8943204,0.09184359399999999,-0.148959492,-1.8341687199999999
518,1715673266200,-2.271535,-4.1083493,-0.7645568,0.70371675,-0.12950343,-0.45845437
519,1715673266210,-2.1894814,-4.16820666,-0.687820608,1.09662535,0.199508594,0.753624486
520,1715673266220,-2.00267779,-4.13399716,-0.622261936,1.36268765,0.79933241,2.06107464
521,1715673266230,-1.703453,-4.016515,-0.5862537,1.4176655,1.4179709,2.876259
522,1715673266240,-1.45698143,-3.9501086800000005,-0.67620411,1.3483934,1.9929019699999997,3.54492732
523,1715673266250,-1.1853375400000001,-3.7700860400000002,-0.67185628,1.17441898,2.37455528,4.12844108
524,1715673266260,-1.00215002,-3.62998627,-0.5913088710000001,1.06774659,2.59820838,4.46837243
525,1715673266270,-0.8106570999999999,-3.5512233999999996,-0.4729340766666667,1.0398453,2.6600127,4.5594983
526,1715673266280,-0.21023177200000004,-3.4855204800000004,-0.216049186,1.016159055,3.1592729299999998,5.231694249999999
527,1715673266290,0.180656879,-3.4872828,-0.1035670135,0.842581702,3.7435044599999996,6.743799579999999
528,1715673266300,0.7469338,-3.4691656,0.09031015,0.34238997,4.3041563,8.893129
529,1715673266310,1.2698911599999998,-3.3340848800000003,0.268027838,-0.303538934,4.527122459999999,9.895681
530,1715673266320,1.8699262000000003,-3.0541415,0.4607586,-1.296748128888889,4.916939288888889,10.96053411111111
531,1715673266330,2.32209274,-2.84844055,0.591375968,-2.1163121,5.10055671,11.422034
532,1715673266340,2.8456049200000004,-2.61901855,0.760465094,-3.08260924,5.108818599999999,11.6873794
533,1715673266350,3.17486828,-2.4626071400000002,0.9301579600000001,-4.11162696,4.7494622,11.6754525
534,1715673266360,3.342227466666667,-2.3866840333333332,1.0409957666666667,-4.731813155555555,4.250841777777778,11.595614
535,1715673266370,3.5523108,-2.3343741000000002,1.2374503000000001,-5.2083135,3.59921815,11.519849500000001
536,1715673266380,3.846369377777778,-2.2971666444444443,1.6244579888888888,-5.931162,2.036115633333333,11.442964777777778
537,1715673266390,4.104386,-2.189518,2.3073907,-6.0843706,0.95829487,11.371257
538,1715673266400,4.15575456,-2.0580957599999996,2.6670703000000002,-5.77896829,0.631451392,11.101589999999998
539,1715673266410,4.10503222,-1.9371374799999999,2.84753204,-5.38208936,0.8115650200000001,10.717569399999999
540,1715673266420,4.004847777777778,-1.801866688888889,2.9836835666666666,-5.127093988888889,0.9709703111111112,10.466564777777778
541,1715673266430,3.8943369000000003,-1.7871774999999999,2.9121942599999997,-4.93521086,1.31647566,10.1397518
542,1715673266440,3.2912896,-1.902733,2.3864198,-4.7676506,2.363743,9.066615
543,1715673266450,3.1319143599999997,-2.0586505300000004,2.17232798,-5.11277396,2.29735729,8.959407899999999
544,1715673266460,3.050191422222222,-2.3199456333333335,1.9661446222222223,-5.331937,1.8887444333333332,8.987507333333333
545,1715673266470,3.0480802799999998,-2.46009482,1.8904396599999997,-5.3655346,1.2190732199999998,9.1239748
546,1715673266480,3.2495980799999997,-2.6221102099999998,1.91061756,-4.9369364000000004,0.08526149999999999,9.5015807
547,1715673266490,3.8163947333333335,-2.5138051666666663,2.266372066666667,-3.9378918888888887,-1.1984157666666666,9.964213444444445
548,1715673266500,4.132131,-2.1752489,2.5675278,-2.7630963,-1.6641496,10.072251
549,1715673266510,4.2036595,-1.6818665,2.6499717,-2.09360313,-1.21305619,9.7643754
550,1715673266520,4.1053615,-1.3208088,2.4924016,-1.8535179,-0.27183503,9.162368
551,1715673266530,3.9611456,-1.1349442,2.2759864,-2.1552854,0.8541423,8.60144
552,1715673266540,3.8583533599999997,-1.01618128,2.07413323,-2.69241917,1.88291583,8.21439635
553,1715673266550,3.7911847,-0.9104860699999999,1.89210433,-2.99070466,2.3759758,8.03487834
554,1715673266560,3.75508507,-0.6146456,1.4124299900000001,-3.2090584300000002,2.77294647,7.79464059
555,1715673266570,3.8114827666666664,-0.28267908666666663,0.94533972,-2.8707611666666666,2.6643396,7.593224922222223
556,1715673266580,3.85929844,0.022245188,0.646257222,-2.43442014,2.32577772,7.4729591
557,1715673266590,4.12947276,0.8319204389999999,0.1877548605,-1.1091785,0.91415983,6.7572384
558,1715673266600,4.335131,1.2613541,0.048051585,-0.8014552,0.39461896,6.0057216
559,1715673266610,4.432874239999999,1.5037097,0.00326848347,-0.85615819,0.118080253,4.84376436
560,1715673266620,4.524959,1.5014291,0.048112564,-1.438435,0.22739457999999999,3.516293
561,1715673266630,4.6851023,1.21972361,0.14190462040000001,-2.19094444,0.7330535680000001,2.7823385000000003
562,1715673266640,4.82037882,1.02538908,0.15964345200000002,-2.60680636,1.16043012,2.4900395
563,1715673266650,5.126783022222223,0.7873630244444444,0.0740761348888889,-2.984025866666667,1.7751574111111112,2.3169947777777775
564,1715673266660,5.58338692,0.7941682919999999,-0.0910418956,-2.4595572,1.68705706,2.43304568
565,1715673266670,5.80159458,0.89101541,-0.14810620000000002,-1.5935335400000001,1.182665638,2.37412774
566,1715673266680,6.1999347333333334,1.1410624666666667,-0.20635349333333333,0.7774617333333332,-0.2934189377777778,1.4387912111111112
567,1715673266690,6.3050383199999995,1.0485246,-0.21537840800000002,2.5984986,-1.55788962,-0.06157522799999997
568,1715673266700,6.1201254,0.58592442,-0.12373892400000001,3.40157258,-2.34080514,-1.580858192
569,1715673266710,5.7624707,0.10896978,0.057015523,3.1839824,-2.5772405,-2.8429668
570,1715673266720,5.2871985,-0.22897679,0.33709285,1.9851593,-2.0239494,-3.6667186999999997
571,1715673266730,4.844252249999999,-0.343074902,0.518091238,0.53649239,-0.8717505539999999,-4.17430187
572,1715673266740,4.3795238,-0.3650823,0.5752165,-0.9941831999999999,0.6632469,-4.7166433
573,1715673266750,4.033162377777778,-0.30377788222222224,0.47721621555555555,-1.6453656,1.5179152555555555,-5.106918233333333
574,1715673266760,3.9106918,-0.27643076200000005,0.436610852,-1.7827491600000003,1.72444204,-5.2438504
575,1715673266770,3.6585367499999997,-0.234275862,0.430793433,-1.58207991,1.63042987,-5.55864455
576,1715673266780,3.3234255,-0.19470648,0.49649241999999993,-0.6282749,0.8727737,-6.2141795
577,1715673266790,3.2101507,-0.22934264799999998,0.610499044,0.11795807600000001,0.26032022,-6.59487062
578,1715673266800,3.124024,-0.31946984,0.7407749,1.1018482,-0.48380527000000006,-7.1426945
579,1715673266810,3.0463972,-0.48033289999999995,0.8613307000000001,1.5990925,-0.83276206,-7.540062399999999
580,1715673266820,3.0402994,-0.6077794,0.9772521,1.7837266000000003,-0.8772025,-7.783645000000001
581,1715673266830,3.07125229,-0.75288541,1.10298516,1.8301523,-0.6052147,-8.029823
582,1715673266840,3.07205738,-0.878496324,1.18100184,1.8088942199999998,-0.26496278799999995,-8.202820599999999
583,1715673266850,3.0856678,-1.0148762,1.1317734,1.8324430000000003,0.21777347,-8.466898
584,1715673266860,3.10357132,-1.0701965999999998,1.09552732,1.89035308,0.328950934,-8.647958
585,1715673266870,3.13020094,-1.21558309,1.04629882,2.02431572,0.358822236,-9.016004599999999
586,1715673266880,3.1499399699999997,-1.4341263300000002,1.06156804,2.14644301,0.30108021100000004,-9.3270721
587,1715673266890,3.1397766333333332,-1.5938734333333333,1.1206141333333333,2.2834142333333336,0.21359921333333334,-9.542173
588,1715673266900,3.12612735,-1.6701583500000001,1.16445815,2.4651161,0.150272846,-9.6394532
589,1715673266910,3.1673371,-1.775134,1.20341167,2.86460674,0.03246748718,-9.7042966
590,1715673266920,3.2182364,-1.9004158,1.2227542,3.11952082,-0.06846272086,-9.666683500000001
591,1715673266930,3.239538533333333,-1.9215551777777777,1.2208029111111112,3.148501177777778,-0.11531778599999999,-9.632887222222223
592,1715673266940,3.3101186333333334,-1.914712,1.2347603333333332,3.0940325,-0.14782938,-9.662361
593,1715673266950,3.3860512875,-1.9068033249999998,1.22970595,3.04084895,-0.21303925375,-9.802268250000001
594,1715673266960,3.4580919100000003,-1.91028223,1.2356026199999999,2.99525554,-0.324980318,-10.0182206
595,1715673266970,3.51966868,-1.91492884,1.24052358,2.974761,-0.42146648600000003,-10.2111622
596,1715673266980,3.55185338,-1.96495007,1.2362184299999999,2.9264873899999997,-0.550893551,-10.5152663
597,1715673266990,3.5424626,-2.0614617,1.2244617,2.804652044444444,-0.6381505688888889,-10.737619666666667
598,1715673267000,3.47863568,-2.1122269200000003,1.21771134,2.6255904899999996,-0.6517779459999999,-10.851119899999999
599,1715673267010,3.3504210799999994,-2.1347708499999998,1.15060979,2.47719591,-0.54663273,-10.9459571
600,1715673267020,3.1858566,-2.1947012,0.9901796600000001,2.3738225,-0.46028697,-11.023064
601,1715673267030,2.9102307333333335,-2.3142745333333337,0.7518460066666667,2.2456763666666664,-0.5619621077777778,-10.968493333333335
602,1715673267040,2.6041155,-2.2767181,0.6272317,2.0202842,-0.78893244,-10.784826
603,1715673267050,2.3588815,-2.0514855400000003,0.6839179719999999,1.6322777299999998,-0.829203768,-10.6850412
604,1715673267060,2.1040862,-1.8812073000000002,0.71150494,1.2843442,-0.57940567,-10.70297
605,1715673267070,1.8605896444444445,-1.9192448333333334,0.66967322,0.6105089166666667,0.19693618222222223,-10.772218666666667
606,1715673267080,1.47698868,-2.062596,0.507749128,-0.16221527599999996,1.1307115360000002,-10.7685464
607,1715673267090,0.8426345599999999,-2.31995244,0.127458652,-1.187369352,2.46276428,-10.517969599999999
608,1715673267100,0.18789714333333332,-2.528779088888889,-0.25461515166666665,-1.427015188888889,3.1108990444444444,-9.879472444444444
609,1715673267110,-0.5411291,-2.7407696,-0.73546976,-0.9848675200000001,3.11351902,-8.9918748
610,1715673267120,-1.0577446,-2.922,-1.1862278,0.7646506,2.0083723,-7.112304
611,1715673267130,-1.4291322000000002,-3.0429336000000005,-1.51663724,1.8686061999999999,0.9334937400000001,-6.2178752
612,1715673267140,-1.6655647,-3.166587266666667,-1.6737155333333333,3.117907033333333,-0.5385286333333332,-5.193728933333333
613,1715673267150,-1.83043613,-3.3169131399999996,-1.32453463,4.251775,-2.3785565,-3.7979019000000003
614,1715673267160,-1.8973058000000003,-3.4958745999999996,-0.8351707000000002,3.722002,-2.2632558,-3.0387492
615,1715673267170,-1.97485313,-3.6864773200000003,-0.58408897,2.6954278,-1.50621045,-2.52608058
616,1715673267180,-2.033082,-3.8521393600000002,-0.49069935600000003,1.45665405,-0.39936842799999994,-1.8374369099999999
617,1715673267190,-2.092012257142857,-4.0563780000000005,-0.49289456857142866,0.3517274805714286,0.7896959971428572,-0.9170178428571428
618,1715673267200,-2.07320644,-4.20981297,-0.72348734,-0.1979203324,2.14004428,0.93686877
619,1715673267210,-1.8888906000000003,-4.164328,-0.9874357000000001,0.345597,2.281429,2.060143
620,1715673267220,-1.62458265,-4.0763539,-1.0681659700000001,1.4193149100000002,1.9613202399999998,3.27707818
621,1715673267230,-1.26982406,-3.8541333700000004,-1.0958506,2.20233729,1.6600720599999998,4.1257689200000005
622,1715673267240,-0.880179425,-3.57346463,-0.9865209799999999,2.79919838,1.3410935499999999,4.9340503
623,1715673267250,-0.5130787055555556,-3.341041911111111,-0.7402532488888889,2.954127377777778,1.3138014,5.528177911111111
624,1715673267260,-0.275705102,-3.2167427099999997,-0.548044173,2.86963118,1.5057828,5.9852272200000005
625,1715673267270,0.039404735999999996,-3.08726558,-0.331507164,2.39608826,2.14157136,6.81575966
626,1715673267280,0.31375138222222226,-2.9746248555555557,-0.18737544166666667,1.9092083333333332,2.6477953666666667,7.473172633333332
627,1715673267290,0.771581617,-2.7639357099999997,0.011836053899999996,1.04951229,3.35386401,8.43215511
628,1715673267300,1.3407001749999998,-2.4937186000000002,0.15674085720000003,-0.46842678,4.21023606,9.7252803
629,1715673267310,1.8739995600000001,-2.2624857,0.268924214,-1.8133077100000001,4.480773,10.4472459
630,1715673267320,2.4078233,-1.9372473000000001,0.38782752,-2.700788,4.476115,10.773983
631,1715673267330,2.6863273,-1.71869786,0.46446612,-3.3454952,4.14258244,10.7433174
632,1715673267340,2.9168897,-1.5468341799999998,0.647684114,-3.9290239999999996,3.4618955399999995,10.435839000000001
633,1715673267350,3.0208673555555556,-1.4432685777777778,0.8765687444444444,-4.353484,2.6214772444444443,10.012285111111112
634,1715673267360,3.07264875,-1.37697065,1.0519821,-4.5610255,2.1600957999999997,9.857991
635,1715673267370,3.15080572,-1.29051438,1.3249431399999998,-4.8228575,1.60695735,9.7110015
636,1715673267380,3.254932444444444,-1.2094608555555557,1.7141244111111111,-5.056742555555555,1.2814425777777778,9.603717666666666
637,1715673267390,3.2833013,-1.16659245,2.01740425,-5.33198331,1.2955688200000002,9.3829201
638,1715673267400,3.2328289,-1.13701753,2.18595066,-5.4403048400000005,1.50908152,9.16383365
639,1715673267410,3.08378974,-1.07311742,2.11612352,-5.28823015,1.67233524,8.78459365
640,1715673267420,2.8821805,-1.0454879,1.9710905999999997,-4.9394565,1.6052011,8.291884
641,1715673267430,2.771550722222222,-1.1219693222222222,1.8820338888888888,-4.586512055555556,1.2928453666666668,7.896994222222222
642,1715673267440,2.6234701599999997,-1.1688975000000001,1.83987564,-4.206417999999999,0.9120829,7.534259400000001
643,1715673267450,2.4572775,-1.2086071,1.849986,-3.8615846400000002,0.599778064,7.2317279999999995
644,1715673267460,2.3564423000000003,-1.27724518,1.8609621600000001,-3.61885736,0.440433846,7.089182839999999
645,1715673267470,2.2802820333333336,-1.3600455,1.8732462888888888,-3.512848488888889,0.42332961555555554,7.119820877777777
646,1715673267480,2.2320204400000003,-1.42254646,1.86185254,-3.50761872,0.511263672,7.29870946
647,1715673267490,2.204092,-1.4587437,1.8534617,-3.509268,0.5691737,7.4136133
648,1715673267500,2.3873420125,-1.4826551375,1.5947728875,-3.7401560000000003,0.8939631275,8.246318125
649,1715673267510,2.5424856333333334,-1.3841255000000001,1.5065309999999998,-3.8136657333333335,0.8715859377777777,8.334288777777779
650,1715673267520,2.8213842,-1.1530551,1.390325,-3.8296669000000003,0.7593055,8.10328
651,1715673267530,2.911687577777778,-1.0467074555555556,1.305984111111111,-3.776182277777778,0.6232862111111112,7.6403800888888895
652,1715673267540,2.93214662,-0.991021224,1.23334022,-3.71891702,0.53530124,7.38215368
653,1715673267550,2.90848079,-0.906113873,1.17791619,-3.6249048100000003,0.439212103,7.2898673700000005
654,1715673267560,2.8407755,-0.75711733,1.0877464,-3.3646456999999996,0.33735034,7.4207909999999995
655,1715673267570,2.87814962,-0.672435583,1.0271026,-3.0673529299999998,0.24787384299999998,7.61664945
656,1715673267580,2.988080866666667,-0.5690372666666667,0.9960743666666667,-2.911281933333333,0.18697567,7.6797976666666665
657,1715673267590,3.4253828,-0.22431185999999997,0.94032927,-2.4766308799999996,0.107054138,7.715411319999999
658,1715673267600,4.05388312,0.17747376799999998,0.8772585280000001,-2.0485213399999997,0.584338432,7.292035780000001
659,1715673267610,4.526456722222222,0.43840634,0.6953386755555555,-2.1545217,1.2444853,6.8335967
660,1715673267620,5.046941,0.67339295,0.39679146,-2.4749205,1.5202909,6.6207104
661,1715673267630,5.673197,0.9475553,0.27324766,-2.663525,1.1294898,6.426455
662,1715673267640,6.269475559999999,1.22615698,0.53653134,-2.265241,0.464501936,5.98516588
663,1715673267650,6.800214,1.6084476,0.8701117,-1.563815,-0.007024950300000001,5.0883546
664,1715673267660,6.8941704,1.75874898,0.9821791599999999,-1.23860562,-0.03604105015,4.5013895
665,1715673267670,6.9203548,2.07728585,1.2257544599999999,-0.48130071599999996,0.136345121,2.9872685199999998
666,1715673267680,6.5602975,2.15346113,1.14451188,0.247262994,0.698371693,1.39892725
667,1715673267690,6.250059666666666,2.0042835666666665,0.9073496666666667,0.8581639,1.04091439,0.20433442000000002
668,1715673267700,5.737755399999999,1.7209054099999999,0.50632225,1.34726334,1.0223746,-0.686154368
669,1715673267710,5.45479378,1.5891903600000001,0.348276442,1.7155539599999998,0.684779916,-1.5363871599999999
670,1715673267720,4.8579419999999995,1.39241672,0.249197463,1.76497298,-0.163314827,-2.59478753
671,1715673267730,4.5964875,1.3338584,0.3521547,1.5247196,-0.55833083,-3.1334333
672,1715673267740,4.32449625,1.24824356,0.55422747,1.02002273,-0.598464683,-3.5775170599999995
673,1715673267750,4.040655977777778,1.099698177777778,0.7476384888888888,0.4333070777777778,-0.37364590222222227,-4.2160053
674,1715673267760,3.7734578,0.8862834039999999,0.87141669,0.05283984500000001,0.046578474,-4.913189
675,1715673267770,3.58824588,0.7424457839999999,0.8861980600000001,0.099021254,0.19941696960000002,-5.2090616
676,1715673267780,3.3714284599999997,0.58244862,0.8685995099999999,0.32809572600000003,0.329347996,-5.6046886
677,1715673267790,3.1734507,0.42701677666666665,0.7997689,1.0182105522222222,0.22003027333333333,-6.065858066666667
678,1715673267800,3.0772527800000002,0.319677202,0.7421774400000001,1.6742594,-0.06963864,-6.422912139999999
679,1715673267810,3.01528572,0.20370701200000002,0.71438312,2.34967789,-0.480246966,-6.7898895999999995
680,1715673267820,2.9868003,0.10775019000000001,0.7310588666666668,3.0123802,-0.9600256100000001,-7.1613261333333345
681,1715673267830,3.0011508,-0.035124,0.752361,3.6589299999999993,-1.5633569,-7.6720095
682,1715673267840,3.011639,-0.15683842,0.7754111,3.8227947,-1.866346,-7.9824815000000005
683,1715673267850,3.0022483,-0.32770205,0.81699884,3.8179077999999995,-2.1239784,-8.367174
684,1715673267860,3.01463942,-0.51185913,0.869733688,3.5532809199999997,-2.18860792,-8.7213532
685,1715673267870,3.0100903800000003,-0.6610751500000001,0.89649135,3.25823308,-2.15290286,-8.9559563
686,1715673267880,2.9996507,-0.795302522,0.9237124699999999,2.9385674,-2.06823694,-9.1060461
687,1715673267890,2.9780193333333336,-0.9404004533333333,0.9731869,2.4845417777777774,-1.9174889888888889,-9.198289833333334
688,1715673267900,2.9291954000000002,-1.0729285000000002,1.03010886,2.0931908399999997,-1.7370869599999998,-9.190314599999999
689,1715673267910,2.9257927,-1.15687234,1.04952466,1.77016536,-1.5294539,-9.1126126
690,1715673267920,3.00586437,-1.1424508,1.03822517,1.65048159,-1.53669258,-9.104488499999999
691,1715673267930,3.1080472,-1.0961615,1.1011008,1.5706363555555556,-1.7012257222222222,-9.199613888888889
692,1715673267940,3.170307,-1.1009789,1.2129976,1.57580323,-1.80295354,-9.3515839
693,1715673267950,3.255555857142857,-1.1296217,1.3067138285714286,1.6039139714285715,-1.744849257142857,-9.51743357142857
694,1715673267960,3.2916189099999995,-1.16017748,1.3307423,1.6401731600000002,-1.6511687000000002,-9.6631854
695,1715673267970,3.30815658,-1.2307913799999999,1.34210268,1.6443271200000003,-1.5455196,-9.7704532
696,1715673267980,3.3142991333333334,-1.2645047,1.3331062000000002,1.6132442333333334,-1.4455617666666667,-9.833912666666668
697,1715673267990,3.33564598,-1.27852584,1.30235644,1.54154898,-1.32044634,-9.8900002
698,1715673268000,3.34443917,-1.28433107,1.2459080200000001,1.4223538699999998,-1.2269227900000002,-9.8926265
699,1715673268010,3.2774475,-1.2647079,1.1520795,1.2458596,-1.1820242,-9.85463
700,1715673268020,3.1871371,-1.2730621,1.0940882,1.0862864499999998,-1.078391,-9.8764847
701,1715673268030,3.1037725299999996,-1.3335961,1.04568305,0.8581282700000001,-0.851637807,-9.9101124
702,1715673268040,2.8869977,-1.4609389,0.9071260999999999,0.571159,-0.5656612,-9.889755
703,1715673268050,2.6085668,-1.5312479,0.78309447,0.4120795211111111,-0.37317078,-9.855547222222222
704,1715673268060,2.1875057,-1.5765554,0.60546213,0.44058656999999996,-0.30543262,-9.854325
705,1715673268070,1.71108152,-1.63313804,0.46787484599999996,0.6295729800000001,-0.29086347399999996,-9.8675199
706,1715673268080,1.43508375,-1.7149781499999999,0.368558085,0.753013568,-0.285579496,-9.837007199999999
707,1715673268090,0.8561882,-2.0309518333333334,0.11988504533333336,0.890285188888889,-0.3146125733333333,-9.637264666666667
708,1715673268100,0.31510985750000003,-2.4185556999999998,-0.031587211000000004,0.9145416340000001,-0.42481097199999995,-9.05951334
709,1715673268110,-0.485199037,-2.8128349,-0.10395728600000001,0.8066475399999999,-0.49357912,-7.8410664
710,1715673268120,-1.0587406333333333,-3.003630633333333,-0.22013480333333332,0.8225979066666667,-0.2914845311111111,-7.380372011111111
711,1715673268130,-1.89472633,-3.4466464799999996,-0.600138694,1.242561,-0.0039706232000000004,-6.2953937
712,1715673268140,-2.45547872,-3.9713046399999996,-0.9009733200000001,1.7565735400000002,-0.27244589280000003,-5.3330368
713,1715673268150,-2.8015963399999997,-4.41242826,-0.838329395,2.3217308599999997,-1.1348960399999999,-3.24222842
714,1715673268160,-2.8166888,-4.510995,-0.51716435,2.34221,-1.4598153,-1.7968601
715,1715673268170,-2.53898957,-4.517086740000001,0.13789829199999998,1.7869335200000003,-1.16357616,-0.591012116
716,1715673268180,-2.378695522222222,-4.434777288888889,0.49590291444444445,0.716561911111111,-0.2455338888888889,0.8401772955555555
717,1715673268190,-2.12427634,-4.3062997,0.69674797,0.11811080399999996,0.56327888,1.272829384
718,1715673268200,-1.9268502,-4.290646499999999,0.567380665,-1.1091785760000001,2.61413672,2.352778
719,1715673268210,-1.5272096777777777,-4.18848968888889,0.07606134822222223,-1.1738624666666668,3.604172888888889,3.445975711111111
720,1715673268220,-1.26692757,-4.05963354,-0.15790556360000002,-0.49721378400000005,3.4051614800000003,4.1574725400000005
721,1715673268230,-0.7687644,-3.8861413,-0.32556778,0.9989174000000001,2.644741,5.3777523
722,1715673268240,-0.296950254,-3.6635977599999996,-0.24352030600000002,1.8371925199999999,2.23268185,6.06387603
723,1715673268250,0.37246075,-3.369526,-0.08781,2.727208,1.8926132999999998,7.0550356
724,1715673268260,0.88605175,-3.14770792,0.070491924,2.8739377599999996,1.99145122,7.710494080000001
725,1715673268270,1.6563161999999998,-2.777906,0.3126402,2.59138196,2.43374814,8.43134534
726,1715673268280,1.9163130000000002,-2.66871671,0.383924826,2.17889523,2.85446639,8.8317522
727,1715673268290,2.4845553999999996,-2.4132912333333336,0.49256939333333327,1.3133772444444445,3.5135102000000002,9.360338555555556
728,1715673268300,2.712963,-2.3089762,0.5316164,0.6121175130000001,3.99169884,9.74951545
729,1715673268310,3.4383834899999997,-1.78732987,0.644635172,-1.159452768,4.72647804,10.4847994
730,1715673268320,3.90733774,-1.29496574,0.7653007479999999,-2.26878406,4.83570084,10.7285964
731,1715673268330,4.086702,-0.8909056,0.9356642999999999,-2.899081633333333,4.497189722222222,10.570581777777779
732,1715673268340,4.0673714,-0.6779664,1.0456098,-3.059824,4.130518,10.290025
733,1715673268350,3.9971234888888887,-0.5287978133333333,1.1228499777777778,-2.896926666666667,3.5869837777777778,9.834727222222222
734,1715673268360,3.7936787100000005,-0.446544366,1.22876684,-2.50418098,3.0503862400000004,9.2953534
735,1715673268370,3.55526838,-0.391510642,1.2125158800000002,-1.9855564600000002,2.5823258000000004,8.6173995
736,1715673268380,3.28547836,-0.381406416,1.12736458,-1.69362391,2.31119346,8.03112157
737,1715673268390,3.1080472666666665,-0.3872990333333333,1.0569722666666665,-1.6576167888888886,2.1934305333333333,7.759142355555555
738,1715673268400,2.8635207199999995,-0.427945718,0.96244034,-1.8253416699999998,2.02118509,7.323800889999999
739,1715673268410,2.64631909,-0.528975962,0.89813163,-2.24425791,1.9159330399999999,7.02021599
740,1715673268420,2.433014622222222,-0.6911785333333333,0.8963462877777779,-2.9090252333333333,1.9002999999999999,6.831238088888889
741,1715673268430,2.2284837,-0.8720630999999999,0.88834447,-3.5392005000000006,1.9507982,6.825808
742,1715673268440,2.1152088,-1.0008144,0.8133218469999999,-3.8884475700000003,1.8681939499999998,6.9829075000000005
743,1715673268450,2.103761011111111,-1.1234192111111112,0.745741288888889,-4.030420977777777,1.6143980111111111,7.224075355555556
744,1715673268460,2.2465944999999996,-1.2165222,0.72823762,-3.9701353999999993,1.10453596,7.60976228
745,1715673268470,2.4278366599999996,-1.2176808,0.765081228,-3.8315758000000004,0.604573331,7.9195166
746,1715673268480,2.6603382,-1.1277488,0.8786285133333334,-3.6786304666666663,0.19425514933333332,8.094371666666667
747,1715673268490,2.9308905600000004,-1.04068264,1.100003268,-3.6506529400000005,0.0387899428,8.053586200000002
748,1715673268500,3.00372404,-1.0611838800000002,1.21980292,-3.8159988500000006,0.25564709750000003,7.96637
749,1715673268510,2.9897475,-1.18060553,1.20227741,-4.17946359,0.70580895,7.92423568
750,1715673268520,2.974259,-1.1361638,1.1530551,-4.987104,1.5480852,8.133366
751,1715673268530,2.9929734199999998,-0.89216183,1.04296323,-5.3507823000000005,1.7242892699999999,8.3469549
752,1715673268540,3.0441614222222224,-0.6028671222222222,0.937825688888889,-5.342593666666667,1.5987531888888888,8.340822111111112
753,1715673268550,3.2509211375,-0.3145152925,0.8945720337499999,-4.7964757250000005,1.167134475,8.19827
754,1715673268560,3.4345499,-0.08722053466666667,0.90342672,-3.757279433333333,0.5671883999999999,8.0236134
755,1715673268570,3.8581031599999998,0.26789368160000004,0.9437258359999999,-2.4911848599999997,0.11045970759999998,7.8161736699999995
756,1715673268580,4.23077144,0.47447279800000003,0.933523997,-1.43194452,0.0441044704,7.57048346
757,1715673268590,4.82040336,0.809400896,0.72261536,-0.49086074999999996,0.47137419999999997,7.06940588
758,1715673268600,5.352473644444444,1.2156468644444445,0.3819938388888889,-0.41823906666666666,0.9303477666666667,6.555093100000001
759,1715673268610,5.6431036,1.4764886499999998,0.105859835,-0.6040846400000001,1.28116768,5.9469259
760,1715673268620,6.1352973,1.8562058999999997,-0.25684425,-1.2282972,1.2606732,4.534453
761,1715673268630,6.257865,2.0849385,-0.16854642,-0.914618,0.4288274,3.5775322999999997
762,1715673268640,6.1480417,2.5631373,0.1012864,-0.03236058200000001,-0.26430612400000003,2.88646046
763,1715673268650,6.18563497,2.79616314,0.148648927,0.837557322,-0.695378422,2.29384474
764,1715673268660,6.183812,2.8438609799999996,0.16547307,1.67370968,-1.0258565880000001,1.2483947800000001
765,1715673268670,6.0784577777777775,2.6246381000000003,0.1964410088888889,2.0453804444444446,-1.1321708888888888,0.14492778355555558
766,1715673268680,5.863457949999999,2.2413626800000004,0.206920606,1.8903987700000002,-1.02338249,-0.9575006556000002
767,1715673268690,5.6347071,2.02003244,0.176912752,1.59121232,-0.9067377999999999,-1.7052302799999999
768,1715673268700,5.295150619999999,1.78289666,0.18475468,1.20241188,-0.7870235250000001,-2.3092233
769,1715673268710,4.7445455,1.425449,0.23629427999999997,0.05207626,-0.31612277,-3.5095735
770,1715673268720,4.330667180000001,1.23953572,0.28332141600000005,-0.827203148,0.23426683,-4.158434699999999
771,1715673268730,3.8970567999999997,1.0409753,0.32105532,-1.7128662,0.89476484,-4.805066
772,1715673268740,3.6123569600000005,0.8887713399999999,0.332080368,-2.1616078,1.411190328,-5.208848
773,1715673268750,3.2879357,0.71248055,0.28623623,-2.4150861800000003,1.9640385700000003,-5.70687125
774,1715673268760,2.9819016555555553,0.5843972166666666,0.21441630999999997,-2.143950377777778,2.110217,-6.094839888888888
775,1715673268770,2.76446612,0.44276972,0.176120036,-1.57737624,1.8951177600000002,-6.39658388
776,1715673268780,2.593993,0.27446723,0.22464725,-0.9279043299999999,1.47360553,-6.66056916
777,1715673268790,2.5583269555555557,0.2263343411111111,0.2787425477777778,-0.5214753000000001,1.1861985,-6.823313866666667
778,1715673268800,2.5062804,0.1058720316,0.45934387800000004,-0.058429260000000004,0.89452054,-7.02400342
779,1715673268810,2.57683927,-0.051124928199999996,0.691772085,0.24704917499999998,0.8349764500000001,-7.21751027
780,1715673268820,2.686742,-0.18659624,0.8378538,0.5566849022222223,1.0731035666666666,-7.547291088888888
781,1715673268830,2.8402877,-0.3439225,0.92810297,0.64736444,1.4320209,-7.751727
782,1715673268840,2.88752216,-0.434513158,0.960043808,0.67996937,1.63299555,-7.838928149999999
783,1715673268850,3.013055177777778,-0.7377395255555556,0.9652934333333333,0.8382767888888889,2.4228442444444442,-8.085225922222222
784,1715673268860,3.0927902400000002,-0.87046548,0.8957840000000001,0.9569814900000001,2.58991589,-8.126554299999999
785,1715673268870,3.24179885,-1.00522943,0.7009494500000001,1.67051797,2.7149446999999998,-8.2580889
786,1715673268880,3.3354385,-1.0643305,0.5993643,2.2602523333333333,2.3557339777777777,-8.412937888888889
787,1715673268890,3.3760324099999997,-1.12276671,0.5773812620000001,2.548255,2.1084777800000003,-8.4884612
788,1715673268900,3.4578726000000004,-1.23044984,0.598693432,2.893241,1.5769791999999998,-8.578258000000002
789,1715673268910,3.5339665222222223,-1.275027011111111,0.6660686555555555,2.8884762444444445,1.3107980666666665,-8.629845666666666
790,1715673268920,3.6033201,-1.3145279,0.7111391,2.65361377,1.29362933,-8.6898483
791,1715673268930,3.65946372,-1.37116544,0.740665166,2.2310326,1.45615,-8.813258
792,1715673268940,3.6818612,-1.451853,0.78138703,1.8306104,1.7566957,-8.927948
793,1715673268950,3.68086715,-1.48989791,0.778819831,1.6933948,1.93476295,-8.959408
794,1715673268960,3.6538715,-1.6200945,0.7352258,1.3972015,2.420248,-9.007972
795,1715673268970,3.5270963,-1.7485165999999999,0.64936715,1.4260497200000002,2.5641222,-9.0113011
796,1715673268980,3.3155933666666666,-1.8449991777777777,0.5481146611111112,1.6032158,2.5587618,-9.017899
797,1715673268990,3.1570503,-1.9158923,0.481942772,1.73577361,2.48093762,-8.9727861
798,1715673269000,2.999358,-1.9768715000000001,0.435318092,1.8526932200000001,2.3907128,-8.893098400000001
799,1715673269010,2.52290935,-2.04883916,0.334952482,1.9835557300000002,2.2289098199999997,-8.6314343
800,1715673269020,2.0479853,-2.0065196,0.2598932,1.8770362,2.2670736,-8.418029
801,1715673269030,1.8004099,-2.0146298,0.2511122,1.5233452,2.5185974,-8.140238
802,1715673269040,1.5092648499999999,-2.03367353,0.221860508,1.1230757,2.8309023,-7.7129373999999995
803,1715673269050,1.083112,-2.0163982,0.19177948,0.85994554,3.1338913,-7.3238163
804,1715673269060,0.6923575,-1.9887747,0.13281263,0.6599890155555556,3.4975597444444446,-6.800372477777778
805,1715673269070,0.378436724,-1.9653099,-0.030806674,0.65564169,3.7603643,-6.23134472
806,1715673269080,-0.104573175,-1.93699716,-0.33283649200000004,0.941740426,3.80810344,-5.6248013
807,1715673269090,-0.39407178200000004,-1.9597484600000001,-0.550751668,1.2206310139999998,3.7041494,-5.29898089
808,1715673269100,-0.4754816888888889,-1.9822497666666667,-0.6260257,1.327223611111111,3.621480655555555,-5.192642833333334
809,1715673269110,-1.21974805,-2.23603287,-1.34599922,2.5181393,2.34230174,-4.08403134
810,1715673269120,-1.6780673700000002,-2.25481436,-1.71656956,3.10713551,1.39361276,-3.53932272
811,1715673269130,-2.2130084444444447,-2.2470892222222223,-1.9988565222222219,3.6673464555555557,0.14811785822222223,-2.995649133333333
812,1715673269140,-2.6036885,-2.4160554,-2.0162761,3.6022723,-0.6965391,-2.5077546
813,1715673269150,-2.824921,-2.7624784,-1.7404674,2.8895454,-0.9301950299999999,-1.9355265
814,1715673269160,-2.97197215,-3.0702156,-1.48453183,1.90159299,-0.49174653,-1.2819771000000002
815,1715673269170,-3.0592637,-3.2782399999999994,-1.3705069,0.9983065,0.15821409,-0.47418415999999997
816,1715673269180,-3.0451777,-3.5046556,-1.4092896,0.3494149,0.8051204,0.8950703
817,1715673269190,-3.00132146,-3.573928,-1.4687076000000001,0.295414436,0.8669399600000001,1.5125328599999999
818,1715673269200,-2.8164448666666666,-3.612222833333333,-1.5336869666666668,0.4567575288888889,0.6938411166666667,2.8492622333333335
819,1715673269210,-2.5721135599999996,-3.60414912,-1.53550416,0.634505742,0.510530632,3.5170872199999996
820,1715673269220,-1.8230515400000002,-3.48670343,-1.34507851,0.957622908,0.182404356,4.5681419
821,1715673269230,-1.2692204,-3.3578787,-1.1236632,1.483639,-0.33353242,6.423248
822,1715673269240,-0.8223651,-3.3078759,-0.8524278,1.4706581,-0.2565634,7.307323
823,1715673269250,-0.253301373,-3.2837831700000004,-0.542348703,1.21226207,0.095844749,8.136250899999999
824,1715673269260,0.48643080000000005,-3.2468356999999997,-0.14610608,0.61315596,0.7860308,9.180388
825,1715673269270,1.19577102,-3.2532566600000004,0.12418407999999999,-0.17037032400000002,1.45512681,10.0078358
826,1715673269280,2.142808,-3.099571,0.43289113,-1.2942708,2.1612413,11.045666
827,1715673269290,2.82479896,-2.8535079600000004,0.592071106,-2.13921952,2.5660005000000004,11.598620400000001
828,1715673269300,3.480907633333333,-2.4824347777777778,0.7121960555555555,-3.0309606,2.751337,11.762057
829,1715673269310,3.76025586,-2.1152453299999996,0.76666059,-3.2807434799999995,2.5646872,11.3727224
830,1715673269320,3.9438276,-1.5692989,0.8210235000000001,-3.1792480999999997,1.72760331,10.1224649
831,1715673269330,3.8605180199999998,-1.49164195,0.8407259039999999,-2.217288,0.54534996,8.918175
832,1715673269340,3.7267147777777776,-1.6114219333333333,0.9163949133333333,-1.2797627,-0.4454735,8.281652
833,1715673269350,3.5927098,-1.7177832,1.0143275,-0.8888089000000001,-1.0903945,8.167879
834,1715673269360,3.5605128,-1.595459,1.1231143,-1.2799155,-1.2176071,8.331438
835,1715673269370,3.56883643,-1.51282001,1.17322695,-1.8571830999999999,-1.1252443799999998,8.430154
836,1715673269380,3.5758671399999997,-1.40642354,1.23416956,-2.88529984,-0.8396037399999999,8.403642600000001
837,1715673269390,3.52833988,-1.34218812,1.2177905599999999,-3.3240843599999996,-0.660589682,8.226645
838,1715673269400,3.3465839111111113,-1.3849860333333333,1.0447153333333334,-3.278411888888889,-0.6171605477777777,7.799680333333334
839,1715673269410,3.2284199,-1.4547922400000002,0.9293346360000001,-2.9898187999999997,-0.7516391299999999,7.51568884
840,1715673269420,3.01288314,-1.6582065400000001,0.763995776,-2.37797622,-1.1725711,7.2630196
841,1715673269430,2.841006,-2.1061933555555554,0.817927158888889,-2.189952,-1.5648841,7.493331399999999
842,1715673269440,2.8559594,-2.3309898,1.1358589,-2.9747610900000003,-1.2186608499999998,8.011223439999998
843,1715673269450,2.90793206,-2.32467828,1.32849211,-4.260449169999999,-0.2488054,8.7470248
844,1715673269460,3.1254263,-2.2614734,1.3830075,-5.130199,0.5467244,9.25186
845,1715673269470,3.348860777777778,-2.1945520777777774,1.3250028555555557,-5.757897222222223,0.925325111111111,9.691682222222223
846,1715673269480,3.5968257899999996,-1.90634898,1.26095771,-5.82398918,0.79246021,9.972757099999999
847,1715673269490,3.8027150555555553,-1.325741388888889,1.2478235333333332,-4.844416122222222,0.180171308,9.794257666666667
848,1715673269500,3.8280282,-0.9104037500000001,1.2657826625,-4.0033054,-0.15393804,9.545533
849,1715673269510,3.80131935,-0.542470675,1.1587871,-2.3431263700000002,-0.46326492,9.0543975
850,1715673269520,3.81259436,0.13150158,0.721383552,0.77978477,-0.97100085,8.179623209999999
851,1715673269530,3.9355342,0.6635143,0.19781642,3.8424952,-1.2411255,7.282124499999999
852,1715673269540,4.1046295,1.1808006,-0.4539899,4.944663820000001,-1.13735478,6.5616394
853,1715673269550,4.18031095,1.49082477,-0.8300910800000001,5.30490655,-1.02782667,5.827348949999999
854,1715673269560,4.211038,2.005117,-1.1431764,4.7181706,-0.9492845999999999,4.8241553
855,1715673269570,4.15357786,2.2669554400000003,-1.1359321199999999,3.2403652899999997,-0.66120054,4.1585108900000005
856,1715673269580,4.35394926,2.50364614,-0.98874064,1.857106735,-0.31276300419999997,3.7682749
857,1715673269590,4.638502166666666,2.918645833333333,-0.7847206,-0.7893396766666666,0.6858998638666667,2.974302866666667
858,1715673269600,4.966893000000001,3.3371155100000003,-0.6852412400000001,-2.99721038,1.9226678399999997,1.9811582
859,1715673269610,5.22924413,3.42630962,-0.73328062,-4.43830266,2.73606546,0.68056498
860,1715673269620,5.382245077777777,3.293132488888889,-0.7468863888888889,-4.5152106,2.3144157,-0.4335616
861,1715673269630,5.526664,2.8419342,-0.4563681,-3.3739614,1.2186762,-0.97005403
862,1715673269640,5.73285274,2.58712044,-0.14283150900000002,-1.9993771800000002,0.394557864,-1.4016302829999998
863,1715673269650,5.8464384,2.429227,0.14488651,-0.86559606,-0.01282817,-1.9817995999999998
864,1715673269660,5.831926,2.2615952,0.40215759999999995,-0.37583485,0.23243423000000002,-2.719725
865,1715673269670,5.7200656,2.1489546400000004,0.45845356800000003,-0.5270850979999999,0.8542950859999999,-3.2993138
866,1715673269680,5.575284655555555,2.029115577777778,0.3912355566666667,-0.8588765355555554,1.5402288555555554,-3.8851199999999997
867,1715673269690,5.25907531,1.8313262600000002,0.1479232626,-1.178802,1.9842736300000001,-4.54228711
868,1715673269700,4.92161658,1.58106788,0.0200072645,-1.2596041599999999,2.06044848,-5.2234169800000005
869,1715673269710,4.49573796,1.18025183,0.0439171952,-0.96171568,1.81478898,-5.91421384
870,1715673269720,4.1188378666666665,0.8280564666666667,0.09933506333333333,-0.58795778,1.5310319000000001,-6.3653175
871,1715673269730,3.46764749,0.33626351800000004,0.259521251,0.080573128,1.03709648,-6.664967540000001
872,1715673269740,3.1266459899999997,0.15287477600000002,0.358496544,0.744354568,0.6524804200000001,-6.73110867
873,1715673269750,2.9609046,0.10951859,0.36782634,1.1195632,0.5131268,-6.770983
874,1715673269760,2.81579859,0.050356597700000005,0.292254861,1.50807352,0.27721064,-6.870798519999999
875,1715673269770,2.7559533,0.028965104000000002,0.2680644,1.7974709,-0.07666359,-7.0002103
876,1715673269780,2.75019706,0.0196962704,0.32689712000000004,1.8111543399999999,-0.25882359800000004,-7.1625783
877,1715673269790,2.74835552,-0.00010976260000000008,0.370326484,1.7302758,-0.27843238000000003,-7.287011420000001
878,1715673269800,2.7644295555555556,-0.038247490555555555,0.42993700666666673,1.4148657111111111,-0.03736459333333334,-7.463246166666666
879,1715673269810,2.860923,-0.14655733999999998,0.527000257,0.819093935,0.5561927950000001,-7.725918500000001
880,1715673269820,2.96502663,-0.290651115,0.5322200890000001,0.20639609139999998,1.38660304,-7.9993263
881,1715673269830,3.0868266,-0.5441781,0.46356362000000007,-0.06021604109999999,1.86831612,-8.166230099999998
882,1715673269840,3.0946861555555554,-0.6451053888888888,0.4320170777777778,-0.060628377,2.0179935,-8.236602
883,1715673269850,3.1422565,-0.7052241,0.40484068000000006,0.114689946,1.9798143,-8.292648
884,1715673269860,3.2345788,-0.7996808,0.42661023,0.35714234460000005,1.8055344300000002,-8.3995806
885,1715673269870,3.2838074500000003,-0.8660322199999999,0.45789253799999996,0.61327818,1.629422,-8.5375444
886,1715673269880,3.2896565888888887,-0.9425686,0.5105853366666666,0.8275018033333335,1.4899174,-8.676305888888889
887,1715673269890,3.28973455,-1.0120408,0.5467392299999999,0.9111665800000001,1.464916,-8.713442800000001
888,1715673269900,3.2943655777777776,-1.1122329333333334,0.5871752,0.9470447533333333,1.4769703333333333,-8.705033333333335
889,1715673269910,3.2904968,-1.1491321,0.6019253666666667,0.8990918433333334,1.5506304999999998,-8.658709666666667
890,1715673269920,3.2575681333333333,-1.2252341,0.6098526333333333,0.6917031066666667,1.8502938666666668,-8.535297888888888
891,1715673269930,3.2275542,-1.2812943200000002,0.6336589,0.62186082,2.02071164,-8.4566658
892,1715673269940,3.22952989,-1.33233388,0.6929124,0.64412687,2.1768183999999997,-8.347352
893,1715673269950,3.1801245,-1.3244675,0.7115659,0.73945236,2.431091,-8.276155
894,1715673269960,3.16817263,-1.31610117,0.64877569,0.82967718,2.5384199,-8.295397300000001
895,1715673269970,3.07470368,-1.3892030400000002,0.496980208,1.070174832,2.54886584,-8.3229472
896,1715673269980,2.8718381400000004,-1.4212719,0.388047028,1.2603678,2.3926065,-8.279209
897,1715673269990,2.636183688888889,-1.3724039222222222,0.3095437933333333,1.3225402444444445,2.265139211111111,-8.201833888888888
898,1715673270000,2.53097085,-1.3607501499999999,0.25891754,1.3243558400000002,2.18900504,-8.1635726
899,1715673270010,2.3789802,-1.3410539,0.20998786200000003,1.26807985,2.0796143999999996,-8.145353250000001
900,1715673270020,1.8466322,-1.2830423,0.15183811666666666,1.0836749444444445,2.1132713777777776,-8.193111
901,1715673270030,1.3815928400000002,-1.34933478,0.03263604824,0.6093991400000001,2.53719824,-8.298573800000002
902,1715673270040,0.90371125,-1.47147619,-0.26085058197000005,0.002382368700000005,3.05211176,-8.2510944
903,1715673270050,0.32514092,-1.6721097,-0.655709,-0.48915034999999996,3.3307428,-7.9093304
904,1715673270060,0.16391200239999998,-1.7012089400000001,-0.7852775399999999,-0.46373835,3.22958352,-7.70640104
905,1715673270070,-0.4595207504,-1.87470692,-1.171549995,0.084986631,2.52476706,-6.80302307
906,1715673270080,-0.786978854,-2.0371067800000002,-1.3419137300000001,0.788611766,1.8662544300000001,-5.98910619
907,1715673270090,-0.99371654,-2.1318316,-1.5044171,1.2557862,1.4162911,-5.487555
908,1715673270100,-1.3652016,-2.2251909,-1.7165636,1.52723952,1.08312514,-5.18737593
909,1715673270110,-1.60677664,-2.49164538,-1.88901264,1.67584779,0.80044723,-4.9134945100000005
910,1715673270120,-1.8099836500000002,-2.7936386,-2.01371505,1.85298345,0.42134427500000005,-4.5115452
911,1715673270130,-2.1759061666666666,-3.6073446111111114,-1.982859577777778,2.0492662555555556,-0.43101635555555556,-3.3832602888888887
912,1715673270140,-2.2661688,-4.2840304,-1.7190026,1.88125118,-1.05328436,-1.68846212
913,1715673270150,-2.1791515,-4.712897,-1.337761,1.0931433,-0.8721629,-0.45051312
914,1715673270160,-2.1089036,-4.917665,-1.129944,0.012064588,-0.077121735,0.66156703
915,1715673270170,-1.99650665,-4.9327574599999995,-1.06040946,-0.7874053,0.59559363,1.7292068
916,1715673270180,-1.8454126,-4.860162,-1.0336579,-0.9631818,0.8200866,2.8484647
917,1715673270190,-1.6355222,-4.742106,-0.9720689,-0.6203337,0.6582073,3.809203
918,1715673270200,-1.4301139,-4.6212757,-0.8518484799999999,-0.24167359,0.5264131300000001,4.422435200000001
919,1715673270210,-0.90802252,-4.360906770000001,-0.6290977160000001,0.367282712,0.377636904,5.43211896
920,1715673270220,-0.35218181111111113,-4.138188444444444,-0.4716603488888889,0.9754670222222221,0.3767511488888889,6.806107622222223
921,1715673270230,0.600443539,-3.6998803899999997,-0.1131834389,1.0071030300000001,0.67566278,8.084908500000001
922,1715673270240,1.3691043,-3.445018,0.10646963000000001,0.6406449,1.3707817,9.651213
923,1715673270250,2.1258128800000002,-3.2798989,0.0832670496,0.0056505036,1.8032742,10.634706
924,1715673270260,2.642959,-3.1400614,0.109884456,-0.5555310107111111,1.8608312666666664,11.216114
925,1715673270270,3.1144621999999997,-2.9918575400000003,0.22927557680000002,-1.33232766,1.8026633399999998,11.7455948
926,1715673270280,3.3165350000000005,-2.9283416,0.2804432,-1.5089899,1.7863227,11.859796
927,1715673270290,3.5494144,-2.8554714,0.35166687,-1.8365206,1.73491839,12.0026008
928,1715673270300,4.327590088888889,-2.4939191555555555,0.6675254077777777,-2.8901731444444447,1.0039400666666667,12.32712488888889
929,1715673270310,4.86853428,-2.1958170700000004,1.21931505,-3.16287698,0.399444774,12.2309268
930,1715673270320,5.040436488888889,-2.1146220666666666,1.4590417222222223,-3.1841859666666665,0.34722598,12.193582666666666
931,1715673270330,5.3340733899999995,-1.8082091299999998,1.9256489599999997,-3.14830771,0.486294522,11.9714476
932,1715673270340,5.26231928,-1.6028617600000001,1.9634072,-2.99438493,0.7348556289999999,11.6044088
933,1715673270350,4.9894191,-1.4093444800000001,1.76722511,-2.68540944,0.8281347570000002,11.032195699999999
934,1715673270360,4.70625,-1.3955692,1.5254549,-2.2973115,0.5674938,10.565525
935,1715673270370,4.58517,-1.32624816,1.44105978,-1.8878637900000002,0.122997714,10.2078947
936,1715673270380,4.37406606,-1.23186458,1.3909288,-1.40529549,-0.367313286,9.80186745
937,1715673270390,4.188903,-1.3018442,1.4819766,-1.2179126,-0.56489766,9.7425375
938,1715673270400,4.0888545,-1.36188428,1.52286324,-1.2950343,-0.42989639999999996,9.9538965
939,1715673270410,4.0857384,-1.3113814,1.45628012,-1.5281404200000002,-0.21905628,10.11346965
940,1715673270420,4.0690057,-1.22283966,1.39366668,-1.6184569199999999,-0.13918564760000002,10.113149
941,1715673270430,4.043711533333333,-1.1815323666666666,1.3637381,-1.6204218555555556,-0.09095104822222222,10.006006666666666
942,1715673270440,3.9807932799999994,-1.1126258999999998,1.30424684,-1.51213577,-0.07808385170000001,9.8219496
943,1715673270450,3.8035757999999995,-0.9457258999999999,1.0340238,-1.0758864,-0.035277467,9.189857
944,1715673270460,3.7742445000000004,-0.9706664,0.79925394,-0.9301339439999999,-0.024037547,8.8584014
945,1715673270470,3.7757082600000005,-1.01340056,0.634317508,-0.8572577219999999,-0.11531609140000001,8.60785495
946,1715673270480,3.854737,-0.9571289999999999,0.51484716,-0.93767816,-0.27152961,8.6306095
947,1715673270490,3.94981588,-0.5966202,0.5328481519999999,-1.312444,-0.2518292,8.829446
948,1715673270500,4.13110704,0.07188223200000002,0.621011808,-1.5526668,-0.10201449999999998,8.831431
949,1715673270510,4.29039668,0.620743528,0.650562372,-1.53898336,0.13573426,8.5710806
950,1715673270520,4.386841333333333,1.0687005666666665,0.6221704666666666,-1.4701999333333333,0.4056654333333333,8.182132666666668
951,1715673270530,4.5114523,1.88762234,0.5197498190000001,-1.32285926,1.19011821,6.783017149999999
952,1715673270540,4.436539,3.0138953,0.14787449,-1.5801557,2.2667682,4.3838744
953,1715673270550,4.271082166666667,3.0410649111111114,0.07585131333333334,-2.186354644444444,2.594768866666667,3.4920959555555555
954,1715673270560,3.90187398,2.80337092,0.0565764744,-3.4464558600000004,3.22972081,2.06777882
955,1715673270570,3.7893734,2.53660534,0.0588631903,-3.8037050800000003,3.49811974,1.69945768
956,1715673270580,4.0748171300000005,2.56625338,-0.2892363833,-2.18685181,3.2132886400000005,2.0723908900000003
957,1715673270590,4.690795444444444,2.8122101777777777,-0.7902764555555556,0.5652879111111111,1.8463401288888892,2.392199111111111
958,1715673270600,5.380375,3.102742,-1.2184857,3.3087516,0.11759156,2.167808
959,1715673270610,5.8386946,3.2036016,-1.3846539,5.3296466,-1.5239561,1.236544
960,1715673270620,5.9738548,3.01474905,-1.4226744,6.0697861,-2.3677137,0.44287731500000005
961,1715673270630,6.158987300000001,2.5109391,-1.2722388500000001,6.810292079999999,-3.91527964,-1.168401948
962,1715673270640,5.9141052,1.6527793,-0.8231578,5.332853666666667,-4.240015733333333,-2.3711752666666666
963,1715673270650,5.509925,1.0944175,-0.54886741,2.83355962,-3.4469446599999998,-2.97721978
964,1715673270660,5.1399585100000005,0.89538764,-0.235977193,-0.8007985099999999,-1.70941483,-3.55851898
965,1715673270670,4.8841267,0.9726787,-0.05055173,-3.5953390900000004,0.0563828593,-4.40343716
966,1715673270680,4.6261845,0.8799294,0.01597654,-4.6627345,0.9844093299999999,-4.9808426
967,1715673270690,4.189025,0.66802675,0.11555552500000002,-5.094616,1.8038851,-5.605605
968,1715673270700,3.9572431777777783,0.5407768222222222,0.13860565,-4.874704666666667,1.8911370333333335,-5.904827
969,1715673270710,3.6924173111111114,0.38929100666666666,0.22893611111111112,-4.196101444444444,1.9734510888888888,-6.343445111111111
970,1715673270720,3.45948224,0.18405951599999998,0.326372682,-3.4285576,1.87234777,-6.5441991
971,1715673270730,3.1339938099999998,-0.0530396818,0.46549663599999996,-2.31261366,1.68278104,-6.7355836
972,1715673270740,2.8735579799999997,-0.19945065480000002,0.59237605,-1.4336091,1.5684271200000002,-6.793890759999999
973,1715673270750,2.710219,-0.27586976,0.6986383,-0.64828074,1.5705346,-6.809468
974,1715673270760,2.68546747,-0.235202738,0.70709002,-0.27357599600000004,1.65263492,-6.888269200000001
975,1715673270770,2.72788488,-0.196273652,0.689314626,0.139384181,1.69144008,-7.09022103
976,1715673270780,2.7760496333333333,-0.26540842888888894,0.6891323599999999,0.8156578,1.5764905,-7.5110464
977,1715673270790,2.8090663,-0.38447365,0.69876033,1.3179418,1.4456125,-7.7552395
978,1715673270800,2.8691308,-0.48795533,0.6543065,1.6612481,1.3006848,-7.896655
979,1715673270810,2.92049965,-0.573240743,0.61160888,1.983174,1.0170907,-8.046775
980,1715673270820,2.9602336333333334,-0.6338581,0.6001569466666666,2.0873266,0.8519534333333333,-8.110101666666667
981,1715673270830,3.05806854,-0.69876026,0.605949968,2.19438072,0.5745798599999999,-8.256668600000001
982,1715673270840,3.18483204,-0.7827285740000001,0.6363176239999999,2.23251396,0.2249969477,-8.5464481
983,1715673270850,3.26952,-0.86675787,0.6779054,2.187203,0.060628377,-8.714298
984,1715673270860,3.3507445,-0.98987484,0.7812041,2.0259347,0.006872234,-8.838151
985,1715673270870,3.421371611111111,-1.10885196,0.8587696111111112,1.8886935444444444,0.13121724377777777,-8.875889666666666
986,1715673270880,3.4424933600000003,-1.15382346,0.8850516199999999,1.77047075,0.30657799199999997,-8.891907499999999
987,1715673270890,3.4692207799999997,-1.2940815300000001,0.8968145269999999,1.442711,0.9266826,-8.923061
988,1715673270900,3.50443616,-1.3820196,0.8709654820000001,1.3494929199999999,1.1849563600000002,-8.905469
989,1715673270910,3.5335530888888886,-1.4195204222222222,0.8455710277777778,1.3230662666666666,1.4192096888888888,-8.932699444444445
990,1715673270920,3.5129426,-1.41508861,0.832103426,1.35806037,1.4947261600000001,-8.9876452
991,1715673270930,3.4813616000000005,-1.4429805,0.83809767,1.48904508,1.54585564,-9.082711
992,1715673270940,3.3648243199999994,-1.54569383,0.8341217500000001,1.7281684000000002,1.5444963999999999,-9.1326188
993,1715673270950,3.1633554,-1.522162,0.7810212,1.8845193,1.5135714,-9.12709
994,1715673270960,2.98940613,-1.51587497,0.70753518,2.0056233,1.5016595,-9.143431
995,1715673270970,2.8118103,-1.5300893,0.6158286,2.0894647,1.4379768,-9.130603
996,1715673270980,2.60979243,-1.60500215,0.45936215999999996,2.1514522,1.30011975,-9.0566581
997,1715673270990,2.376710533333333,-1.655333711111111,0.31237593333333336,2.1675704555555555,1.0359765222222224,-8.947444666666666
998,1715673271000,2.14062498,-1.66284696,0.214817404,2.12788791,0.6857726019999999,-8.824712100000001
999,1715673271010,1.52815008,-1.73296701,0.222262966,1.9845484,0.19883664,-8.585253
1000,1715673271020,1.2058021,-1.7293081,0.22531801,1.9172006,0.2509129,-8.381071
1001,1715673271030,0.9176755200000001,-1.77592061,0.1447279522,1.6357292,0.52597027,-8.1452466
1002,1715673271040,0.19334207812499998,-2.0437930375,-0.0141852755,1.1310552375,1.1627247250000001,-7.7646318999999995
1003,1715673271050,-0.2688368288888889,-2.3080479777777776,-0.26909430444444443,0.7895772888888888,1.6460442777777777,-7.200166688888889
1004,1715673271060,-0.737268611,-2.58340082,-0.610419762,0.5863543,1.8298773799999999,-6.414986109999999
1005,1715673271070,-1.3666041622222223,-2.920935977777778,-1.0219906222222221,0.64568454,1.6484199,-5.1929655
1006,1715673271080,-1.77975633,-3.0868873299999997,-1.2719401,0.866817788,1.31342134,-4.6348791
1007,1715673271090,-2.1281607399999998,-3.25352506,-1.4037405,1.32234001,0.4650669799999999,-3.6962540699999997
1008,1715673271100,-2.28398696,-3.4242119000000004,-1.32444932,1.5661058300000001,-0.20444132300000004,-2.89522631
1009,1715673271110,-2.365883288888889,-3.669326577777778,-0.9923072444444444,1.5973956666666664,-0.5764361944444444,-1.9820201111111109
1010,1715673271120,-2.36150971,-3.86776857,-0.460868355,1.2763265899999998,-0.287839705,-0.5818949449999999
1011,1715673271130,-2.32919694,-3.91525282,-0.264722766,0.963884252,0.38560868400000003,0.20350975799999999
1012,1715673271140,-2.2042384,-3.9395712000000005,-0.327165438,0.691346728,1.3946969900000001,1.1468078720000001
1013,1715673271150,-2.004568,-3.93962,-0.57039917,0.6535579333333332,2.1541143555555555,2.0648603444444444
1014,1715673271160,-1.88934805,-3.8717441800000003,-0.8085898480000001,0.8342586900000001,2.39689768,2.84996128
1015,1715673271170,-1.69205,-3.7340592999999997,-1.1390908,1.2586879,2.188272,3.8426478000000004
1016,1715673271180,-1.46451227,-3.63960871,-1.16400685,1.5431983,1.8330538,4.4173193
1017,1715673271190,-1.14056656,-3.53883466,-1.03698117,1.6893020499999998,1.5374103700000001,5.15732153
1018,1715673271200,-0.7195542,-3.4211752,-0.7719353,1.5641204,1.4650075,6.219219
1019,1715673271210,-0.46275871,-3.34758546,-0.598248318,1.32220257,1.6066519400000001,6.835826389999999
1020,1715673271220,0.2701987,-3.1223164,-0.1718393,0.489394708,2.2574524599999997,8.19133614
1021,1715673271230,0.576381192,-3.00843172,-0.0651684378,-0.27999009699999994,2.85727622,9.06290365
1022,1715673271240,0.98102606,-2.8940374444444448,0.015983318222222223,-1.0924985555555555,3.3612180555555558,9.760438555555556
1023,1715673271250,1.8034588599999999,-2.63536092,0.1389715232,-2.97558566,4.00018998,10.9418333
1024,1715673271260,2.36424777,-2.43987412,0.20023729499999998,-3.9718916,4.01924913,11.251557000000002
1025,1715673271270,3.1043885,-2.2654982,0.34239805,-5.411044,3.351054,11.392942
1026,1715673271280,3.452159611111111,-2.2026757999999997,0.57444405,-6.1117067,2.4410176,11.352167
1027,1715673271290,3.8355896,-2.130551,0.9816426,-6.668663,1.114371,11.249389
1028,1715673271300,4.01977124,-2.0498024,1.4778423,-6.68918819,0.3650989079,11.0379379
1029,1715673271310,4.16078539,-1.84435147,2.2535522299999995,-6.44059646,-0.007238753200000001,10.7332684
1030,1715673271320,4.0762541,-1.681005922222222,2.621989111111111,-5.815979933333334,0.3151894933333333,10.230906888888889
1031,1715673271330,3.9261436000000005,-1.6296987399999998,2.52063497,-5.26220694,0.823812896,9.7500812
1032,1715673271340,3.687654,-1.6751587,2.1608577,-4.6190577,1.2458596,9.053023
1033,1715673271350,3.55735384,-1.6935987799999999,2.02967938,-4.61624778,1.0126313200000001,8.8623102
1034,1715673271360,3.3765385,-1.5870438,1.9424304,-4.7600145,0.5910121,8.500037
1035,1715673271370,3.2672029,-1.5233206,1.9312713,-4.811175,0.22006421,8.071515
