id,timestamp,acc_x,acc_y,acc_z,gyro_x,gyro_y,gyro_z
0,1715673375420,0.8194206057142858,0.7601750428571429,0.33782457714285713,-0.29906215,-0.01749692285714285,0.4555309642857143
1,1715673375430,0.4406761111111111,1.8739237444444445,0.7691844444444444,-0.3061113644444445,0.6516405111111111,-4.037462866666667
2,1715673375440,0.588180652,1.78267108,0.745287391,-0.156854923,0.8573646500000001,-4.42742908
3,1715673375450,0.754916008,1.66171277,0.685039981,-0.15760323,1.0719157,-4.7090073
4,1715673375460,0.8848077,1.5739943,0.63509804,-0.2751948,1.3918564,-5.0255885
5,1715673375470,1.04017654,1.51623478,0.6362383420000001,-0.34037411,1.5919911599999998,-5.13774335
6,1715673375480,1.2854340333333334,1.4830946333333332,0.66770832,-0.40422311555555557,1.9111088444444444,-5.252660733333333
7,1715673375490,1.5591153199999999,1.59537358,0.7362380719999999,-0.36047156999999996,2.2394014,-5.314772039999999
8,1715673375500,2.0532662000000004,2.0329600599999997,0.8634650239999999,-0.10378600200000002,2.68050732,-5.5131198
9,1715673375510,2.3820780800000003,2.3733701399999996,0.95836082,0.142789752,2.91978324,-5.78675686
10,1715673375520,2.884822844444445,2.7816325222222225,1.0857340555555557,0.4410277377777778,3.315657722222222,-6.530370244444445
11,1715673375530,3.2422927,2.99270515,1.1908926499999999,0.43264531,3.6067774,-6.88712415
12,1715673375540,3.4508657,3.09225361,1.26473847,0.36505306800000004,3.81412038,-6.99700344
13,1715673375550,3.7248513333333335,3.166444933333333,1.3515016666666666,0.29925609111111107,4.193114788888889,-6.956686222222221
14,1715673375560,3.9646337199999997,3.15261694,1.41678999,0.41590759000000005,4.48271248,-6.8838405
15,1715673375570,4.04410163,3.0209689600000003,1.3861113699999998,0.756907821,4.7238211,-6.816004099999999
16,1715673375580,3.9820617,2.76592968,1.2522315599999998,1.27053855,4.7855794000000005,-6.737324599999999
17,1715673375590,3.9057765,2.5652106,1.1498232,1.7753271,4.742605,-6.666983
18,1715673375600,3.5045580099999993,2.0577114300000003,0.889289658,2.7764131599999997,4.38524882,-6.563609600000001
19,1715673375610,3.13281694,1.66026764,0.719249268,3.3177314000000004,4.0284422399999995,-6.45159216
20,1715673375620,2.5452582599999998,1.0926247,0.559410724,3.6456437999999998,3.5387423,-6.0984204
21,1715673375630,2.177803211111111,0.7653427222222222,0.4837748644444445,3.6028154000000003,3.305646377777778,-5.703071733333333
22,1715673375640,1.74677267,0.3821625065,0.345825065,3.3961664400000005,3.18363122,-5.17057718
23,1715673375650,1.2299498,-0.0878709775,0.044331854999999996,2.9972866,3.0867785000000003,-4.275904
24,1715673375660,1.02536471,-0.266759457,-0.099749722,2.7686243999999998,2.9366735999999998,-3.76241064
25,1715673375670,0.859068394,-0.397620745,-0.1538626334,2.3431111700000002,2.5906795899999997,-2.93529916
26,1715673375680,0.7250694244444444,-0.5457838944444444,0.001585458000000001,1.6643192555555555,2.3234598777777777,-1.9500685111111113
27,1715673375690,0.747244833,-0.5878514060000001,0.09657270700000001,1.194027765,2.35039569,-1.37621831
28,1715673375700,0.9098213699999999,-0.581668088,0.081919414,0.64033947,2.60039234,-0.72799868
29,1715673375710,0.9867954250000001,-0.6627215700000001,-0.024909990000000003,0.5574908749999999,2.645581,-0.6556875
30,1715673375720,1.0811742333333332,-0.8675845222222223,-0.10030395666666667,0.7137790722222221,2.3967466444444443,-0.8062742555555555
31,1715673375730,1.1475365,-1.17488565,-0.09903017,0.81199265,2.2527182,-0.8753699000000001
32,1715673375740,1.12523646,-1.4556580000000001,-0.061223085999999996,1.1501370999999998,1.73235276,-1.0603093399999999
33,1715673375750,1.07667262,-1.62947308,-0.061686526,1.26485762,1.5069434400000001,-1.10151216
34,1715673375760,1.0031073333333334,-1.8247000333333334,-0.12834082,1.2695816666666666,1.3092878333333333,-0.9994264
35,1715673375770,0.94847,-1.9534067,-0.21964696,1.201572,1.0842859,-0.7948884
36,1715673375780,0.8668310699999999,-2.1148429500000003,-0.361502794,0.8936653120000001,0.701761984,-0.356592598
37,1715673375790,0.79100953,-2.17402936,-0.42547606,0.46050077079999996,0.344283644,0.103694372
38,1715673375800,0.7278066999999999,-2.082743433333333,-0.38333539,-0.26421618688888887,-0.03671978666666667,0.7165279444444445
39,1715673375810,0.6938514299999999,-1.88733565,-0.277729615,-1.2676370220000002,-0.293581834,1.37551578
40,1715673375820,0.68302763,-1.705069,-0.19757249999999998,-2.14719135,-0.42004621000000003,1.8986455
41,1715673375830,0.67371815,-1.5245876222222223,-0.15495484555555555,-2.6931351777777777,-0.5315885166666666,2.2778994888888886
42,1715673375840,0.664014332,-1.42604664,-0.142081464,-2.94663072,-0.666179108,2.5370760199999998
43,1715673375850,0.644818122,-1.2978013499999999,-0.12342792619999998,-2.98093091,-0.9312334979999999,2.8329944400000002
44,1715673375860,0.638482357,-1.23735274,-0.1207753336,-2.8072006800000002,-1.15633732,3.0403679200000004
45,1715673375870,0.6544690799999999,-1.1347613,-0.14836231666666666,-2.406147222222222,-1.4751887111111113,3.339277844444444
46,1715673375880,0.6727709799999999,-1.0653181699999998,-0.164204698,-2.0847304,-1.7085901,3.5460727
47,1715673375890,0.72639603,-0.89597918,-0.15480171400000003,-1.49292409,-2.10424743,3.9021308699999997
48,1715673375900,0.78108215,-0.7296767,-0.12640981,-1.0569496,-2.3967297,4.1570907
49,1715673375910,0.8449341188888888,-0.5306407444444444,-0.11218133888888888,-0.9257493333333334,-2.4846264999999996,4.2278153666666665
50,1715673375920,0.8826490760000001,-0.422573456,-0.142435136,-0.99940608,-2.48710738,4.239618640000001
51,1715673375930,0.938530368,-0.37863184399999994,-0.190986754,-1.21837068,-2.48335048,4.3023851
52,1715673375940,1.055945685,-0.35666715,-0.24519723999999998,-1.5198327,-2.5179101000000004,4.5223882
53,1715673375950,1.25656715,-0.34544698500000004,-0.25623447,-1.72767965,-2.61435055,4.8794388500000005
54,1715673375960,1.4920382666666665,-0.3056682466666667,-0.23456654000000002,-1.8166623555555554,-2.734792833333333,5.293826111111112
55,1715673375970,1.9590778,-0.099944859,-0.175467565,-1.75263348,-2.9289461599999997,5.8479047600000005
56,1715673375980,2.2207394,0.040734082,-0.14360595,-1.7040086,-3.0132456,6.0553546
57,1715673375990,2.7324765,0.37904653,-0.04756375,-1.58663078,-3.1719942600000004,6.3698279200000005
58,1715673376000,3.43969474,1.013784759,0.1330931354,-1.539976,-3.29288442,6.636730160000001
59,1715673376010,4.265242233333333,1.8807262666666666,0.4273962111111111,-1.6437026666666668,-3.3223772444444446,6.7429172
60,1715673376020,4.7645769,2.7336047,0.861147815,-2.15131475,-3.09983575,6.519382950000001
61,1715673376030,4.779005222222222,2.938030488888889,1.1321731022222223,-2.6915062222222224,-2.699481422222222,6.194784344444445
62,1715673376040,4.67056532,2.90443768,1.26423228,-3.06330596,-2.23014684,5.87915018
63,1715673376050,4.47566366,2.76906397,1.28117232,-3.07668395,-1.7497776600000001,5.5743896
64,1715673376060,4.2096543,2.6282997700000004,1.23009012,-2.57336148,-1.4813177,5.3723766
65,1715673376070,4.043736040000001,2.59186474,1.1740136700000001,-1.80480138,-1.4588073600000002,5.3454068
66,1715673376080,3.9170273,2.6159605249999998,1.10804485,-0.9328675900000001,-1.46214415,5.326287000000001
67,1715673376090,3.7328398,2.683937,1.0469513,-0.37507126,-1.4842498,5.224578
68,1715673376100,3.1188222899999998,2.48724873,0.91531558,0.49687780400000003,-1.30325041,4.279676029999999
69,1715673376110,2.63015356,2.1512048100000003,0.735689269,0.91095284,-1.074847925,3.6455369400000004
70,1715673376120,2.23511216,1.84555886,0.531921273,1.0987175800000002,-0.911777468,3.34066944
71,1715673376130,1.7850432,1.5285241666666667,0.29794421666666665,1.1667526666666665,-0.9080002866666665,3.2840116000000004
72,1715673376140,1.5322540500000001,1.3967278,0.34642265499999997,0.9087384000000001,-0.9499717999999999,3.4055737
73,1715673376150,1.34837137,1.3807939,0.438915858,0.47112982160000005,-0.7756767,3.4810156
74,1715673376160,1.004412256,1.42729058,0.519725436,-0.3293479984,-0.35225545199999997,3.4202650599999997
75,1715673376170,0.78583854,1.4416085,0.513221,-0.7378743000000001,-0.07915795666666667,3.2580498
76,1715673376180,0.5750945,1.4440477,0.4736252,-1.0227411,0.15989397,3.0531044
77,1715673376190,0.30874362899999996,1.49217852,0.3209150736,-0.95353011,0.38160753399999997,2.7506346
78,1715673376200,-0.10116444,1.586739,-0.040917024,-0.54351735,0.52748215,2.3806946
79,1715673376210,-0.4851367055555556,1.670564988888889,-0.41276123555555555,-0.3809593211111111,0.45685933888888886,2.2815647333333335
80,1715673376220,-0.8104741350000001,1.6948549500000003,-0.5919857850000001,0.8769734750000001,-0.6364452549999999,1.2795336
81,1715673376230,-0.9898680888888889,1.7222888222222223,-0.5308169077777778,0.82762064,-1.238512322222222,0.8872647688888888
82,1715673376240,-1.05726904,1.7739449600000001,-0.368119056,0.247217148,-1.52081008,0.657199382
83,1715673376250,-1.0592081500000001,1.92401475,-0.1869926175,-1.036943795,-1.48570065,0.41859540500000003
84,1715673376260,-1.02474268,2.15486968,-0.027635760000000002,-2.3129649,-1.3487141,0.089415405
85,1715673376270,-0.9419655511111112,2.2793132,0.09110287222222221,-3.0391564,-1.2550226333333334,-0.31225396
86,1715673376280,-0.8399026839999999,2.3401121,0.25757599999999997,-3.56433764,-1.16766894,-1.05417016
87,1715673376290,-0.7719962349999999,2.31406172,0.448727402,-3.46433894,-1.10884258,-1.7639955999999999
88,1715673376300,-0.70967555,2.2516556,0.63650054,-3.2340734000000007,-1.0659598,-2.1288655
89,1715673376310,-0.530963928,1.98659147,0.8781000219999999,-1.96442053,-0.77201147,-2.89446268
90,1715673376320,-0.3491260444444444,1.7800023111111112,0.9655780266666666,-0.7525520622222222,-0.4231259866666667,-3.3701944444444445
91,1715673376330,-0.15976540720000001,1.64444966,0.986069676,-0.050961427999999996,-0.122906084,-3.62388179
92,1715673376340,0.09491068222222222,1.559813222222222,0.9873882,0.4066326433333333,0.30395636666666664,-3.8193331666666666
93,1715673376350,0.332970642,1.5633594800000001,0.9870331999999999,0.44525967800000005,0.77607376,-3.9336667800000003
94,1715673376360,0.61656035,1.64652895,0.964720975,0.20488420000000002,1.210796,-4.10373156
95,1715673376370,0.9354509499999999,1.7301924,0.951183575,-0.20803016,1.64347186,-4.45546772
96,1715673376380,1.1808859999999999,1.79065324,0.95558016,-0.551702946,1.92993718,-4.80301958
97,1715673376390,1.3230310555555556,1.8396398555555555,0.9769540777777779,-0.8470495011111111,2.198487077777778,-5.2233561
98,1715673376400,1.7177586599999999,1.9780056599999998,1.1437985,-0.9517891519999999,2.44532404,-5.65080906
99,1715673376410,2.04078975,2.1728402499999997,1.3309923,-0.650556232,2.76196616,-5.93328823
100,1715673376420,2.3606743000000003,2.44387432,1.47332988,0.0010079199999999955,3.11776452,-6.06751048
101,1715673376430,2.9443926,2.8499561888888887,1.6313824444444445,0.6403225333333333,3.5231143,-6.180055711111112
102,1715673376440,3.43434655,3.14280525,1.64125425,0.8746979639999999,3.8321103799999996,-6.28494804
103,1715673376450,3.876964,3.3612936999999996,1.51755805,0.865718208,4.20293618,-6.70131372
104,1715673376460,4.1973994333333335,3.3984706666666664,1.3109504666666667,0.7878464777777778,4.333376055555555,-7.1000866
105,1715673376470,4.2279052,3.3117297999999997,1.23635262,0.831845764,4.2978948,-7.450173479999999
106,1715673376480,4.129741,2.9913817799999998,1.13756642,1.053986888,4.186748,-7.60175964
107,1715673376490,4.045785,2.7079017,1.0468293,1.455081,4.048204,-7.509519000000001
108,1715673376500,3.852237,2.3261724,0.83260953,2.33362743,3.6694066,-7.1059815
109,1715673376510,3.6705009499999997,2.07805404,0.717615012,3.56111529,2.88781956,-6.09498429
110,1715673376520,3.5791724444444437,2.053995155555556,0.7164645611111111,3.6117406888888888,2.6839892666666665,-5.600446255555555
111,1715673376530,3.2053212,1.7808844000000001,0.5894733779999999,2.9632157,2.7557658800000002,-5.202281000000001
112,1715673376540,2.772235,1.35110328,0.39725487,2.2685702599999997,2.94768446,-5.06149196
113,1715673376550,2.2852554,0.8702947,0.16927817,1.6457932,3.0676736399999998,-4.87317728
114,1715673376560,1.9245229,0.5062490366666667,0.014004879999999997,1.3866641333333334,2.9302186666666667,-4.563468666666667
115,1715673376570,1.50666106,0.045636805999999995,-0.12175100799999998,1.25668727,2.6215892000000003,-4.0604214999999995
116,1715673376580,1.34868852,-0.15761896000000003,-0.14027647999999998,1.25380096,2.3699434600000004,-3.60156998
117,1715673376590,1.23038892,-0.327305693,-0.131001545,1.27069134,2.1117918,-3.0201178200000003
118,1715673376600,1.126773,-0.49606553,-0.09713981,1.2527319,1.9720258,-2.6994135
119,1715673376610,0.9847952809999999,-0.808620375,-0.021989088499999997,1.1629194200000001,1.96041928,-2.2001686200000004
120,1715673376620,1.0098393959999998,-0.93964022,-0.0432220356,1.1994338800000002,2.00333256,-1.86772052
121,1715673376630,1.1017716,-1.12070565,-0.055247126,1.2808317,1.8431331499999999,-1.48906035
122,1715673376640,1.1114063222222221,-1.2862471333333334,-0.015014425555555556,1.1904405777777778,1.725422788888889,-1.4448150333333334
123,1715673376650,1.0929784200000001,-1.4772081400000001,-0.013415416999999999,0.9863029919999999,1.66668476,-1.50288124
124,1715673376660,1.0590252,-1.666957,-0.10637816250000001,0.772973595,1.5347226,-1.5373951499999998
125,1715673376670,1.04284132,-1.90409896,-0.21601261000000002,0.675693305,1.2215014,-1.4133131
126,1715673376680,1.0396948,-2.1328075,-0.30495682,0.64843345,1.0236574,-1.3023647
127,1715673376690,1.0385972,-2.2999513,-0.35581344,0.6401868,0.73761976,-1.0645854
128,1715673376700,1.00078397,-2.40488401,-0.352520574,0.564179856,0.21009183,-0.42030586999999997
129,1715673376710,1.0129656,-2.2977358666666667,-0.21480927666666666,0.20265455,-0.23671028,0.5626069
130,1715673376720,1.0309748200000002,-2.1592602600000004,-0.1495940944,-0.398375762,-0.37598756,1.37585182
131,1715673376730,1.03481655,-1.8849270500000004,-0.048051583,-1.17492293,-0.39301543,2.03586115
132,1715673376740,1.0039611,-1.6966843666666669,-0.003983972223333333,-1.7062484666666666,-0.35343645,2.3420573
133,1715673376750,0.9209561799999999,-1.51647874,-0.018488883602,-2.2327889,-0.33032538499999997,2.54906425
134,1715673376760,0.8352519666666667,-1.3926219333333334,-0.06707708600000001,-2.4423410666666663,-0.419359,2.6873997666666667
135,1715673376770,0.773221938,-1.31641217,-0.127647695,-2.41088657,-0.6766248819999999,2.9178283499999997
136,1715673376780,0.736372248,-1.2442067600000002,-0.17751035799999998,-2.12171836,-1.061118748,3.23879236
137,1715673376790,0.709675586,-1.12154102,-0.20792676999999998,-1.74704404,-1.4166881,3.52802176
138,1715673376800,0.71918833,-1.0369507,-0.20860973,-1.4396566,-1.6668985,3.738648
139,1715673376810,0.756824653,-0.9091628120000002,-0.185309593,-0.9668011599999999,-1.97514115,4.09110222
140,1715673376820,0.8125595640000001,-0.817517226,-0.18877931,-0.723157517,-2.12414645,4.35078086
141,1715673376830,0.9949848960000001,-0.72950598,-0.24691685,-0.754800385,-2.20568165,4.8595858
142,1715673376840,1.2122794222222222,-0.6598488022222222,-0.31404271888888885,-0.9716151333333334,-2.243775911111111,5.358798444444444
143,1715673376850,1.48494031,-0.564228051,-0.37661344999999996,-1.23527643,-2.31719517,5.79152176
144,1715673376860,1.9273380500000001,-0.3764244,-0.39471817000000003,-1.6769013999999998,-2.5418103000000003,6.33940695
145,1715673376870,2.3579424666666666,-0.20155647333333335,-0.35914698333333334,-2.0393736,-2.7542896,6.7157507999999995
146,1715673376880,2.8633011999999995,0.041429244,-0.2357454588,-2.385948,-2.9858483199999997,7.0883886
147,1715673376890,3.4779836599999996,0.46502711999999996,0.025952736799999997,-2.6402205899999998,-3.1838143299999997,7.584854040000001
148,1715673376900,3.9098622999999995,0.813584,0.21903718,-2.6570194899999997,-3.2194890299999996,7.900167519999999
149,1715673376910,4.5172756666666665,1.4590418,0.5564890888888889,-2.4950281555555556,-3.187834311111111,8.20392011111111
150,1715673376920,4.92212241,1.9102883800000001,0.7689473,-2.25623086,-3.05896884,8.0192862
151,1715673376930,5.1087736999999995,2.17027915,0.938286475,-2.1208936,-2.7591561000000002,7.4826105
152,1715673376940,5.15217858,2.2804501900000003,1.029389355,-2.1229857900000004,-2.49761407,7.19359483
153,1715673376950,5.12049371,2.47109551,1.1295598300000003,-2.12245128,-2.0392513699999997,6.88177872
154,1715673376960,4.796234955555556,2.6026315222222225,1.118886388888889,-1.7996090111111112,-1.5886568555555556,6.509821088888888
155,1715673376970,4.46289464,2.57129634,1.0440974600000001,-1.36229058,-1.35306648,6.14890856
156,1715673376980,4.11382564,2.43776418,0.9466954980000001,-0.6149733038,-1.2440423299999999,5.7334592
157,1715673376990,3.785180355555555,2.301875466666667,0.8760470755555555,0.05353555355555556,-1.2142643555555555,5.515977477777778
158,1715673377000,3.3019,2.1265264,0.764008,0.95707315,-1.1753048,5.3805013
159,1715673377010,2.84619663,2.0925794699999996,0.6767894799999999,1.66647092,-0.97182548,5.28572552
160,1715673377020,2.3842244,2.1391797,0.5135055900000001,1.5457945,-0.51259231,5.163262
161,1715673377030,2.1573412888888885,2.225834377777778,0.3674130377777778,1.0307842222222223,-0.2686279888888889,4.986798177777778
162,1715673377040,1.9671392400000003,2.31439108,0.244843568,0.26038132999999997,-0.13316863,4.5718682
163,1715673377050,1.73636349,2.36665651,0.209609795,-0.255295866,-0.13394748,4.11133691
164,1715673377060,1.3490176999999999,2.3763582800000003,0.24784374000000003,-0.685742062,-0.17492126,3.46514831
165,1715673377070,1.01371768,2.33072132,0.23629428,-0.8672912,-0.21025981300000002,2.89195824
166,1715673377080,0.7857775,2.29739,0.21342708,-0.9140071,-0.24831672,2.4756842
167,1715673377090,0.42197582,2.2521436,0.17446141,-0.8402451,-0.4169155399999999,1.9598085
168,1715673377100,0.125482927,2.20741532,0.19769446699999998,-0.7930557699999999,-0.5709757360000001,1.5106697199999999
169,1715673377110,-0.20535954800000003,2.1672971100000002,0.266070392,-0.84754498,-0.6791446600000001,0.933570045
170,1715673377120,-0.41506488444444445,2.1392916222222222,0.31437468999999996,-0.9729047000000001,-0.6724098888888889,0.4796140633333333
171,1715673377130,-0.53870829,2.1106415299999997,0.335720788,-1.07058718,-0.6345209840000001,0.14648548099999997
172,1715673377140,-0.672941722,2.05180276,0.334982968,-1.22786968,-0.553443924,-0.46706758800000003
173,1715673377150,-0.7202311,2.01841654,0.341440669,-1.30717525,-0.5569564,-0.9812023
174,1715673377160,-0.7561485166666667,1.9839233111111112,0.3744256544444445,-1.3208433333333334,-0.5807971166666667,-1.2618948333333333
175,1715673377170,-0.758111328,1.9475832,0.43279964500000007,-1.2841304199999999,-0.617706935,-1.71410318
176,1715673377180,-0.683747211,1.92572199,0.6463243000000001,-1.2512506,-0.546418992,-1.94815622
177,1715673377190,-0.60487676,1.9738956,0.7377259599999999,-1.19198132,-0.36019670080000005,-2.095787
178,1715673377200,-0.4471602,2.0453632,0.8084618,-1.0742066,-0.017256944,-2.314721
179,1715673377210,-0.030696916,2.1900058199999997,0.6793445,-0.724791625,0.65194595,-3.1016683499999997
180,1715673377220,0.192340486,2.23997232,0.60723054,-0.58413993,0.785297832,-3.53654328
181,1715673377230,0.547788072,2.17509048,0.619706884,-0.30805933799999996,0.8845939639999999,-4.440226640000001
182,1715673377240,0.7630865555555556,2.029732288888889,0.6669494733333333,-0.08911845000000002,0.9720902777777778,-4.924744666666666
183,1715673377250,1.01990705,1.8387353499999999,0.6897048499999999,0.248499976,1.12506112,-5.369841599999999
184,1715673377260,1.2530181599999999,1.71070967,0.701534801,0.623769778,1.2809233299999998,-5.58672939
185,1715673377270,1.5377929000000001,1.6712764333333334,0.7231315966666667,0.9901107666666668,1.4641931000000001,-5.695503866666667
186,1715673377280,1.7025993,1.7068068999999997,0.69930905,1.1209377,1.6378825,-5.768095
187,1715673377290,1.8467723299999999,1.7358512999999998,0.669417081,1.0063699449999999,1.77598383,-5.97183378
188,1715673377300,2.2053115,1.8124229,0.62540233,0.77396625,2.005776,-6.333298
189,1715673377310,2.6405076999999997,2.04874152,0.6483914879999999,0.24947735359999998,2.3850927200000003,-6.91285652
190,1715673377320,2.8324618666666668,2.144942211111111,0.6637988888888889,0.09906197977777778,2.5707415,-7.119108455555556
191,1715673377330,3.2057358000000002,2.29025555,0.6859851499999999,0.220751435,2.7640889,-7.163235
192,1715673377340,3.449433,2.3775776399999997,0.701333608,0.574030088,2.78215528,-7.1051568000000005
193,1715673377350,3.6573475200000005,2.33231888,0.684478958,1.19931177,2.75854532,-7.0787672
194,1715673377360,3.7135094000000004,2.133904933333333,0.5827169266666667,1.7844222444444442,2.730669533333333,-7.078519555555555
195,1715673377370,3.6703362,1.9480404,0.45148978,2.3593142,2.6497808,-7.032433499999999
196,1715673377380,3.5900266000000003,1.7102216,0.30459094,3.036611,2.323884,-6.691875999999999
197,1715673377390,3.50744861,1.58561075,0.165912118,3.3290933800000007,1.9260274899999998,-6.18508685
198,1715673377400,3.412929444444445,1.6013467666666665,0.13422191888888887,3.4869716,1.4489723,-5.5969
199,1715673377410,3.27159321,1.56053007,0.21965306,2.74733599,1.28521471,-5.21312408
200,1715673377420,3.0415187599999998,1.30353954,0.18274236800000002,2.0877236999999997,1.4115262999999998,-5.04199016
201,1715673377430,2.6602466999999996,0.7687949,-0.04783816,1.48577695,1.49455815,-4.52208255
202,1715673377440,2.490070711111111,0.44972138888888885,-0.2266595777777778,1.379554288888889,1.312664577777778,-3.9544870555555556
203,1715673377450,2.34902718,0.16416812496000002,-0.31456713999999997,1.3277919500000002,0.84574295,-3.2621732000000003
204,1715673377460,2.04325945,-0.1095185788,-0.18074225,1.0352638500000002,0.439975685,-2.740876
205,1715673377470,1.7513827,-0.2930862,-0.02514374666666667,0.6103561933333334,0.4067853466666667,-2.4910066333333334
206,1715673377480,1.45113956,-0.514889807,0.0641195923,0.126678188,0.64539438,-2.22443525
207,1715673377490,1.2642201,-0.69626015,0.026343000999999998,-0.11010846,0.8268061,-1.9642372
208,1715673377500,1.016973945,-0.9777460699999999,-0.087529494,-0.1470658,0.8439103400000001,-1.6308575
209,1715673377510,0.7880812,-1.3846675555555557,-0.14269803333333334,0.06478565644444445,0.5005870955555555,-0.9900937222222223
210,1715673377520,0.70040672,-1.5350591,-0.09183463,0.20288361,0.28580858,-0.577573075
211,1715673377530,0.64912325,-1.6072889,-0.0319225935,0.28252516,0.152792667,-0.19868391999999999
212,1715673377540,0.6288172000000001,-1.6363420666666668,-0.0005759147777777779,0.2380677644444444,0.0961943051111111,0.17533529888888888
213,1715673377550,0.6282988850000001,-1.6399432,0.00997009375,0.13512339839999998,0.064110306,0.42048911
214,1715673377560,0.637628705,-1.6615603499999998,0.0086895316,-0.027214046400000004,0.020341813200000003,0.59156192
215,1715673377570,0.6348541366666667,-1.7261373,-0.009472098199999997,-0.22654616111111114,-0.04381261333333333,0.7636154955555555
216,1715673377580,0.616938424,-1.8261431,-0.042978119999999995,-0.368962603,-0.108336951,0.9613644579999999
217,1715673377590,0.5994252,-1.9178559,-0.06756492,-0.46410486000000006,-0.16584991,1.1919508
218,1715673377600,0.6098526630000001,-1.9511686799999999,-0.10856121060000001,-0.510423756,-0.263985406,1.5700611400000002
219,1715673377610,0.67468875875,-1.8776551875,-0.13817116925,-0.535996075,-0.51066424375,2.3449971
220,1715673377620,0.8017270000000001,-1.6076615333333335,-0.09481583333333335,-0.6152600555555555,-0.7756461444444445,3.1650116777777777
221,1715673377630,0.91288865,-1.3826721499999999,-0.0328067925,-0.787222016,-0.8967501999999999,3.6092668199999998
222,1715673377640,0.989170211111111,-1.1912077444444444,0.012480402555555556,-1.0544551777777778,-0.9158566844444445,3.901816888888889
223,1715673377650,1.0181814,-1.0439694750000001,0.0256661313,-1.3123523,-0.8834944,4.0109411
224,1715673377660,1.03204802,-0.85725733,-0.016391200199999994,-1.54426735,-0.88758719,4.05248
225,1715673377670,1.03307246,-0.73847599,-0.08704166399999999,-1.6232064300000002,-0.9495899879999999,4.07926655
226,1715673377680,1.0368288,-0.6826008,-0.12067777,-1.6299412,-1.0361801,4.105778
227,1715673377690,1.06785496,-0.58703424,-0.13882517,-1.53037016,-1.1952494599999999,4.17089624
228,1715673377700,1.07533718,-0.472862952,-0.15389922,-1.3035865,-1.3718506,4.245819
229,1715673377710,1.0961819000000002,-0.3988647433333333,-0.20700395333333332,-0.98298402,-1.4853188666666666,4.377307766666667
230,1715673377720,1.14199348,-0.320274796,-0.309164404,-0.658909782,-1.59518302,4.5677448400000005
231,1715673377730,1.29339248,-0.180120272,-0.47151535200000005,-0.41294489500000003,-1.8512271500000002,4.86485465
232,1715673377740,1.6065435333333333,-0.04055792222222223,-0.5301258077777777,-0.36847052,-2.1715750555555555,5.115809966666666
233,1715673377750,1.92386828,0.0485638112,-0.503297662,-0.482919536,-2.4004255399999996,5.359945659999999
234,1715673377760,2.3432668333333333,0.16807891666666666,-0.42130506,-0.8435540111111111,-2.594446488888889,5.731714666666666
235,1715673377770,2.9073953500000003,0.37050942,-0.24977067000000003,-1.3461179,-2.6859745,6.11010325
236,1715673377780,3.3672085555555555,0.6311682566666668,-0.07200284311111112,-1.7741053666666666,-2.6362908,6.395148333333333
237,1715673377790,3.83089405,0.967836968,0.0794314656,-2.26255329,-2.45897692,6.70172618
238,1715673377800,4.244089,1.267574,0.16488767,-2.52211,-2.327702,6.8390946
239,1715673377810,4.727093,1.9548519,0.46386244199999993,-2.57575912,-2.2333691599999996,6.55398858
240,1715673377820,4.889956199999999,2.33194094,0.717950431,-2.37020302,-2.08859407,6.0785063
241,1715673377830,4.7448195,2.549356,0.977221635,-1.89184975,-1.8000672000000002,5.4705274
242,1715673377840,4.5492288,2.5791953000000003,1.0891895666666667,-1.5419766666666668,-1.5543975333333335,5.182428033333333
243,1715673377850,4.22599052,2.5373311000000003,1.1580309400000002,-1.0269255720000001,-1.123075735,4.85793641
244,1715673377860,3.8507938333333334,2.490978711111111,1.1100715,-0.30086809155555555,-0.5178270633333333,4.500498733333334
245,1715673377870,3.4965819500000004,2.4499050799999997,1.00369267,0.29142852579999995,-0.122096681,4.21125925
246,1715673377880,3.1101936500000003,2.36194266,0.8481897499999999,0.8638550599999999,0.22000312900000002,3.87439757
247,1715673377890,2.819859611111111,2.2597118555555555,0.6980692088888889,1.1325441555555555,0.4047152044444444,3.6450837333333337
248,1715673377900,2.40815886,2.09807353,0.45972193599999994,1.47447598,0.68453561,3.1737809
249,1715673377910,1.7028839333333332,1.7510575000000002,0.06059296500000001,1.5623387777777777,0.7204307222222222,2.521482088888889
250,1715673377920,1.4398035200000001,1.6349004,-0.0514298304,1.4596625199999997,0.642844066,2.34269876
251,1715673377930,0.9724957,1.4791412000000002,-0.170284325,1.06376074,0.459523382,2.07416244
252,1715673377940,0.75550746,1.4170339200000002,-0.21511010800000002,0.773691366,0.396482088,1.90006582
253,1715673377950,0.44945713333333337,1.3446719333333332,-0.31353456,0.46944992,0.32442035,1.6543757666666667
254,1715673377960,0.21337830000000002,1.3056858500000001,-0.392077784,0.274354845,0.21375701600000002,1.4636331
255,1715673377970,-0.146020716,1.3084787800000002,-0.415353512,0.019089540000000006,-0.092423912,1.19659333
256,1715673377980,-0.43540956199999997,1.32575421,-0.338135566,-0.1910481,-0.3313944,0.9695958499999999
257,1715673377990,-0.6479036666666667,1.3494283111111112,-0.23050802666666664,-0.42534887000000005,-0.44118047,0.7637342611111112
258,1715673378000,-0.8224808899999999,1.42672955,-0.13238576870000002,-0.65668017,-0.48991394,0.5749769
259,1715673378010,-0.9906309600000001,1.5390044399999998,-0.041868296799999996,-0.899544927,-0.49458704600000003,0.257754593
260,1715673378020,-1.07270902,1.6269485799999999,0.020659743599999995,-1.1452043699999999,-0.639331568,-0.30106493
261,1715673378030,-1.0916152555555554,1.6864940333333334,0.12301530333333331,-1.2960524111111111,-0.7495316444444444,-0.6755830111111112
262,1715673378040,-1.07689208,1.7332352399999997,0.291956052,-1.4608842000000002,-0.7860308500000001,-1.0791698
263,1715673378050,-0.99937534,1.7662005600000001,0.46997862799999995,-1.5680147500000001,-0.669202885,-1.4106405499999999
264,1715673378060,-0.8404623055555556,1.810363022222222,0.6000417611111112,-1.5635605333333331,-0.46415579333333334,-1.6642005000000002
265,1715673378070,-0.6515989799999999,1.85546795,0.630988035,-1.3685214,-0.1619861942,-1.9310213900000002
266,1715673378080,-0.333129205,1.9478270500000001,0.56591717,-0.9292788000000002,0.1561677076,-2.33487984
267,1715673378090,-0.1433376272,1.9885916600000002,0.47391789200000006,-0.5308113480000001,0.32849279200000003,-2.75029868
268,1715673378100,-0.061162102999999995,1.9959092000000003,0.42148802,-0.3097426266666667,0.3693019677777778,-3.0439924888888887
269,1715673378110,0.24134335399999998,1.8765242199999999,0.24892915399999999,0.183274845,0.33764049500000004,-3.8949379
270,1715673378120,0.45813648999999995,1.7084534000000002,0.26480203,0.39599339499999997,0.27313313,-4.4868051
271,1715673378130,0.63064655,1.57792755,0.31242676,0.38446332499999997,0.373467745,-4.8243846
272,1715673378140,0.7977497833333334,1.4768748666666667,0.33457237333333334,0.2808962133333333,0.5526803333333333,-5.0529753333333325
273,1715673378150,1.05931789,1.40115496,0.355386592,0.11313224880000002,0.8460789,-5.2818461999999995
274,1715673378160,1.29018508,1.40982619,0.39148015599999997,-0.014737123999999999,1.15415355,-5.42448325
275,1715673378170,1.47434218,1.49930706,0.43357408799999997,-0.088086768,1.35367742,-5.5145859999999995
276,1715673378180,1.755651211111111,1.6910336111111113,0.4839374622222222,-0.30248011,1.7188220666666667,-5.792631666666667
277,1715673378190,1.9965312400000002,1.89268973,0.5300919000000001,-0.510729169,1.9584644999999998,-6.05718733
278,1715673378200,2.13380142,2.04052152,0.555227547,-0.75579304,2.215761,-6.3801823
279,1715673378210,2.2173855,2.169273,0.51966447,-0.99082345,2.4801128,-6.788697999999999
280,1715673378220,2.3908915444444445,2.3166122,0.5921212966666667,-0.9811174888888888,2.5405884555555556,-6.986279311111111
281,1715673378230,2.69992576,2.4473134,0.791082736,-0.91348786,2.5700629,-6.74086736
282,1715673378240,3.06886805,2.51362225,0.9685321200000001,-0.8026769149999999,2.7708085000000002,-6.3361232
283,1715673378250,3.42315092,2.45072832,0.94478686,-0.43142356807999993,3.02897532,-5.979301599999999
284,1715673378260,3.8229940222222223,2.3952006666666663,0.7095400611111111,0.36219218319999996,3.1547117,-5.566051333333333
285,1715673378270,4.176048679999999,2.60390804,0.561642504,1.5275601699999999,2.76294357,-5.02190771
286,1715673378280,4.443674199999999,2.85952048,0.625329148,2.7054611,1.93231952,-4.45977436
287,1715673378290,4.522947,2.924256,0.8609039,3.3667839,1.363604,-4.271017
288,1715673378300,4.30558043,2.58488264,0.8650748589999999,2.96860661,1.60301729,-4.5356746
289,1715673378310,3.9257169,2.058047,0.7485803,2.3235786,1.9964603,-4.840649
290,1715673378320,2.832421422222222,0.7407071444444445,0.39170306,0.8934413111111112,2.6505442444444447,-4.917566888888889
291,1715673378330,2.3710653,0.267942466,0.273247646,0.6436687,2.74877144,-4.725409000000001
292,1715673378340,1.86802362,-0.20935978,0.180199536,0.53470561,2.7678763799999997,-4.171094760000001
293,1715673378350,1.38451986,-0.5433853500000001,0.209060974,0.9362425999999999,2.5721398,-3.08697688
294,1715673378360,1.1583670555555556,-0.6750461533333333,0.20808801777777777,1.2920817777777778,2.498371022222222,-2.5024433444444445
295,1715673378370,0.966324612,-0.803839602,0.1339956184,1.6632945,2.4378411,-1.98491496
296,1715673378380,0.7885154940000001,-0.924864968,0.0115311612,2.02544596,2.32266248,-1.3959492199999999
297,1715673378390,0.674734496,-0.982398778,-0.0881027016,2.15128404,2.17471076,-0.92234544
298,1715673378400,0.600535052,-1.0006559,-0.161399658,2.1527959799999996,2.0097314,-0.553214835
299,1715673378410,0.5413933666666666,-0.9259280333333333,-0.24428255000000001,1.9410752666666664,1.7892752666666665,-0.12772173833333333
300,1715673378420,0.5383301699999999,-0.8843199499999999,-0.259631016,1.58105667,1.56945033,0.12243266750000001
301,1715673378430,0.55213585,-0.8472446,-0.270412135,1.0974194000000002,1.3529138,0.13706289
302,1715673378440,0.5558386333333334,-0.8597791777777778,-0.2747721388888889,0.7582534511111111,1.2102597444444445,0.04892012577777778
303,1715673378450,0.5399095239999999,-0.9541166000000001,-0.27038163800000004,0.47678032400000003,1.078788016,-0.0605672902
304,1715673378460,0.49246776,-1.0905514,-0.26504595000000003,0.200058375,0.9069058200000001,-0.14164438
305,1715673378470,0.44142211099999995,-1.18730709,-0.26823516999999997,0.0564286729,0.75971783,-0.11606439610000001
306,1715673378480,0.39385089666666667,-1.2718086666666666,-0.2801992955555555,-0.06556620322222223,0.5441791111111112,0.03463266566666667
307,1715673378490,0.381522264,-1.32693114,-0.28335799799999994,-0.168293374,0.28487702000000004,0.306715436
308,1715673378500,0.395773083,-1.3291445499999999,-0.270271858,-0.24506386500000002,0.107008324,0.5480224760000001
309,1715673378510,0.465051531,-1.26658,-0.195047965,-0.4946175869999999,-0.219606062,1.11731831
310,1715673378520,0.53343967,-1.13422475,-0.120141162,-0.778211798,-0.34532211999999995,1.5016289600000001
311,1715673378530,0.5862740444444444,-0.984081811111111,-0.09954510444444445,-1.0421530977777778,-0.4109086833333333,1.7526572555555555
312,1715673378540,0.59351022,-0.8910154200000001,-0.10877463400000001,-1.1916454,-0.475069898,1.84282774
313,1715673378550,0.5814973333333334,-0.8274467,-0.12618622333333335,-1.3105095666666666,-0.5632686422222222,1.8916121333333333
314,1715673378560,0.562276716,-0.793778044,-0.156838428,-1.36659712,-0.7527997799999999,1.9465221200000002
315,1715673378570,0.54808074,-0.77724046,-0.1864743,-1.3582588,-0.9045387,1.9964603
316,1715673378580,0.531006605,-0.7687948299999999,-0.19345641500000002,-1.30076115,-1.02854435,2.0651063
317,1715673378590,0.5035659866666666,-0.7455109777777778,-0.19271449666666665,-1.2127880777777778,-1.2146546222222223,2.1740694111111107
318,1715673378600,0.48252205000000004,-0.70204704,-0.1274464594,-1.1368965599999998,-1.42070463,2.46022923
319,1715673378610,0.46499052799999996,-0.6746978800000001,-0.146289028,-1.19976988,-1.40740298,2.7161513
320,1715673378620,0.46060004,-0.649873261,-0.211707481,-1.2833668,-1.40349344,2.95145648
321,1715673378630,0.50469071,-0.6219197722222222,-0.3217328788888889,-1.3316692444444445,-1.463582188888889,3.230459
322,1715673378640,0.574759155,-0.58619275,-0.45694740000000006,-1.2906819,-1.58992945,3.5128569499999998
323,1715673378650,0.7029068749999999,-0.54143405,-0.5618010800000001,-1.19601304,-1.80965774,3.7604253200000004
324,1715673378660,0.9284824,-0.48307697777777775,-0.5995268533333333,-1.0690650888888888,-2.1808569,4.093950911111111
325,1715673378670,1.2586222599999999,-0.41485346200000006,-0.5699844620000001,-0.99702374,-2.5051890200000004,4.43451518
326,1715673378680,1.5502489899999998,-0.36268579,-0.5185973089999999,-0.967198225,-2.69736725,4.72907444
327,1715673378690,2.10934256,-0.306834972,-0.365399372,-0.91596188,-2.85103022,5.40185082
328,1715673378700,2.5872363,-0.2323306422,-0.21411005359999996,-0.9009040340000001,-2.7905241,6.1771916
329,1715673378710,3.270069,-0.045185562,0.048112564,-0.94134337,-2.5880833,7.099476
330,1715673378720,4.1526814000000005,0.5977299756,0.1989506248,-1.108048434,-1.91038942,8.447227999999999
331,1715673378730,4.8086586,1.18298362,0.22585463199999997,-1.28666538,-1.3666277599999999,9.1856112
332,1715673378740,5.2009435,1.6285705499999998,0.239892045,-1.7417295,-0.91049462,8.7346095
333,1715673378750,5.209612666666667,1.671283088888889,0.3179928055555556,-2.1852006333333334,-0.6475850444444444,7.986061977777778
334,1715673378760,5.01149952,1.58323874,0.369582532,-2.58298252,-0.40353759599999994,7.16157022
335,1715673378770,4.755692010000001,1.4740982,0.374442571,-2.74070804,-0.243933767,6.516328679999999
336,1715673378780,4.293800477777777,1.2433450000000001,0.3229795544444445,-2.2575204,-0.30332852444444447,5.809108044444445
337,1715673378790,3.93761377,1.09416748,0.272997639,-0.9634871730000001,-0.7144068860000001,5.4662054
338,1715673378800,3.7578838500000002,1.03182241,0.234410024,0.591180103,-1.20482472,5.45893626
339,1715673378810,3.3926978400000003,1.09533224,0.29311465999999997,2.4767531000000003,-1.6386612200000001,5.50330018
340,1715673378820,2.9949512,1.1682253333333332,0.3526628466666667,3.7488290222222225,-1.4839274333333334,5.330512000000001
341,1715673378830,2.7438492,1.1615921,0.37544873,3.65648665,-1.0293079500000002,5.2548155
342,1715673378840,2.5502403,1.15180495,0.3509656,2.8778625,-0.49304461,5.3165892
343,1715673378850,2.3384901499999997,1.30839945,0.28788266,1.8923078,-0.014049908,5.27665384
344,1715673378860,2.14369215,1.5461878,0.237910215,0.812084224,0.304302524,4.8545766
345,1715673378870,2.0505464,1.6472304,0.22641563000000003,0.21502456,0.40454552,4.4241915
346,1715673378880,2.00686094,1.6809152399999998,0.22600097400000002,0.110413888,0.405431276,4.302262799999999
347,1715673378890,1.51662512,1.8355216200000002,0.290712088,-1.02579552,0.46163086,2.71792272
348,1715673378900,0.851043606,1.7605172599999999,0.319305218,-1.68753047,0.62531223,1.587165364
349,1715673378910,0.2995093674666667,1.5711892,0.19334461,-1.938597788888889,0.6528792188888889,0.9514056355555556
350,1715673378920,-0.1643083688,1.4546885,0.09052357000000001,-1.7120262500000003,0.165239054,0.691575835
351,1715673378930,-0.3357513,1.4411206,0.06786981,-1.5671748,-0.030543262000000005,0.68966687
352,1715673378940,-0.55768495,1.6300035999999998,0.231751325,-0.99558818,-0.721309658,0.6908885600000001
353,1715673378950,-0.6115939333333333,1.8216170222222223,0.3479471355555555,-0.7883216177777778,-0.9353704500000001,0.5035226266666667
354,1715673378960,-0.617017696,2.00777557,0.400517287,-0.906951604,-0.949926024,0.18570303999999999
355,1715673378970,-0.58436333125,2.2164402375,0.4657436625,-1.2670108,-0.91034192625,-0.20567069375
356,1715673378980,-0.47612529,2.3638981,0.5624312166666666,-1.7299703333333332,-0.7976882133333334,-0.5893322433333332
357,1715673378990,-0.333458478,2.4993531,0.663459448,-2.1564001399999997,-0.630199158,-0.908188627
358,1715673379000,-0.19098675,2.6475327,0.75571483,-2.5059218,-0.38087448,-1.1911873
359,1715673379010,0.04542948,2.798761,0.76473975,-2.7574458,0.041080687,-1.6597209
360,1715673379020,0.39361443,2.88677212,0.5626303829999999,-2.46920896,0.45068109869999995,-2.7333469900000003
361,1715673379030,0.539116816,2.88146082,0.48284524399999995,-2.2151194999999997,0.52241194,-3.3330334
362,1715673379040,0.8848077,2.7790035,0.445849195,-1.8650479999999998,0.43470698499999993,-4.1786239
363,1715673379050,1.1496402,2.7183292999999997,0.5230996466666666,-1.8026124555555556,0.4528038611111111,-4.647106666666667
364,1715673379060,1.49628238,2.68232115,0.6554712,-1.99429172,0.604817666,-4.853904679999999
365,1715673379070,1.96659024,2.7250492,0.8591964799999999,-2.8907364,1.2604593579999999,-5.07094524
366,1715673379080,2.262144,2.760649,0.9773741000000001,-3.4778085000000005,1.7533360000000002,-5.226258
367,1715673379090,2.5957613,2.7864432,1.1078086,-4.100551733333334,2.4918720555555556,-5.521933277777778
368,1715673379100,3.3131322599999997,2.8750216,1.2753427,-4.785304200000001,3.83359182,-6.162103070000001
369,1715673379110,3.8521028399999997,2.8314458,1.25686596,-4.399451279999999,5.1752199,-7.101797
370,1715673379120,4.3248256666666665,2.4479272666666665,1.0236979333333334,-2.8465301333333333,5.914617988888889,-8.204225222222222
371,1715673379130,4.503897,2.03596016,0.8745876000000001,-0.99320579,5.815651,-8.9932804
372,1715673379140,4.7469536,1.5353335,0.9348411999999999,0.8993158300000001,5.27509644,-9.4083628
373,1715673379150,4.86929632,1.3306508,1.12976108,1.7110640799999999,5.0141041600000005,-9.3658164
374,1715673379160,4.940816666666667,1.1732595333333333,1.3801618,1.8523979000000002,5.068145233333333,-9.118742333333334
375,1715673379170,5.1289576,0.8666481399999999,1.56043252,1.3384363000000001,5.68300154,-8.48910252
376,1715673379180,5.32644474,0.61265766,1.52858918,0.9633497679999999,6.34837151,-7.80403266
377,1715673379190,5.3904977,0.4428917,1.4035575,0.90209526,6.671107000000001,-7.392996999999999
378,1715673379200,4.749216049999999,-0.20436558800000001,0.799461262,1.7997617599999998,6.40944241,-5.95091169
379,1715673379210,4.342739944444444,-0.44314240444444447,0.6682164533333332,2.2850943,5.9050817,-5.5058813
380,1715673379220,3.63318755,-0.706815665,0.6801128519999999,3.51623207,4.64610359,-4.4092253900000005
381,1715673379230,3.01540771,-0.8264933649999999,0.6960649999999999,4.385798729999999,3.98122253,-3.5853208100000002
382,1715673379240,2.30668955,-0.99042365,0.48725402500000004,5.127450250000001,3.5689802,-2.83594185
383,1715673379250,1.8725280333333332,-1.1193336,0.21352872066666667,5.505694555555555,3.2809571555555554,-2.274302311111111
384,1715673379260,1.3826755666666668,-1.3291290444444444,-0.17680569888888892,5.578167,2.951599,-1.7976238333333336
385,1715673379270,1.1447847500000001,-1.4511898875,-0.31357011125,5.093547149999999,2.31181955,-1.01312005
386,1715673379280,1.0321089799999998,-1.4866111199999998,-0.23218428200000002,4.600273189999999,2.0227275600000003,-0.6170960560000001
387,1715673379290,1.02589526,-1.48058633,-0.142014391,3.3413106200000002,1.8729128800000001,-0.045234574
388,1715673379300,1.0427438,-1.4642318,-0.10299381999999999,2.5277603,1.894904,0.21792617
389,1715673379310,1.0179863,-1.3942887,-0.1589727,1.4482088,1.8797851000000003,0.41493022
390,1715673379320,0.88443574,-1.45085909,-0.1987555,0.65745899,1.68076523,0.507063948
391,1715673379330,0.73223785,-1.4938676499999999,-0.271479255,0.4841107,1.4453072,0.62544965
392,1715673379340,0.5987300600000001,-1.50611226,-0.362252838,0.5308419,1.306488,0.6953174
393,1715673379350,0.4904757766666667,-1.4930952666666666,-0.4257565466666667,0.8980737,0.7021896000000001,0.8984300666666667
394,1715673379360,0.408572611,-1.4762812699999999,-0.448489583,1.06192818,0.23597724959999997,1.0157162
395,1715673379370,0.3245799,-1.4788179399999999,-0.45792915,1.01011152,-0.09283624920000001,1.0833848
396,1715673379380,0.28319402222222223,-1.4922144222222222,-0.44978912222222217,0.8233275855555555,-0.38820487333333337,1.1435567111111111
397,1715673379390,0.25105121599999997,-1.55754218,-0.429390918,0.3470020156,-0.6310237799999999,1.316384
398,1715673379400,0.23129399,-1.6213142,-0.41636576999999997,-0.036193766,-0.7643451,1.491122
399,1715673379410,0.2578402444444444,-1.6875172222222221,-0.3550613711111111,-0.56321776,-0.8733846,1.9729420000000002
400,1715673379420,0.351166831,-1.6325891,-0.260131041,-1.015502374,-0.892443555,2.7874392699999997
401,1715673379430,0.454282596,-1.5125883,-0.20937807400000003,-1.2972639000000001,-0.84852238,3.4670574000000003
402,1715673379440,0.632293,-1.2668422,-0.23028783000000003,-1.55065086,-0.78199916,4.07499028
403,1715673379450,0.7549017888888889,-1.0573584555555557,-0.30064762777777776,-1.7807231,-0.8366138833333333,4.3541964222222225
404,1715673379460,0.8527571220000001,-0.89451558,-0.362637019,-1.96115232,-0.96977909,4.41214218
405,1715673379470,0.97231282,-0.74239087,-0.40639566499999996,-2.1252002699999997,-1.19931175,4.34653536
406,1715673379480,1.0205744,-0.6491503422222222,-0.42122375777777776,-2.200268733333333,-1.4790405222222223,4.194251722222222
407,1715673379490,1.03924964,-0.544604951,-0.42279905199999995,-2.08625755,-1.80312154,3.96509578
408,1715673379500,1.04401823,-0.517609473,-0.407292074,-1.9303037,-1.9965062199999999,3.85820949
409,1715673379510,1.06896481,-0.535964176,-0.41065201799999995,-1.6552157699999999,-2.2328652,3.8830718099999997
410,1715673379520,1.1477499666666666,-0.5181603133333332,-0.44018829000000004,-1.3470597,-2.4200952666666664,4.1761802
411,1715673379530,1.2621102,-0.46194157599999996,-0.455050928,-1.17221986,-2.5338689,4.4540323200000005
412,1715673379540,1.5570759333333333,-0.36008197777777773,-0.47680288000000004,-1.0899702333333332,-2.7208616111111112,4.835728
413,1715673379550,1.85242516,-0.345532348,-0.47011278599999995,-1.21137628,-2.8590326,5.034751399999999
414,1715673379560,2.2709374,-0.40393819200000003,-0.42213439399999997,-1.5093105699999998,-2.9501125999999998,5.213933299999999
415,1715673379570,2.76057568,-0.46150251999999997,-0.346703144,-2.1149682,-3.00725892,5.56767008
416,1715673379580,3.3142313555555556,-0.4530210111111111,-0.23797458888888892,-2.6292998,-3.0142805999999998,5.9722938333333335
417,1715673379590,3.75928032,-0.40541389599999994,-0.137825116,-2.9187447399999997,-3.03786348,6.3116737999999994
418,1715673379600,4.3852924,-0.122141274,0.123446222,-3.1666643999999997,-3.09690364,6.8028093
419,1715673379610,4.9350033,0.26271858444444446,0.47714841111111117,-3.221652488888889,-3.097375211111111,7.179686
420,1715673379620,5.42295029,0.8196698000000001,0.98446599,-2.95302942,-2.76088179,7.1049892
421,1715673379630,5.505522300000001,1.16347039,1.28398953,-2.65857716,-2.2524434799999997,6.5962148
422,1715673379640,5.2209449999999995,1.29708785,1.31589995,-2.11533472,-1.48794552,5.66837144
423,1715673379650,4.891125555555556,1.2734008222222222,1.1405000666666667,-1.2063231444444442,-1.1013221333333334,5.015644822222222
424,1715673379660,4.5877310399999995,1.3370658,1.0106686599999999,0.029245180000000037,-1.03052965,4.73726
425,1715673379670,4.2313442,1.51847884,0.90438201,1.32401994,-1.02393228,4.670859
426,1715673379680,3.9129963499999993,1.7204052399999998,0.8257554599999999,2.31188064,-0.889603044,4.5928362
427,1715673379690,3.5211201333333335,1.9504796666666668,0.7458158666666667,2.599061855555556,-0.44437053888888894,4.224252022222222
428,1715673379700,3.0870473499999997,2.139286425,0.648864075,2.278088325,-0.0350102125,3.84297235
429,1715673379710,2.7526673555555554,2.200372355555556,0.53115564,1.757883577777778,0.29966335,3.4698842
430,1715673379720,2.1697180499999997,2.13139884,0.28538860499999996,0.731495877,0.777280222,2.69860406
431,1715673379730,1.6441447400000002,1.97296878,0.021330509999999997,0.22524129100000004,0.8977122979999999,2.1194275300000003
432,1715673379740,1.1736660650000001,1.8509921500000002,-0.185376665,0.093844175,0.647975335,1.62299255
433,1715673379750,0.8046472166666666,1.7797447666666666,-0.22991856333333333,0.18225843111111115,0.2694933904444444,1.2956620777777779
434,1715673379760,0.393925425,1.6922024,-0.1920234,0.24373523500000002,-0.1557706345,0.8964447
435,1715673379770,0.065827013,1.6203384499999998,-0.104548784,0.022327129999999994,-0.41376956600000003,0.5244583599999999
436,1715673379780,-0.20367042240000002,1.60450822,-0.0063540296000000026,-0.34565811,-0.47320675800000006,0.32458326
437,1715673379790,-0.3970489177777778,1.6315585777777777,0.06349286488888889,-0.7381458333333334,-0.467804,0.19934569444444444
438,1715673379800,-0.58690009,1.70206877,0.14421573000000001,-1.15421461,-0.42497894,0.103663829
439,1715673379810,-0.7154686,1.7618711,0.2116587,-1.6832391999999998,-0.29000828,-0.04642576
440,1715673379820,-0.84242112,1.90675149,0.22496434299999998,-1.96675705,-0.18208364999999999,-0.592768355
441,1715673379830,-0.8751662666666666,1.9510825666666665,0.23987849444444442,-1.8587610777777779,-0.21185145111111112,-1.0640424022222221
442,1715673379840,-0.8480373,1.9546871,0.27184513,-1.52016865,-0.322567383,-1.56926698
443,1715673379850,-0.61938984,1.9059282,0.42175630799999997,-0.9072875999999999,-0.43692135600000004,-2.23830186
444,1715673379860,-0.4178699177777778,1.8728802555555555,0.5413866111111111,-0.4501058533333333,-0.4104335766666667,-2.638581477777778
445,1715673379870,-0.1737540388,1.84276606,0.6447449519999999,-0.041263942,-0.22889121440000001,-2.98230516
446,1715673379880,0.0439964711,1.80326995,0.6688743930000001,0.262763693,0.08851437279999999,-3.30287208
447,1715673379890,0.23880661600000003,1.7429553800000002,0.591875986,0.477299568,0.45934011999999996,-3.6419786000000003
448,1715673379900,0.38715672,1.6787565,0.46606377,0.590554,0.6974554,-3.8930442000000003
449,1715673379910,0.5998521,1.6298512000000003,0.2932488,0.72189003,0.8443684599999999,-4.2346706
450,1715673379920,0.853214475,1.62344841,0.214122245,0.8064184830000001,0.793788856,-4.68974972
451,1715673379930,1.14883538,1.60271546,0.182364302,0.75692308,0.73117517,-5.34195536
452,1715673379940,1.3478022333333335,1.5293982666666668,0.1948284366666667,0.6953173333333333,0.7327837855555556,-5.597086811111111
453,1715673379950,1.4887455,1.4486212,0.20446314999999998,0.547488,0.79549927,-6.0225205
454,1715673379960,1.68835466,1.32520538,0.29957236,0.373880074,0.990869257,-6.3286405299999995
455,1715673379970,1.8297165199999998,1.27103758,0.381632044,0.27485882100000003,1.19844125,-6.434717189999999
456,1715673379980,2.03780185,1.27394625,0.50896261,0.1322523236,1.56463968,-6.5108766000000005
457,1715673379990,2.210820033333333,1.3707710666666668,0.5637930533333333,-0.04810563733333333,1.9489147333333332,-6.613634133333333
458,1715673380000,2.40634766,1.55613964,0.602754702,-0.20357083999999998,2.229811,-6.7179904
459,1715673380010,2.5799675,1.724247,0.63143927,-0.44028112,2.5544858,-6.912245799999999
460,1715673380020,2.80397461,1.96744396,0.681051947,-0.8486445380000001,2.87195234,-7.104042080000001
461,1715673380030,3.153449577777778,2.2854178666666667,0.8688515422222223,-1.4433217888888887,3.2666526888888887,-7.038677666666667
462,1715673380040,3.47670296,2.54806322,1.16249468,-1.6121650199999997,3.5626883,-6.83219164
463,1715673380050,3.7175948599999997,2.63636717,1.40208785,-1.47218526,3.83925766,-6.60565256
464,1715673380060,4.01329504,2.5836140999999997,1.54294364,-1.0195340700000002,4.07689942,-6.34276682
465,1715673380070,4.187154799999999,2.4526227666666665,1.4806012444444445,-0.3631594,4.310265,-6.0979624
466,1715673380080,4.11785034,2.1046106,1.120638494,0.9308059200000001,4.06301734,-6.0700765
467,1715673380090,3.95156609,1.7449189600000001,0.942731779,2.38174831,3.21183784,-5.89501772
468,1715673380100,3.74732235,1.43490691,1.02966363,3.9664396699999998,2.09749733,-5.43602883
469,1715673380110,3.4987774099999998,1.3451394799999998,1.13042564,4.399803,1.86129115,-4.88896806
470,1715673380120,2.868310977777778,0.9816088111111111,0.7984883244444444,3.517345088888889,2.2464569222222224,-4.433083
471,1715673380130,2.3691931,0.49755952500000006,0.509877315,2.5610524499999996,2.5767823499999998,-4.310112500000001
472,1715673380140,2.0384319333333334,0.14348397333333335,0.3480894266666667,1.9205602333333331,2.7612127666666666,-4.099720266666667
473,1715673380150,1.6490352300000002,-0.255392954,0.1807666442,1.31427654,2.8414397,-3.5864510000000003
474,1715673380160,1.33799274,-0.6080232760000001,0.073309158,1.1342546,2.7956553800000004,-2.95530498
475,1715673380170,1.137542,-0.8446956200000001,-0.0003292875999999986,1.2539536500000001,2.7454574000000003,-2.2357668
476,1715673380180,1.0401962333333334,-0.9643245555555556,-0.06198193555555556,1.3873258666666668,2.715855877777778,-1.8896777444444446
477,1715673380190,0.9684406400000001,-1.0904599750000001,-0.17976659,1.604418425,2.6122508124999997,-1.5264568125
478,1715673380200,0.9405182480000001,-1.19928948,-0.25252694,1.9610607000000002,2.34987648,-0.98257675
479,1715673380210,0.9360302,-1.2859286,-0.3035543,2.0754147,2.2058344,-0.75961095
480,1715673380220,0.8198465690000001,-1.3856845400000002,-0.37191803,1.9738582999999998,1.7415005000000001,-0.60613105
481,1715673380230,0.7716506555555556,-1.4367437444444444,-0.3706178177777778,1.7831156888888888,1.5545163,-0.6289536888888888
482,1715673380240,0.7079315639999999,-1.59186112,-0.335251262,1.2289082,1.35019544,-0.63606348
483,1715673380250,0.637195716,-1.7981292199999999,-0.32383596000000003,0.636429944,1.2203102300000002,-0.5585904810000001
484,1715673380260,0.5273478,-1.9825546500000002,-0.35282546,0.021074843999999992,1.1294898,-0.304485778
485,1715673380270,0.4257836288888889,-2.059252888888889,-0.4191775711111111,-0.5311303666666667,0.9708345111111112,0.12639820222222223
486,1715673380280,0.370125248,-2.08854251,-0.471167728,-0.81461936,0.783679,0.4954422640000001
487,1715673380290,0.348191056,-2.1105500200000002,-0.509749252,-1.0527652,0.42209259699999996,1.09790812
488,1715673380300,0.379680694,-2.05485156,-0.5003585,-1.2133616799999998,0.056107974000000005,1.69472346
489,1715673380310,0.4468418011111111,-1.9161279555555555,-0.43169863555555554,-1.335385388888889,-0.26696508,2.192242666666667
490,1715673380320,0.583466976,-1.61685041,-0.271357304,-1.5012777,-0.62691575,2.7499474
491,1715673380330,0.654050362,-1.41976574,-0.19436499999999998,-1.6341867300000001,-0.87628616,3.0735379899999997
492,1715673380340,0.6843082,-1.3292849,-0.1627534,-1.698969,-1.0088439,3.2259793
493,1715673380350,0.73577464,-1.18210554,-0.14499626399999999,-1.71772252,-1.17915314,3.4491894600000004
494,1715673380360,0.7976685299999999,-1.0142665000000002,-0.13403221,-1.6634471599999998,-1.38318218,3.7340360000000006
495,1715673380370,0.83431702,-0.93159096,-0.12594638,-1.6167770999999997,-1.4563027800000001,3.8547430000000005
496,1715673380380,0.8988126333333333,-0.7978920433333333,-0.12409261,-1.5159639333333332,-1.5404494,4.092084600000001
497,1715673380390,0.9779717,-0.613621138,-0.161387466,-1.4109459999999998,-1.61482225,4.34531365
498,1715673380400,1.02474875,-0.478119346,-0.183486312,-1.38716807,-1.65497141,4.43779831
499,1715673380410,1.04592686,-0.38115638,-0.20027387600000002,-1.40618128,-1.67661136,4.4745265000000005
500,1715673380420,1.12391312,-0.1663511795,-0.309158282,-1.4681382900000002,-1.7398510900000002,4.4524134
501,1715673380430,1.2882323777777778,-0.07329018500000001,-0.4164673844444444,-1.5082941888888888,-1.995136777777778,4.460928444444445
502,1715673380440,1.4752690000000002,-0.042471989,-0.43523881,-1.4927256,-2.26233945,4.57889325
503,1715673380450,1.7473241555555556,-0.0008672583333333343,-0.35899114666666665,-1.4621568333333332,-2.5552663444444446,4.822560544444444
504,1715673380460,2.1693949,0.101103465,-0.1505270815,-1.4690545,-2.84724295,5.2502341
505,1715673380470,2.55284402,0.245672862,0.0516371602,-1.5273158199999999,-2.9517314,5.65001476
506,1715673380480,3.0635120333333337,0.5072450166666667,0.2529212666666667,-1.5990925,-2.8889853333333333,6.110688666666666
507,1715673380490,3.69113004,0.8924910650000001,0.45233739,-1.6268258199999999,-2.723955,6.6090732
508,1715673380500,4.07526218,1.23369386,0.546275814,-1.5707178599999998,-2.61679392,6.8116056
509,1715673380510,4.5446553,1.6816225,0.66198987,-1.4495323,-2.4982690888888888,6.898636777777778
510,1715673380520,5.1245244,2.2854869100000004,0.9392987100000001,-1.46067042,-2.3571611599999995,6.5894952
511,1715673380530,5.2097183199999995,2.5606981600000003,1.16481184,-1.5648229800000002,-2.1390364,6.18760668
512,1715673380540,4.957714755555555,2.6557714666666663,1.3168044444444444,-1.6642174777777778,-1.4983336888888887,5.437124777777778
513,1715673380550,4.5649308500000005,2.52755595,1.2549818,-1.5519031,-0.981278685,4.918610500000001
514,1715673380560,4.10527,2.3696198500000003,1.1148821500000001,-1.1487321,-0.689514135,4.593554
515,1715673380570,3.5991328444444446,2.2236594333333333,0.9770827666666667,-0.5077478177777778,-0.5625729777777777,4.3334782
516,1715673380580,3.19593052,2.12281884,0.8853930999999999,0.054580808,-0.515112166,4.123676359999999
517,1715673380590,2.61862856,1.9834937199999998,0.76975222,0.698432772,-0.38285979800000003,3.7574626
518,1715673380600,2.292525433333333,1.879506622222222,0.6903180777777778,0.8849910122222222,-0.2454999531111111,3.5598849999999995
519,1715673380610,1.91216024,1.73528418,0.57098452,0.85973174,-0.044654250199999995,3.38065042
520,1715673380620,1.5980200400000002,1.6568162000000002,0.45395332,0.554726726,0.132802104,3.26925914
521,1715673380630,1.2345842120000001,1.64782182,0.327348378,-0.013515395,0.3665955,2.89924275
522,1715673380640,0.807534932,1.63068056,0.170619706,-0.28283061000000004,0.49273916500000003,2.4730879000000003
523,1715673380650,0.3792700966666666,1.5805393666666667,0.041852036666666675,-0.32518393333333334,0.49062658666666675,2.1198550666666667
524,1715673380660,-0.114335934,1.52525974,-0.070528508,-0.24349088800000002,0.33554828400000003,1.64075348
525,1715673380670,-0.47947916699999993,1.4951665,-0.094932371,-0.132847924,0.12544117770000002,1.3033268599999999
526,1715673380680,-0.76769111,1.4744884800000002,-0.053606786,-0.08463538000000001,-0.0607352777,1.006629568
527,1715673380690,-0.9272492499999999,1.455024,-0.0043905,-0.11606440000000001,-0.15042557,0.81046546
528,1715673380700,-1.06479384,1.46354892,0.0129275846,-0.455858189,-0.12860239899999998,0.548389012
529,1715673380710,-1.1168944,1.478379,-0.023659917,-0.65148777,-0.10903945,0.42363504
530,1715673380720,-1.159031,1.5595625666666666,-0.09278997,-1.0332276333333335,-0.31734448666666665,0.08628471666666666
531,1715673380730,-1.0920454000000002,1.7067154000000002,-0.020153615000000003,-1.1760683,-0.49480084,-0.09056077
532,1715673380740,-0.94795772,1.83531442,0.09261516,-1.18058872,-0.79302526,-0.60585616
533,1715673380750,-0.699321268,1.97821304,0.218488362,-1.04864182,-0.8724683040000001,-1.02909414
534,1715673380760,-0.43793208,2.1189448,0.29936707333333334,-0.8575529833333334,-0.8311330733333333,-1.4150693333333333
535,1715673380770,-0.19596265899999998,2.23609376,0.35344745499999997,-0.598434137,-0.72225652,-1.9301356900000002
536,1715673380780,0.044740409999999994,2.25686327,0.35924047400000003,-0.37693439,-0.5522527349999999,-2.52265971
537,1715673380790,0.2941634933333333,2.228707333333334,0.3258726866666667,-0.2490294,-0.32482759333333333,-3.2006284333333332
538,1715673380800,0.42750055600000003,2.20227488,0.278040627,-0.277485534,-0.206273918,-3.60196695
539,1715673380810,0.554349424,2.15384511,0.23700162900000002,-0.3191771,-0.15485434,-3.835012
540,1715673380820,0.7884606111111112,1.9831779,0.22373933555555559,-0.5251065222222223,0.030085110816666667,-4.7612192222222225
541,1715673380830,0.94579904,1.8771826600000001,0.2584419,-0.63010748,0.162337432,-5.1690196
542,1715673380840,1.1127478,1.79342174,0.327323975,-0.73537484,0.337548874,-5.427904020000001
543,1715673380850,1.39120307,1.7993061799999999,0.440611099,-0.7849923999999999,0.647700436,-5.62771828
544,1715673380860,1.7689243333333335,1.9744240333333336,0.5626141766666666,-0.7826201666666667,0.9977975,-5.7303234
545,1715673380870,2.12873386,2.2294592,0.6435009839999999,-0.7396966859999999,1.36329854,-5.85129494
546,1715673380880,2.7307689799999997,2.6671677600000003,0.76472754,-0.537805758,1.8202256599999997,-6.21451522
547,1715673380890,3.23018852,2.97550902,0.8528302350000001,-0.339152385,2.1294761299999996,-6.66757882
548,1715673380900,3.7031431,3.2002478,0.910541,-0.1965459,2.3593142,-7.164991400000001
549,1715673380910,3.79334334,3.168563,0.91005312,-0.18292360400000002,2.4335954,-7.37891644
550,1715673380920,4.23270451,2.6548074,0.9681358190000001,-0.1531439164,2.9636126799999998,-8.4785042
551,1715673380930,4.35560801,2.35622897,1.06664767,0.24449880699999998,3.1793245000000003,-8.262105
552,1715673380940,4.360681444444444,2.043960711111111,1.137776411111111,0.8730791333333333,3.3083443111111115,-7.7868181777777785
553,1715673380950,4.2850182000000006,1.8553887599999999,1.1007837,1.3006848,3.3735032000000005,-7.4717984
554,1715673380960,4.240125,1.7124780000000002,1.0543908,1.8680259,3.3901494,-6.9947124
555,1715673380970,4.022531366666667,1.4258352,0.8167753333333333,2.509536188888889,3.1828963999999997,-6.288246866666666
556,1715673380980,3.62898012,1.0901550199999999,0.536531311,3.0140090899999996,2.86356824,-5.6797336000000005
557,1715673380990,3.3005584,0.9097726039999999,0.44544060300000005,3.12938631,2.55622668,-5.371674100000001
558,1715673381000,2.80978588,0.6900768239999999,0.36961912799999996,2.8133704,2.28912576,-5.0094002
559,1715673381010,2.5634422,0.5742408,0.34001982,2.5712845,2.2030854,-4.869665
560,1715673381020,1.93107607,0.09138948399999999,0.28579717,1.76573651,2.15568231,-4.50061093
561,1715673381030,1.52377179,-0.27544290400000004,0.25257570500000004,1.33432828,2.1531777300000003,-4.04128624
562,1715673381040,1.2074912359999999,-0.532390836,0.23070247900000002,1.21742392,2.12797954,-3.39540272
563,1715673381050,0.8597656066666667,-0.8847264066666667,0.16724553333333333,1.374837111111111,2.0722415222222224,-2.6017937777777775
564,1715673381060,0.74382388,-1.0230230900000001,0.09539580947000001,1.55648462,1.9902600200000002,-1.9740721999999997
565,1715673381070,0.60576703,-1.16576915,-0.02664789655,1.68545355,1.8130480500000001,-1.22409762
566,1715673381080,0.5883202488888889,-1.2003206555555554,-0.03401282522222222,1.6004160333333333,1.6712764,-0.7294749033333333
567,1715673381090,0.59084546,-1.20597277,-0.0339166142,1.3248292400000001,1.5855618100000002,-0.2416888379
568,1715673381100,0.586796423,-1.2140219900000002,-0.06836374749999999,1.05581944,1.56645706,0.058016926299999994
569,1715673381110,0.57302123,-1.2303767,-0.11177481999999998,0.8216137,1.5118915,0.23655757
570,1715673381120,0.5628851366666666,-1.2568619444444444,-0.13582093222222222,0.5061018288888889,1.353032611111111,0.41927416333333334
571,1715673381130,0.54569038,-1.2957342200000002,-0.123854786,0.1719127583,1.1737623300000002,0.5704870599999999
572,1715673381140,0.4912955977777778,-1.3599913222222222,-0.12840179999999998,-0.14618345277777778,1.0575774222222223,0.6623815344444445
573,1715673381150,0.43545833700000003,-1.42783944,-0.166497516,-0.387838348,0.96324284,0.762695804
574,1715673381160,0.360429566,-1.51414929,-0.25413678100000003,-0.575862664,0.796323964,0.95911952
575,1715673381170,0.298432048,-1.5841533399999999,-0.3588868,-0.66654562,0.5394551040000001,1.2310155999999999
576,1715673381180,0.28591099444444446,-1.612743088888889,-0.39170986444444444,-0.68734218,0.28356024977777783,1.5086844222222222
577,1715673381190,0.30972539,-1.61067936,-0.369033732,-0.7082982280000001,-0.0440433834,1.9237521700000002
578,1715673381200,0.35489875,-1.5678964,-0.31361586,-0.77289724,-0.29749137,2.417041
579,1715673381210,0.412524066,-1.50309992,-0.283565308,-0.8557458519999999,-0.40182716100000004,2.71337179
580,1715673381220,0.5455805955555556,-1.2960919111111113,-0.2298033733333333,-1.140400511111111,-0.54669045,3.224282566666667
581,1715673381230,0.6749479,-1.06375105,-0.21611017999999999,-1.60810275,-0.6476698799999999,3.58425185
582,1715673381240,0.7443422,-0.9655136350000001,-0.22001284499999998,-1.9423988,-0.73265651,3.7310122
583,1715673381250,0.7981868,-0.8790451850000001,-0.22178123,-2.19323525,-0.8440630800000001,3.87219845
584,1715673381260,0.8400083666666666,-0.7802284333333334,-0.23277779999999998,-2.2796810444444446,-0.9546636222222222,3.9681975777777776
585,1715673381270,0.8827588399999999,-0.6588677000000001,-0.25535636,-2.22336608,-1.1494345799999999,4.06637706
586,1715673381280,0.92185868,-0.565447644,-0.286699656,-1.9960632400000002,-1.35981658,4.10254038
587,1715673381290,0.95236044,-0.49668753600000004,-0.325592168,-1.6996562000000002,-1.5843554000000002,4.11234475
588,1715673381300,0.9759715566666666,-0.43238295,-0.37150542,-1.4595606666666667,-1.7477873,4.119624333333333
589,1715673381310,0.993509203,-0.3855042,-0.39746222099999995,-1.27203525,-1.8608482900000003,4.14119314
590,1715673381320,1.1297000000000001,-0.22361060500000002,-0.390022775,-1.06192812,-2.03847268,4.31909218
591,1715673381330,1.2692135777777778,-0.12256136088888889,-0.36262956888888886,-1.0497719222222224,-2.124470533333333,4.530719777777779
592,1715673381340,1.56757928,0.014476454,-0.34412983599999997,-1.20438194,-2.12996492,4.74749204
593,1715673381350,1.9801764800000001,0.1483135364,-0.345776284,-1.42675215,-2.1651355,4.95259
594,1715673381360,2.4112856666666667,0.30780251888888893,-0.28889220000000004,-1.6198619,-2.2522093,5.1903184
595,1715673381370,3.00538885,0.605949965,-0.163363185,-1.870393,-2.37550225,5.6700512000000005
596,1715673381380,3.37694107,0.88042938,-0.0711321912,-1.95550183,-2.40932885,5.93173045
597,1715673381390,3.7946118699999998,1.24982295,0.0342093132,-2.00739488,-2.4550368899999997,6.06758696
598,1715673381400,4.0346462,1.4392507333333333,0.10585306,-2.0097466,-2.500577,5.9592957
599,1715673381410,4.27295046,1.59450772,0.313823197,-1.9969183999999998,-2.565634,5.6757016
600,1715673381420,4.332326,1.6183261999999998,0.48960173000000007,-1.9985983,-2.601675,5.30903
601,1715673381430,4.346168333333334,1.6627528666666667,0.7004744522222223,-1.9393274666666669,-2.3842070333333334,5.1984633111111105
602,1715673381440,4.2659442,1.84852254,1.0342920599999998,-1.7715092499999998,-1.9249891600000002,5.0702121899999995
603,1715673381450,4.07965875,1.9338811799999998,1.0784898,-1.4092966299999998,-1.32774616,4.79129088
604,1715673381460,3.72724178,1.8967204599999998,0.96176346,-0.850690972,-0.8535619999999999,4.382102999999999
605,1715673381470,3.3731440666666668,1.8029506666666668,0.8207389866666667,-0.09213885333333334,-0.6807584166666667,4.041433766666667
606,1715673381480,3.05581248,1.69573304,0.730969516,0.72222596,-0.65878761,3.8057516399999995
607,1715673381490,2.7951632,1.6089964,0.66589254,1.1688906,-0.63239825,3.723529
608,1715673381500,2.5424654,1.6095451,0.6015595,1.45248486,-0.525970246,3.6547150000000004
609,1715673381510,2.3028173,1.6476572,0.547349,1.4401149,-0.3941608,3.5700493
610,1715673381520,1.9450890700000003,1.6788479900000002,0.430616586,0.8537300140000001,-0.0563523185,3.28827241
611,1715673381530,1.5564797555555556,1.666486077777778,0.2559363477777778,-0.012980896666666662,0.28759875,2.8199745666666667
612,1715673381540,1.30916172,1.62332638,0.1488379592,-0.299232352,0.351827844,2.59440572
613,1715673381550,0.9184072000000001,1.5289002,0.010274989500000001,-0.502818465,0.25266915,2.1718549499999997
614,1715673381560,0.5856032755555556,1.4430449444444444,-0.042848027999999996,-0.4955135333333333,0.005650505555555562,1.8278955111111113
615,1715673381570,0.24946578000000003,1.3688909,-0.0159155625,-0.483255488,-0.20754147400000003,1.5902960800000001
616,1715673381580,0.05469831333333333,1.3408912888888889,0.03412123066666667,-0.5460116888888888,-0.3579500788888889,1.3794186000000002
617,1715673381590,-0.11817763,1.3390415,0.09933506,-0.6995934,-0.40973786,1.1910346
618,1715673381600,-0.394681551,1.3928922099999999,0.175949291,-1.09402912,-0.303050248,0.866573436
619,1715673381610,-0.5153959,1.4448404,0.18995011,-1.2421945,-0.26328292,0.74067414
620,1715673381620,-0.6597133,1.5427932666666666,0.1957837766666667,-1.5804950444444446,-0.18225843777777775,0.21227567333333333
621,1715673381630,-0.696650394,1.58590956,0.17665665000000003,-1.6706859399999998,-0.183748272,-0.103602748
622,1715673381640,-0.700376215,1.6165882,0.2163236,-1.6191289000000002,-0.272384812,-0.631329232
623,1715673381650,-0.6831739800000001,1.6077279199999999,0.30226153799999994,-1.4106406200000001,-0.34700199400000004,-1.139172078
624,1715673381660,-0.6173734111111111,1.570870811111111,0.42127795777777777,-1.0683524055555556,-0.3514680933333334,-1.6037248888888889
625,1715673381670,-0.49286412999999996,1.5697867,0.5347568149999999,-0.8254316449999999,-0.25289821,-1.84763825
626,1715673381680,-0.344495716,1.6268510200000001,0.5986813,-0.6873150239999999,-0.05751296640000001,-2.05021642
627,1715673381690,-0.1714551295,1.70509348,0.6076452370000001,-0.65153358,0.21284071980000002,-2.31378949
628,1715673381700,-0.040795065,1.7594321,0.58655864,-0.6772968,0.4382958,-2.5760188
629,1715673381710,0.224244794,1.81088612,0.5645146299999999,-0.7145596000000001,0.673097134,-2.9872379899999997
630,1715673381720,0.45167267,1.8316313,0.5241769,-0.68569624,0.8689558,-3.4170275
631,1715673381730,0.73542096,1.82261854,0.435635184,-0.447550428,0.9737497279999999,-4.0512584
632,1715673381740,0.93928041,1.78888481,0.429689697,-0.18545868199999999,0.953682826,-4.546944949999999
633,1715673381750,1.18720345,1.6336623500000003,0.48935781,0.20631973499999998,1.0532080499999998,-5.15677175
634,1715673381760,1.3404034333333332,1.5628757333333334,0.5121030666666666,0.37832920999999997,1.1873183999999999,-5.370116533333333
635,1715673381770,1.55060274,1.55676771,0.5513309900000001,0.5076290059999999,1.39539948,-5.48587524
636,1715673381780,1.8290580199999997,1.6831225799999998,0.6093892200000001,0.540951696,1.6634777,-5.56715102
637,1715673381790,2.1097572799999997,1.87509714,0.62263389,0.50109276,2.0133202,-5.8094813599999995
638,1715673381800,2.41647028,2.1067448,0.595827434,0.41175373000000004,2.25620024,-6.12673412
639,1715673381810,2.5250254,2.1957989,0.59198576,0.28420505,2.4008532,-6.495941
640,1715673381820,2.9311466,2.4274588,0.7136392,-0.056046885000000005,2.641534,-7.1280336
641,1715673381830,3.3688426399999996,2.52619018,0.9796486,-0.7159646235,3.33453013,-7.544537099999999
642,1715673381840,3.502643,2.5537467,1.0529882,-0.9105625444444444,3.6497500888888887,-7.624158355555555
643,1715673381850,3.73942558,2.4566556200000003,1.05853742,-0.445626184,4.0506472,-7.624545040000001
644,1715673381860,3.8194668399999996,2.19482318,0.98641124,0.767002414,3.9666229200000003,-7.45487736
645,1715673381870,3.80240488,1.8972692600000003,0.846537162,2.41722432,3.59097128,-6.989001
646,1715673381880,3.6810075333333336,1.7312596333333332,0.6516843533333333,3.751221666666667,3.0567188,-6.426200533333334
647,1715673381890,3.5437555000000005,1.6557551,0.48730892,4.44169288,2.5166122,-5.98880062
648,1715673381900,3.38275821,1.5330772,0.420707481,4.5711045,1.84145334,-5.57350414
649,1715673381910,3.19543036,1.3492616800000001,0.451038506,4.03482584,1.61717406,-5.3717657
650,1715673381920,2.80433436,0.942457424,0.53584835,2.67468875,1.75238908,-4.9562704
651,1715673381930,2.4953218,0.66004528,0.5408716866666666,1.4293058555555556,2.1088935444444443,-4.418167566666667
652,1715673381940,2.0072512,0.2601981212,0.47958896400000006,0.3025921092,2.5019818799999998,-3.6926193599999997
653,1715673381950,1.6422096000000002,-0.05982056466666666,0.41736175666666664,0.02983058633333333,2.6304875333333335,-3.2846224
654,1715673381960,1.34879815,-0.39877936199999997,0.339007589,0.1459662541,2.65017778,-2.78346852
655,1715673381970,1.12768164,-0.71601737,0.237349211,0.7682241249999999,2.49538458,-2.16287524
656,1715673381980,0.9588363799999999,-0.97648992,0.102414517,1.7437148,2.191021,-1.41598565
657,1715673381990,0.8822262688888889,-1.0802528,0.02054998088888889,2.2580124666666666,1.9536489666666665,-0.9748391333333335
658,1715673382000,0.80540064,-1.20254584,-0.080870568,2.59519996,1.67991004,-0.55405476
659,1715673382010,0.781893166,-1.25478673,-0.099444821,2.56609227,1.4686575,-0.250210397
660,1715673382020,0.768105788,-1.3131375200000002,-0.095810466,2.0526753500000003,1.31279522,0.052335876999999996
661,1715673382030,0.7309030777777777,-1.4046144666666667,-0.13770451444444443,1.1826860833333332,1.3015502,0.14390966666666666
662,1715673382040,0.6876620955555556,-1.493522,-0.18686727111111112,0.64032255,1.3031112777777778,0.18582181666666664
663,1715673382050,0.57765568,-1.6618957,-0.25050243,-0.34639876875,1.1999111999999998,0.43627231875000005
664,1715673382060,0.516926518,-1.7252957299999998,-0.260216402,-0.748370996,1.06763978,0.74992872
665,1715673382070,0.47368616,-1.7562001000000003,-0.26239336,-0.93126404,0.9650144,0.9967794
666,1715673382080,0.414499792,-1.71799058,-0.31201819999999997,-0.933951868,0.6768081560000001,1.4901752400000001
667,1715673382090,0.39981330666666665,-1.6659915666666667,-0.3509147822222222,-0.8553301222222222,0.3483119633333333,1.9399043888888887
668,1715673382100,0.4065481,-1.6144843999999998,-0.3715461,-0.7686212,0.110872045,2.185065
669,1715673382110,0.42171360699999993,-1.55848113,-0.372460749,-0.697577595,-0.211145576,2.52299559
670,1715673382120,0.467734611,-1.43258362,-0.346703167,-0.7591527749999999,-0.6180276320000001,3.0088167300000004
671,1715673382130,0.5259385555555556,-1.316011788888889,-0.30449610222222223,-0.9057265222222222,-0.8233954444444445,3.3215967777777777
672,1715673382140,0.6221704499999999,-1.1817153,-0.2543441,-1.2176835000000001,-0.9783006999999999,3.69657475
673,1715673382150,0.6958637999999999,-1.07927025,-0.239983505,-1.45912805,-1.0313696,3.9157224999999998
674,1715673382160,0.7577068533333333,-0.9780448199999999,-0.24161979,-1.6267342,-1.0708976666666665,4.0605739
675,1715673382170,0.8133645680000001,-0.870172728,-0.25188056400000003,-1.7678746,-1.1343767200000001,4.196155559999999
676,1715673382180,0.86461141,-0.7744964000000001,-0.268662018,-1.8402315599999999,-1.22301332,4.3103260599999995
677,1715673382190,0.9115775666666666,-0.6987805833333334,-0.28790299333333336,-1.8395188666666666,-1.3281737666666666,4.414417766666666
678,1715673382200,0.9677454899999999,-0.5882965029999999,-0.328683819,-1.7864143600000002,-1.48638782,4.52895498
679,1715673382210,1.0222669999999998,-0.45455091799999997,-0.389644684,-1.70067934,-1.62917752,4.551068320000001
680,1715673382220,1.09613712,-0.267418054,-0.47085674,-1.4466816200000001,-1.98714464,4.4955405200000005
681,1715673382230,1.1347952000000001,-0.2232447477777778,-0.4872642066666667,-1.197516511111111,-2.307713177777778,4.4481339222222225
682,1715673382240,1.2290107,-0.195462634,-0.472539762,-1.0615463799999998,-2.49982865,4.4494812999999995
683,1715673382250,1.3707100333333333,-0.14279288333333331,-0.4021508411111111,-1.0722042333333333,-2.711563011111111,4.525680166666667
684,1715673382260,1.53783366,-0.12987343099999998,-0.343568828,-1.3321749,-2.7427850400000002,4.601648040000001
685,1715673382270,1.79648288,-0.154716342,-0.270991412,-1.7225177999999999,-2.7348132,4.77070494
686,1715673382280,2.07401729,-0.13720922519999998,-0.188925656,-2.07356682,-2.72241261,5.04438788
687,1715673382290,2.2786086,-0.084578104,-0.1276294,-2.2780693,-2.7119362,5.258939
688,1715673382300,2.6600516300000003,0.028391900399999996,-0.040648711399999995,-2.41759085,-2.70278852,5.607880440000001
689,1715673382310,3.1743317,0.26946694,0.077260606,-2.4686592,-2.765845,6.0568814
690,1715673382320,3.9593895200000007,0.8584403,0.5296284800000001,-2.11118076,-2.86343092,6.3113985
691,1715673382330,4.321071933333333,1.0879699666666667,0.7813464133333334,-1.8571321888888888,-2.766456055555556,6.243008844444445
692,1715673382340,4.60074411,1.29469749,1.001735254,-1.5268577,-2.4707973,6.0778036
693,1715673382350,4.8171407,1.72824105,1.1768674000000001,-1.2102004000000002,-1.6546048499999997,5.7157135
694,1715673382360,4.876138,1.9429182,1.2227542,-1.1467468,-1.3602442,5.564677
695,1715673382370,4.753773555555555,2.124893755555556,1.1621139111111112,-0.9532043333333333,-0.8013533666666667,4.969490733333334
696,1715673382380,4.502396899999999,2.1656629599999997,1.05362246,-0.67628893,-0.5057964239999999,4.4660054
697,1715673382390,4.07999405,2.05949815,0.93523138,-0.07910705300000001,-0.29636128,3.89412846
698,1715673382400,3.6157717999999996,1.93024674,0.79685136,0.646997932,-0.145355386,3.39583046
699,1715673382410,3.304095,1.8595597,0.7072364,1.1397219,-0.07070765,3.1015155
700,1715673382420,2.8598619,1.7572367,0.6003399,1.31963694,0.017256942400000003,2.92050093
701,1715673382430,2.4102322700000003,1.66460319,0.48169272,1.08474393,0.2961169306,2.6681523900000004
702,1715673382440,1.9019768400000001,1.5615544799999999,0.31327438599999996,0.4068973452,0.6471506,2.3476772
703,1715673382450,1.462415888888889,1.4737106555555555,0.1389918533333333,-0.28160888866666667,0.8278751,2.0257139333333334
704,1715673382460,1.1408226200000002,1.4275101399999999,0.0247331508,-0.603779211,0.8323802600000001,1.80304511
705,1715673382470,0.8544401,1.39233732,-0.0564057284,-0.78038032,0.7069543859999999,1.5041335
706,1715673382480,0.516030104,1.34873117,-0.11487865,-0.73149584,0.423405977,1.1400578
707,1715673382490,0.26879618,1.3181257,-0.13293459,-0.6772968,0.29886582,1.0100657
708,1715673382500,-0.1703513938,1.25124374,-0.07332135,-0.54522778,-0.005772676000000003,0.6577185919999999
709,1715673382510,-0.35160586,1.2299498,-0.029635875,-0.5349652,-0.08659015,0.53878313
710,1715673382520,-0.5533791588888888,1.2503168666666666,0.04757052666666667,-0.6581394222222223,-0.09840021166666667,0.3519771655555556
711,1715673382530,-0.7607151,1.27690375,0.134702985,-0.8374962220000001,-0.029825497200000002,0.14217888780000001
712,1715673382540,-0.8366036749999999,1.26318345,0.15988738,-1.0237337700000002,0.094455043,-0.176310987
713,1715673382550,-0.8558304299999999,1.22096146,0.160314224,-1.08054425,0.17837265500000002,-0.46112689500000004
714,1715673382560,-0.8382399666666668,1.2068996666666667,0.14722402999999998,-1.017548788888889,0.19932872333333332,-0.6896159388888888
715,1715673382570,-0.773404882,1.23063281,0.12587320000000002,-0.86165599,0.155694281,-0.8725752
716,1715673382580,-0.668826291111111,1.281958311111111,0.11873321555555555,-0.644904031111111,0.07425406,-1.054862522222222
717,1715673382590,-0.49419957600000003,1.35072512,0.13938617199999997,-0.307234674,-0.039553524,-1.3138489999999998
718,1715673382600,-0.39258388,1.3820928,0.1554359,-0.12507465,-0.09514226,-1.473407
719,1715673382610,-0.19768836299999998,1.48859908,0.19967627599999999,0.06159048899999999,-0.0657749159,-1.7177378
720,1715673382620,-0.013964230000000001,1.5812508,0.15976542,0.24129178,0.014049901,-2.1024454
721,1715673382630,0.21296364199999998,1.6265094999999998,0.11847032399999999,0.288817074,0.08451320799999999,-2.7857592799999997
722,1715673382640,0.461941582,1.61858218,0.0594424928,0.200226354,0.163055204,-3.2715041
723,1715673382650,0.6254971933333333,1.6073634333333335,0.028355313111111113,0.08078693222222223,0.21319196888888892,-3.758840488888889
724,1715673382660,0.761827975,1.5756026125,0.042068003125,0.013897183875,0.24306709875000002,-4.11627725
725,1715673382670,0.9802645200000001,1.4788546,0.095603138,-0.0451276695,0.328645495,-4.5720973
726,1715673382680,1.069038,1.4350166999999998,0.11146381899999999,-0.0704022194,0.40459131800000003,-4.7893668400000005
727,1715673382690,1.2377348666666665,1.3450988333333334,0.13671529000000002,-0.10975212444444445,0.5230024755555556,-5.113756555555556
728,1715673382700,1.33740125,1.32318088,0.174046742,-0.10036515800000001,0.601518992,-5.2846258
729,1715673382710,1.5707015,1.3209307,0.32123825,-0.06994407,0.72601336,-5.452125
730,1715673382720,1.94460133,1.57719559,0.48884558800000005,-0.086132,0.9411906,-5.464648
731,1715673382730,2.26726038,1.8460831299999998,0.58177782,-0.16397150600000002,1.42427815,-5.53037703
732,1715673382740,2.61495736,2.1247579199999995,0.6239754,-0.18411479,1.70590236,-5.687644199999999
733,1715673382750,3.169683711111111,2.4646762666666664,0.7450299222222223,-0.07917492222222222,1.8638856444444443,-6.005619711111112
734,1715673382760,3.52276672,2.5961635999999997,0.88305154,0.0540004856,1.9051054399999998,-6.20052636
735,1715673382770,3.97645178,2.7228539599999997,1.09292966,0.285304612,2.01558036,-6.39734724
736,1715673382780,4.41208675,2.7086641499999997,1.2381515,0.602923996,2.24352472,-6.492458999999999
737,1715673382790,4.669147677777778,2.4905857888888887,1.1846151222222223,1.0761409277777778,2.547325,-6.4658558444444445
738,1715673382800,4.75027712,2.2405821,1.0257793000000002,1.68443036,2.6602264900000003,-6.28519258
739,1715673382810,4.683444,1.9557849,0.7905949,2.4184155,2.5605943,-6.00618
740,1715673382820,4.1990011,1.57549434,0.642147224,3.07304922,2.08140122,-5.62335064
741,1715673382830,3.839587288888889,1.3078541111111113,0.6291762911111111,3.1364196222222223,1.8999266555555556,-5.442351355555555
742,1715673382840,3.2788804,0.8656908,0.6110722500000001,2.653171,1.9732474199999999,-5.1960808400000005
743,1715673382850,2.861054511111111,0.5259656444444444,0.5563874666666666,2.258334866666667,2.1270837,-4.991786888888889
744,1715673382860,2.3533690999999997,0.10951859000000001,0.47963162499999995,1.7955620500000002,2.3573290499999997,-4.622951649999999
745,1715673382870,1.9916649899999999,-0.170107489,0.41791461300000005,1.5801862899999999,2.51665795,-4.27346061
746,1715673382880,1.4960628999999999,-0.523811075,0.3193174,1.5103643500000001,2.6865854,-3.6603045
747,1715673382890,1.2312913666666665,-0.7432344666666667,0.25109187666666666,1.5753196666666665,2.7644197666666668,-3.172223166666667
748,1715673382900,1.001838876,-0.9706054399999999,0.1386300356,1.7321084499999997,2.80127525,-2.45399845
749,1715673382910,0.8356585088888888,-1.0962157111111113,0.019425252888888887,1.8188513222222222,2.737914977777778,-2.0274957333333337
750,1715673382920,0.6586908499999999,-1.1658546600000002,-0.1163055664,1.8990272999999998,2.5589144,-1.5294539
751,1715673382930,0.575368935,-1.16820845,-0.08549279,1.70599388,2.1910056399999998,-0.9181762899999999
752,1715673382940,0.567984328,-1.19150854,-0.050600514,1.5673275,2.0563252,-0.70738196
753,1715673382950,0.5465494777777777,-1.2337576333333333,-0.05486092555555555,1.0522663444444444,1.9005205,-0.5886534999999999
754,1715673382960,0.491016458,-1.31001546,-0.066223376,0.72647152,1.7845511200000002,-0.6097045999999999
755,1715673382970,0.379863626,-1.4745128399999998,-0.0722969,0.39871174,1.66717336,-0.60191606
756,1715673382980,0.298151534,-1.59964208,-0.10317675600000001,0.22250765500000003,1.5831336,-0.5015203500000001
757,1715673382990,0.20297931,-1.7281292666666666,-0.16626987333333332,0.10685050566666668,1.4666365666666668,-0.31938070333333335
758,1715673383000,0.11384810000000001,-1.8256858,-0.25059390000000004,0.0391870042,1.2815037,0.006963861999999996
759,1715673383010,0.08502935,-1.85680348,-0.300395588,0.0056505025,1.1016344009999999,0.36180021399999995
760,1715673383020,0.073443308,-1.8671212400000001,-0.370850908,-0.03283401,0.92011577,0.7292204
761,1715673383030,0.09444995333333334,-1.7982147333333331,-0.40754408,-0.2276660888888889,0.5888571444444444,1.4192944222222221
762,1715673383040,0.138495888,-1.6846045200000002,-0.39860862100000005,-0.539943804,0.32433891,1.97639338
763,1715673383050,0.19277954700000002,-1.53676039,-0.376540264,-0.76402446,0.19982929305000002,2.2317349999999996
764,1715673383060,0.2961235585714285,-1.3076459857142857,-0.3209072428571429,-1.4409656142857143,-0.06363907114285715,2.6767677714285716
765,1715673383070,0.36243579600000003,-1.16481801,-0.268253463,-1.7816342600000001,-0.18237381800000002,2.83563641
766,1715673383080,0.3958158,-1.0936614,-0.23909931,-1.9752327,-0.2576324,2.9190195
767,1715673383090,0.45451432799999997,-0.961580452,-0.22911093400000002,-2.21881524,-0.45775185,3.08688534
768,1715673383100,0.49807783999999994,-0.8842589,-0.24672170999999998,-2.246915,-0.57650405,3.1542027
769,1715673383110,0.524146408,-0.81426701,-0.26938766999999997,-2.2088429300000003,-0.742262369,3.2181144
770,1715673383120,0.54899544,-0.722908,-0.30068827,-2.020895,-1.0151054,3.3082933
771,1715673383130,0.571527236,-0.61931665,-0.348672771,-1.6603622900000001,-1.3364204599999998,3.36670747
772,1715673383140,0.6364531,-0.5274223555555556,-0.42039715555555557,-1.2695646555555555,-1.6814745555555557,3.4137866
773,1715673383150,0.67326488,-0.521469426,-0.436799866,-1.0682507,-1.8909334000000002,3.4477234
774,1715673383160,0.86745918,-0.57982043,-0.44697728999999997,-0.98364575,-2.2332471,3.72444535
775,1715673383170,1.0600496759999998,-0.59676652,-0.39812078,-1.1122786999999998,-2.343554,4.038124720000001
776,1715673383180,1.325931,-0.5606831,-0.3063390133333333,-1.4279484444444446,-2.392877844444444,4.618480722222222
777,1715673383190,1.81383756,-0.44324536400000003,-0.18265699600000002,-1.70306174,-2.33886559,5.1363229100000005
778,1715673383200,2.31942812,-0.308652148,-0.092066351,-2.1043544,-2.18170525,5.98945735
779,1715673383210,2.678815,-0.22806209999999996,-0.036892395,-2.225993,-2.1210768,6.273128
780,1715673383220,3.5678119500000003,0.133129715,0.0718151695,-2.44048289,-1.96093848,6.8422255
781,1715673383230,4.394633166666667,0.8456320222222222,0.17488148888888888,-2.6198483,-1.8680259000000001,7.142542
782,1715673383240,4.8116833,1.40325255,0.326939805,-2.62774368,-1.98259365,6.5616090400000004
783,1715673383250,4.87662612,1.5584932999999999,0.4455137860000001,-2.5595253,-2.0908695600000002,5.8759125999999995
784,1715673383260,4.782372466666667,1.5217960666666666,0.5925345433333333,-2.3470800222222223,-2.1122023666666667,5.282389155555555
785,1715673383270,4.57925488,1.3030760799999999,0.71463925,-2.0555004500000003,-2.0395416,4.96376892
786,1715673383280,4.41611149,1.1930575,0.76673986,-1.5931213100000001,-1.8515783899999998,4.95411741
787,1715673383290,4.18008528,1.2184126000000002,0.7847531200000001,-1.05991228,-1.6385849399999999,5.08123826
788,1715673383300,4.0648713,1.2289132,0.7755331,-0.8240572,-1.5193746,5.1051536
789,1715673383310,3.8772383,1.2150708,0.67516136,-0.5569564,-1.2712106,5.04422
790,1715673383320,3.4100158800000004,1.24084072,0.5340555539999999,-0.34025195,-1.0349585,4.8053713
791,1715673383330,3.137561,1.2417188,0.50356597,-0.19547687,-0.91354895,4.5624
792,1715673383340,2.732686466666667,1.1973530666666667,0.4342394233333333,0.05823582448888888,-0.8231409055555555,4.234636711111111
793,1715673383350,2.4028231,1.1603482,0.383217482,0.25628852,-0.831662472,3.93226164
794,1715673383360,2.1763465,1.1314075,0.3638627,0.35788219555555556,-0.8747420566666667,3.668568211111111
795,1715673383370,1.8087641399999999,1.0964908599999998,0.4709786859999999,0.21878139000000002,-0.78997094,3.43825504
796,1715673383380,1.481306,1.11393695,0.558935035,-0.19402608000000002,-0.49251009999999995,3.2713361
797,1715673383390,1.1762000888888888,1.2016080222222223,0.5665371111111112,-0.7253006888888889,-0.10386406666666669,3.168269511111111
798,1715673383400,0.964422117,1.28151986,0.528982094,-1.10983527,0.17918204499999998,3.09717838
799,1715673383410,0.78474087,1.3378829,0.45533144,-1.4277447,0.3885103,3.0017917
800,1715673383420,0.43978173,1.4419744,0.2619665,-1.8234328,0.57619864,2.6667323
801,1715673383430,-0.08759657,1.61716755,0.04741130456999999,-1.4605024100000001,0.24549147180000003,2.0329290799999997
802,1715673383440,-0.3319401,1.63168055,0.00957372957,-0.793132125,-0.331623467,1.44064935
803,1715673383450,-0.4874471488888889,1.6285774000000002,0.08085160555555555,-0.4368195522222222,-0.7253855200000001,1.0650435755555554
804,1715673383460,-0.6137553199999999,1.64092512,0.21329294000000001,-0.36173913199999996,-0.928347209,0.7869624089999999
805,1715673383470,-0.674533234,1.64941955,0.30715817,-0.47743699800000006,-0.969702777,0.579222416
806,1715673383480,-0.7621786,1.6899767,0.418622,-0.80771655,-0.86758137,0.34804046
807,1715673383490,-0.73309157,1.84572966,0.44261119000000004,-1.3350917949999999,-0.590844125,0.085551673
808,1715673383500,-0.6364396,2.04347295,0.43414118999999995,-1.7363080499999999,-0.36590828000000003,-0.19326248499999998
809,1715673383510,-0.5608660744444445,2.1198120888888887,0.4227414844444445,-1.8106044999999997,-0.3120842777777778,-0.3576615911111111
810,1715673383520,-0.28232134200000003,2.33911208,0.445769932,-1.80052526,-0.180021988,-1.1618046400000002
811,1715673383530,-0.0978288714,2.3638635199999998,0.44840422900000004,-1.5718173500000001,-0.0998001088,-1.80110566
812,1715673383540,0.022501312,2.3197694,0.44148916,-1.171273,-0.05546656480000001,-2.4591297
813,1715673383550,0.24596965333333332,2.1003258333333332,0.3891351722222222,-0.49396941111111103,-0.06225735,-3.249192277777778
814,1715673383560,0.364716415,1.9480404,0.35511219499999996,-0.1570687345,-0.07544186,-3.6959638499999996
815,1715673383570,0.480131671,1.8054650300000001,0.33143398399999996,-0.0054061572,-0.0613614158,-4.06963012
816,1715673383580,0.5897905,1.6907694,0.32306764,-0.007330383,-0.01817324,-4.376544
817,1715673383590,0.753970836,1.56789636,0.340202772,-0.20670152990000004,0.10340421800000002,-4.58668158
818,1715673383600,1.009132082,1.4852086400000002,0.392559502,-0.5554139600000001,0.34290921,-4.85295776
819,1715673383610,1.157052611111111,1.5195195777777777,0.42059365555555556,-0.7732705722222223,0.5947282077777777,-4.997199844444444
820,1715673383620,1.3742266,1.6063132,0.45673394,-0.8707883800000001,0.8852964959999999,-5.2102834
821,1715673383630,1.8042577000000002,1.7799148500000002,0.541379132,-0.8037764620000001,1.1743732100000002,-5.43834992
822,1715673383640,2.2155019666666664,2.0425107444444444,0.6421648533333334,-0.6518950444444445,1.490714811111111,-5.632669666666667
823,1715673383650,2.92178635,2.52078735,0.89233867,-0.509537975,1.8418350499999998,-5.8702625
824,1715673383660,3.4910878,2.7744913500000004,1.03313952,-0.4866305000000001,2.3005948,-6.191654000000001
825,1715673383670,4.0567001,2.8623013333333334,1.1000234666666666,-0.4828889433333333,2.7293968,-6.467179533333333
826,1715673383680,4.89870045,2.8040966000000003,1.07750185,-0.22204951399999998,3.20798944,-6.70085584
827,1715673383690,5.1324944,2.7333302,1.0264013,0.06612616,3.3938146,-6.761514700000001
828,1715673383700,5.460406688888889,2.5313401333333334,0.88544456,1.0716443111111111,3.3885374222222224,-6.745055155555556
829,1715673383710,5.7692267,2.2330814699999997,0.732128068,2.5358391599999996,3.03393856,-6.54693291
830,1715673383720,5.783996,2.1164649,0.6669901,3.232088,2.7896688,-6.4146957
831,1715673383730,5.35085469,1.58160449,0.545544018,3.2784832199999996,2.5915346599999998,-6.65171155
832,1715673383740,4.911438,1.0974826666666668,0.5005102355555555,2.728633177777778,2.686059377777778,-6.771169666666667
833,1715673383750,4.1073616,0.41369488400000004,0.48880901000000004,2.1633792,2.88789608,-6.6649062
834,1715673383760,3.44429866,-0.047612522000000004,0.46771022,1.6701056,3.19780325,-6.21356835
835,1715673383770,2.85166644,-0.404950434,0.379192852,1.66002635,3.3741142499999994,-5.59995435
836,1715673383780,2.3497645555555553,-0.6825330388888889,0.2525689466666667,1.9827667555555557,3.3657827777777776,-4.957171444444445
837,1715673383790,2.01151982,-0.8385062299999999,0.1566981715,2.4137118,3.2410677999999997,-4.3601422
838,1715673383800,1.70081879,-0.95797656,0.056466709500000004,2.78513319,3.0715525599999998,-3.82969741
839,1715673383810,1.2447678,-1.11286982,-0.13688603800000002,3.1178868,2.83930168,-3.2266513600000004
840,1715673383820,1.0630498,-1.1794591,-0.23855051,3.28111,2.6218336,-2.762638
841,1715673383830,0.769392468,-1.2130951099999998,-0.331738858,3.21696898,2.1619742200000003,-1.9102825500000002
842,1715673383840,0.69688214,-1.1053084199999998,-0.27644295199999996,2.5915958,1.8348101499999998,-1.1706468700000001
843,1715673383850,0.72952425,-1.0215535299999998,-0.188212195,1.9105574,1.7664696,-0.8133670949999999
844,1715673383860,0.7978514,-0.97694723,-0.098420375,1.0759628,1.84939455,-0.5972734949999999
845,1715673383870,0.8366341333333334,-0.9897934999999999,-0.08070931333333334,0.43244169200000004,2.005776,-0.5705990266666667
846,1715673383880,0.8089801,-1.0568604499999998,-0.1644608125,-0.184939447,2.1839195499999997,-0.73181655
847,1715673383890,0.7450638311111111,-1.1407102111111111,-0.2679898766666666,-0.36517862777777776,2.1591540777777776,-0.8842104555555556
848,1715673383900,0.64162284,-1.2695253,-0.409658,-0.38881573,1.9738584,-1.0621419
849,1715673383910,0.526481985,-1.42491239,-0.51185915,-0.2497522543,1.54394664,-1.17748852
850,1715673383920,0.37654635,-1.6203995,-0.5815583,-0.0216704477,0.958936249,-1.1786492499999999
851,1715673383930,0.21218039666666666,-1.880787322222222,-0.5845056333333334,0.2684582977777778,0.10656205222222222,-0.8568912355555556
852,1715673383940,0.156838406,-1.9794569800000001,-0.523030508,0.2618168512,-0.41789290999999995,-0.36309829
853,1715673383950,0.14444745,-1.9764810999999998,-0.361655232,-0.1011592864,-0.765230898,0.36260960999999997
854,1715673383960,0.194206452,-1.9122578399999999,-0.21352465399999998,-0.61825672,-0.82118614,0.9293703839999999
855,1715673383970,0.261783561,-1.83006402,-0.10524394819999998,-1.24097275,-0.7573659850000001,1.4550963
856,1715673383980,0.3264621366666667,-1.6867041,-0.03799002366666667,-2.0000575555555553,-0.5949318611111111,1.9855835555555557
857,1715673383990,0.375058466,-1.51605186,-0.03852663939999999,-2.42263029,-0.5174334110000001,2.28127624
858,1715673384000,0.39734024,-1.4303274,-0.048112564,-2.6569583,-0.50823987,2.4769058
859,1715673384010,0.451776352,-1.31901604,-0.0950177354,-2.61952757,-0.6787629030000001,2.74295288
860,1715673384020,0.5015109640000001,-1.20980238,-0.16432056300000003,-2.4772112,-0.829555,2.883895
861,1715673384030,0.5433040666666666,-1.0690663999999999,-0.23830658333333332,-1.8126408333333335,-1.3117312666666667,3.1031956000000003
862,1715673384040,0.56233768,-0.9752154199999999,-0.30657887,-1.21592726,-1.6955786400000001,3.2697173200000003
863,1715673384050,0.5754298999999999,-0.894381475,-0.396151175,-0.72379895,-2.02830175,3.45230495
864,1715673384060,0.614560248,-0.84680556,-0.42893966,-0.509217234,-2.21524184,3.5958277800000005
865,1715673384070,0.69231683,-0.8129675222222222,-0.4370444511111111,-0.3343129633333334,-2.454965644444444,3.913253611111111
866,1715673384080,0.856708552,-0.7642641400000001,-0.43002509,-0.45394922800000004,-2.55308068,4.26730601
867,1715673384090,1.0931126,-0.6882109,-0.41295093,-0.6469063,-2.6082418,4.565454
868,1715673384100,1.4135581,-0.55741054,-0.33910516,-1.1322387,-2.6177104,5.013371
869,1715673384110,1.7812015000000003,-0.40197468000000003,-0.26891813,-1.6106988999999998,-2.567161,5.358815
870,1715673384120,2.3319805,-0.22008906749999999,-0.1970236925,-2.026583725,-2.542764775,5.714453525
871,1715673384130,3.2615318375,0.21072113375,0.10040982,-2.497618075,-2.4715225125,6.3438737125
872,1715673384140,3.833523266666667,0.5808672222222222,0.33877315444444445,-2.581686266666667,-2.258640211111111,6.6709203
873,1715673384150,4.37570676,1.03053572,0.541104754,-2.4497529200000003,-1.96020542,6.7392486599999994
874,1715673384160,4.731312766666667,1.3826213333333333,0.7111797133333333,-2.362775866666667,-1.7711528333333333,6.6944213
875,1715673384170,4.913396366666667,1.701827,0.8559442566666666,-2.2983804,-1.5853989333333331,6.493650133333334
876,1715673384180,4.9656798,1.95061388,0.9653489799999999,-2.1718703599999998,-1.3803416,6.09784
877,1715673384190,4.82544002,1.9498943199999998,1.01004676,-1.8639942,-1.088561865,5.5460611
878,1715673384200,4.6590524,1.8951714,1.0137177,-1.559539,-0.77747875,5.204725
879,1715673384210,4.366677466666667,1.8792357555555554,0.9133324111111111,-1.2105312666666665,-0.5740606166666667,5.052212000000001
880,1715673384220,3.84211452,1.85110193,0.691357405,-0.317161216,-0.37216967,4.7802343
881,1715673384230,3.32951751,1.78689073,0.524683058,1.35572377,-0.39174788,4.28946534
882,1715673384240,2.89975461,1.71874662,0.413396062,2.20229137,-0.402743453,3.97975659
883,1715673384250,2.394184422222222,1.6179941444444443,0.2723600722222222,2.7589558333333333,-0.3300538811111111,3.655044366666667
884,1715673384260,2.1266485333333334,1.5946865333333333,0.19688140999999998,2.692948433333333,-0.21013764333333335,3.4721072
885,1715673384270,1.8299924125,1.5860528375,0.11808616024999999,1.98416665,0.02313652,3.22567395
886,1715673384280,1.60619124,1.5444742200000001,0.04981998079,1.27362353,0.200119455,3.02004151
887,1715673384290,1.3591890599999998,1.48665987,-0.027647956689999996,0.21296288999999996,0.40408736,2.6837602
888,1715673384300,1.1162914155555557,1.4527541,-0.09480228555555555,-0.2269025011111111,0.46273042444444445,2.5274381
889,1715673384310,0.9307677099999999,1.44335257,-0.13883737,-0.6295577079999999,0.437501694,2.35748166
890,1715673384320,0.63918364,1.451914,-0.18098617,-0.91690874,0.34147367,2.1620047
891,1715673384330,0.262625086,1.43102865,-0.17121120699999998,-0.813458718,-0.0177761792,1.75776468
892,1715673384340,-0.054230808888888885,1.4249138333333333,-0.14603833333333333,-0.7226705666666667,-0.19164200444444443,1.5543295666666666
893,1715673384350,-0.25019752500000003,1.43819375,-0.151685685,-0.5391191479999999,-0.388510304,1.2175459800000001
894,1715673384360,-0.3916692,1.46328665,-0.149978265,-0.520884792,-0.49483139600000003,0.96125752
895,1715673384370,-0.4630961333333334,1.4836231666666666,-0.11356353333333333,-0.6279185666666667,-0.5710062933333333,0.6922121666666666
896,1715673384380,-0.5177984840000001,1.4965019400000001,-0.03767292856,-0.8589071199999999,-0.5760154,0.361510052
897,1715673384390,-0.549196665,1.5061122,0.00563447524,-1.0403188399999999,-0.534904195,0.14553863900000003
898,1715673384400,-0.58819831,1.5383689,0.005122249666666666,-1.403988888888889,-0.37880431888888894,-0.32820431666666666
899,1715673384410,-0.60053508,1.5192411,-0.04057553900000001,-1.52314668,-0.356439866,-0.650846374
900,1715673384420,-0.59899837,1.4926481,-0.06055231400000001,-1.5711454,-0.39599338,-0.93584555
901,1715673384430,-0.517896054,1.45443852,0.0506432012,-1.3971862300000002,-0.420825064,-1.3901460350000001
902,1715673384440,-0.42348813199999996,1.42732718,0.108396574,-1.1423944000000001,-0.33399057499999996,-1.75562675
903,1715673384450,-0.27787529555555557,1.4208009666666668,0.0927967428888889,-0.9146010111111111,-0.2950309477777778,-2.0088983000000002
904,1715673384460,-0.12537317080000002,1.4299370200000001,0.0799802764,-0.636307778,-0.301431462,-2.30445862
905,1715673384470,0.042776889,1.4554508,0.06591848,-0.34040466,-0.32910367,-2.68024755
906,1715673384480,0.16126279999999998,1.4627615555555555,0.05468476111111112,-0.19832758666666664,-0.3364849466666667,-2.9912035
907,1715673384490,0.396212146,1.45685938,0.030044436200000003,-0.179869272,-0.32133039399999996,-3.34777067
908,1715673384500,0.552111498,1.44762105,0.0340202779,-0.27348436,-0.288542202,-3.64045136
909,1715673384510,0.698723682,1.43587644,0.046661259600000005,-0.40216314000000003,-0.252470594,-3.8678459600000004
910,1715673384520,0.84004897,1.4261198,0.09159071,-0.5581781,-0.20005837,-4.139681
911,1715673384530,1.1579334,1.38203185,0.24974017499999998,-0.831387615,0.1150717413,-4.63913975
912,1715673384540,1.2702935800000001,1.38783706,0.31843320799999997,-0.905729904,0.274461754,-4.765115400000001
913,1715673384550,1.4372383333333334,1.4570159,0.41071502666666665,-0.9367788377777777,0.47157099333333335,-4.853392111111111
914,1715673384560,1.6934402800000001,1.6331075,0.5364215440000001,-0.899468508,0.84174174,-4.91465516
915,1715673384570,2.07040122,1.94152798,0.68346672,-0.880714955,1.23326055,-4.8899762
916,1715673384580,2.55578928,2.3422159000000002,0.821163762,-0.913594783,1.565724,-4.87203188
917,1715673384590,3.139817377777778,2.8037746333333335,0.9438083777777777,-1.0116098022222222,1.967206688888889,-4.958002866666667
918,1715673384600,3.7489323299999997,3.1625016300000004,1.0415912,-1.0634706,2.36452199,-5.403805719999999
919,1715673384610,4.05805397,3.2133947800000002,1.08950871,-0.96099795,2.57704197,-5.84333855
920,1715673384620,4.518617,3.1220725,1.1684829,-0.4135048777777777,2.7660488333333335,-6.421720688888889
921,1715673384630,4.983115833333333,2.554214,1.1457578666666666,0.7974845666666667,2.794352066666667,-6.7711866
922,1715673384640,5.11896928,2.17476102,1.04345114,1.83018276,2.70060464,-6.7603843999999995
923,1715673384650,4.9555025,1.74607755,0.8294691000000001,3.0900618,2.38985755,-6.5971158
924,1715673384660,4.52838622,1.35992082,0.6290610839999999,3.4379495500000004,2.16276835,-6.4120998
925,1715673384670,4.2222992,1.115248,0.5244818266666667,3.283807866666667,2.0764327333333332,-6.189337533333333
926,1715673384680,3.79947772,0.78293592,0.43240327999999995,2.6604402,2.17089292,-5.87936436
927,1715673384690,3.47067802,0.538378955,0.379516044,2.22530557,2.29271477,-5.67408317
928,1715673384700,2.9306064571428574,0.18943614914285717,0.2853302342857143,1.3722651142857143,2.607783714285714,-5.182777228571429
929,1715673384710,2.57882118,-0.03203845240000001,0.23463563199999998,1.04567912,2.73698176,-4.89883388
930,1715673384720,2.2466555,-0.26092985,0.19824328,0.8765916,2.8115072,-4.626999
931,1715673384730,1.77106675,-0.6093953599999999,0.15663719199999998,0.863274788,2.86168996,-3.95993402
932,1715673384740,1.5078386000000001,-0.8070593044444445,0.12266976444444445,0.970206731111111,2.869658288888889,-3.593465755555556
933,1715673384750,1.14953048,-1.005631844,0.009988388,1.3326941399999999,2.8126374,-2.82998604
934,1715673384760,0.92703583,-1.0888135499999998,-0.11613482500000001,1.6128369499999997,2.6501626000000003,-2.23217805
935,1715673384770,0.791021765,-1.1164371499999999,-0.18915737500000002,1.7240907499999998,2.38252725,-1.70324505
936,1715673384780,0.70269005,-1.1136015777777777,-0.20710558111111113,1.660196,2.1253869222222224,-1.2784900666666668
937,1715673384790,0.65811157,-1.11138796,-0.182833847,1.3891992,1.96643634,-1.023810144
938,1715673384800,0.629792865,-1.1639094,-0.1419595,0.88415107,1.86374985,-0.8025242049999999
939,1715673384810,0.6201174866666667,-1.2274090666666666,-0.13604452,0.5214753166666666,1.828116033333333,-0.6892596333333333
940,1715673384820,0.599815452,-1.30690555,-0.14780130600000002,0.24868323940000003,1.7887661000000001,-0.60582564
941,1715673384830,0.543135322,-1.40588695,-0.17621760000000003,0.003970623499999999,1.6707927999999999,-0.51144691
942,1715673384840,0.4506834577777778,-1.4990915333333332,-0.2354812222222222,-0.04337143311111111,1.581360433333333,-0.4725212377777778
943,1715673384850,0.29411472,-1.60728887,-0.355770773,-0.0525191399,1.37012495,-0.382172572
944,1715673384860,0.13445907,-1.7183319799999999,-0.47089333599999994,-0.0952338942,1.027169948,-0.16676621
945,1715673384870,0.047631508511111115,-1.7987567444444446,-0.5304238777777779,-0.1766758088888889,0.7490395877777778,0.0858944438888889
946,1715673384880,-0.00573204169,-1.85435206,-0.561733959,-0.380813388,0.367038388,0.5960823000000001
947,1715673384890,0.0066772185,-1.8204111,-0.53539708,-0.635666376,0.008735371999999996,1.2004112800000002
948,1715673384900,0.03333527733333333,-1.7766212777777777,-0.4964246066666667,-0.8269249111111111,-0.21706077333333335,1.6384763555555557
949,1715673384910,0.100822954,-1.68093958,-0.39379126799999997,-1.10007664,-0.39574903800000005,2.1671972
950,1715673384920,0.19959700900000002,-1.53392493,-0.28304701200000004,-1.3385584,-0.44425175,2.567314
951,1715673384930,0.343983496,-1.2444628,-0.26325926,-1.57865908,-0.46984699599999996,2.9915293000000003
952,1715673384940,0.4190149711111111,-1.0863235,-0.30621704,-1.620523733333333,-0.6452773166666667,3.2655328666666668
953,1715673384950,0.506889315,-0.9523421000000001,-0.35444142,-1.4636331,-0.910418315,3.4148894499999995
954,1715673384960,0.5622482400000001,-0.8471835333333334,-0.39046994,-1.199637488888889,-1.188353511111111,3.5119490777777775
955,1715673384970,0.618694632,-0.7084438000000001,-0.42440890600000003,-0.8630915,-1.4805541,3.56726976
956,1715673384980,0.666581568,-0.59280898,-0.443842972,-0.5767178599999999,-1.7163481,3.59790472
957,1715673384990,0.6998511444444444,-0.5357493644444445,-0.45032440555555553,-0.44815450222222225,-1.833783488888889,3.6277760000000003
958,1715673385000,0.8169501,-0.37409499999999996,-0.417829258,-0.22971588,-2.0928242399999997,3.76778616
959,1715673385010,0.8704775999999999,-0.33227548,-0.38965687,-0.20891592,-2.1299343,3.8293614
960,1715673385020,1.018352,-0.2686742,-0.36855808,-0.24541509999999997,-2.0995438,3.9971967000000004
961,1715673385030,1.31937575,-0.0867428606,-0.37578413200000005,-0.417556952,-2.02220834,4.3856155999999995
962,1715673385040,1.6712926199999998,0.10723187159999999,-0.356709827,-0.6980509899999999,-2.02230001,4.7372141
963,1715673385050,2.1177319666666667,0.2808971611111111,-0.2562480144444444,-1.095892211111111,-2.0395094444444446,5.038891666666667
964,1715673385060,2.47377237,0.414841279,-0.1581494735,-1.43034095,-1.9743928499999999,5.2574115
965,1715673385070,2.97807005,0.6766248349999999,-0.0701260425,-1.57160355,-1.8774943499999999,5.43983115
966,1715673385080,3.4004422499999998,0.94383552,0.001798885,-1.54197656,-1.8528764599999998,5.63266622
967,1715673385090,3.6593123444444444,1.1129307222222222,0.06724647111111111,-1.4639215444444447,-1.883365422222222,5.808547944444445
968,1715673385100,3.98245797,1.36564067,0.224110626,-1.3451099499999999,-1.91936921,6.00248413
969,1715673385110,4.23719859,1.67008529,0.444550326,-1.1546574699999999,-1.8089093900000002,5.97714871
970,1715673385120,4.360701411111112,1.8632455222222224,0.6047710444444445,-0.9766377666666668,-1.5494087333333333,5.671391655555556
971,1715673385130,4.3922929,1.9533334400000002,0.72814004,-0.78380122,-1.10859824,5.1731121
972,1715673385140,4.296311810000001,1.9322468799999999,0.738774845,-0.5345834700000001,-0.645226404,4.8007288500000005
973,1715673385150,4.07115228,1.90406224,0.627134158,-0.1492649264,-0.19804250519999997,4.52669488
974,1715673385160,3.7196276000000004,1.9038034444444445,0.46249987000000004,0.20438532266666665,-0.038535417333333336,4.320446333333333
975,1715673385170,3.3595254000000003,1.84154639,0.32877527500000003,0.5928752399999999,-0.003726278200000001,4.00779508
976,1715673385180,2.90888317,1.7063191,0.222610554,1.02869705,-0.08888089349999999,3.4437527500000003
977,1715673385190,2.5399164,1.57726276,0.17082703800000001,1.16414116,-0.148409711,3.1850513000000005
978,1715673385200,2.2104067555555553,1.4525644444444443,0.15446023222222224,1.1468486,-0.18743382,3.0058133333333337
979,1715673385210,1.8482664400000002,1.3329681,0.15122833600000002,0.96127285,-0.16895005700000001,2.90037294
980,1715673385220,1.63386362,1.2829651199999998,0.145203592,0.64052274,-0.0990823432,2.81651628
981,1715673385230,1.25732938,1.21891252,0.13778852800000002,-0.031184662000000002,0.04926628079999999,2.6465125400000002
982,1715673385240,0.9575897222222223,1.1685234111111111,0.13326658333333335,-0.5396146088888889,0.17019383999999999,2.4994230666666666
983,1715673385250,0.8178770140000001,1.1450179600000001,0.12245226880000001,-0.9262244500000001,0.280142797,2.3536332
984,1715673385260,0.49274214999999993,1.07802025,0.030184690000000004,-1.1394775,0.358089208,2.1692436
985,1715673385270,0.276418556,1.06463536,-0.030855458800000003,-1.11058354,0.32696560799999996,2.0704972400000003
986,1715673385280,0.0786563511111111,1.0681517333333332,-0.09882690444444445,-1.0223508777777779,0.26185755555555557,2.0013812222222223
987,1715673385290,-0.13820318599999998,1.10700354,-0.157789696,-0.882593391,0.06462953799999999,1.8746080199999997
988,1715673385300,-0.32242735,1.19293545,-0.12107414000000001,-0.799592059,-0.211237197,1.6731293600000001
989,1715673385310,-0.3840468,1.2438531,-0.07616298,-0.8151997,-0.34956762,1.5155567
990,1715673385320,-0.4438131444444444,1.3171703444444445,0.00028456966666666624,-0.9290581666666667,-0.39974342333333335,1.2421775955555556
991,1715673385330,-0.5200425120000001,1.43122992,0.07157735,-1.0897835,-0.38698313,0.9402743599999999
992,1715673385340,-0.5766664288888889,1.4900056666666666,0.11188322777777777,-1.223020088888889,-0.33585710444444444,0.6328733744444445
993,1715673385350,-0.606773235,1.507344,0.151624705,-1.4119386999999999,-0.22372939499999997,-0.030772334999999994
994,1715673385360,-0.6058768480000001,1.5076367400000001,0.177620124,-1.36250438,-0.18316794600000003,-0.35973855200000004
995,1715673385370,-0.576314135,1.4961543000000002,0.20321308,-1.1797335,-0.16050484,-0.72074463
996,1715673385380,-0.5332086555555555,1.4892060444444444,0.21426724666666666,-0.9814058999999999,-0.17007505666666667,-0.9558513999999998
997,1715673385390,-0.418121992,1.52472311,0.25444778,-0.6764416200000001,-0.18719965,-1.2804651999999999
998,1715673385400,-0.298724763,1.56176183,0.28516907599999997,-0.491028766,-0.16238325739999998,-1.51076133
999,1715673385410,-0.10898196919999999,1.5992031199999999,0.2766137,-0.272201545,-0.051648656,-1.88138858
1000,1715673385420,0.037353128,1.6153653,0.2518100711111111,-0.14514837222222224,0.045441586444444446,-2.2249408777777777
1001,1715673385430,0.272034161,1.6217592799999998,0.19918845899999998,-0.05363396819999999,0.163620251,-2.7144102000000006
1002,1715673385440,0.452130035,1.6014654700000002,0.158545844,0.0030543260000000004,0.21539107999999998,-3.0862133
1003,1715673385450,0.59302241,1.55112716,0.13528838599999998,0.0967915988,0.22333233,-3.5280828
1004,1715673385460,0.7740898722222221,1.4288706888888887,0.1250276233333333,0.18415890777777777,0.19914207222222224,-4.049612444444445
1005,1715673385470,0.9106141099999998,1.34899338,0.151630806,0.18417587600000002,0.181671324,-4.370893799999999
1006,1715673385480,1.0652450999999998,1.2955634,0.22787916,0.12767084,0.204868935,-4.618447
1007,1715673385490,1.2011337555555555,1.3094870333333333,0.31315513333333334,0.04815654666666667,0.30563624666666667,-4.727435333333333
1008,1715673385500,1.3143266800000002,1.35743902,0.368917862,-0.056841010000000004,0.49703050600000004,-4.8194518
1009,1715673385510,1.5177715,1.4725249,0.40947512,-0.13515393,0.68676525,-4.892267
1010,1715673385520,1.73899798,1.6175212899999998,0.470612822,-0.19535470500000002,0.8467508699999999,-4.9212677
1011,1715673385530,2.2812375,1.9992766000000002,0.6072237933333333,-0.2976780288888889,1.1259095166666666,-4.9432234444444445
1012,1715673385540,3.05310485,2.5244155,0.776722175,-0.544708532,1.6417614800000002,-5.1330701
1013,1715673385550,3.6583962799999994,2.80138298,0.90796762,-0.621249956,1.87981564,-5.3389317
1014,1715673385560,4.11749636,2.85875218,0.971849376,-0.517250152,2.19984782,-5.667088359999999
1015,1715673385570,4.488907,2.778163477777778,0.9792441133333334,-0.12699210333333333,2.405298788888889,-5.8850416
1016,1715673385580,4.8922428799999995,2.4305808200000003,0.84307965,0.8914509110000001,2.41250544,-6.00898969
1017,1715673385590,4.97434525,2.13143535,0.7190054,2.12306215,2.0303633999999997,-6.0639829999999995
1018,1715673385600,4.8372605222222225,1.9462923777777779,0.6778918888888888,2.592766677777778,1.808805888888889,-6.094364988888889
1019,1715673385610,4.67707154,1.79315335,0.662599645,3.0321825,1.520749,-6.1779857
1020,1715673385620,4.37205986,1.49256265,0.63510413,2.8742738,1.4721853,-6.2312837
1021,1715673385630,3.8780189700000003,1.04993931,0.59430906,2.11872493,1.71784477,-6.157644
1022,1715673385640,3.2423032000000003,0.5106192466666667,0.5172253233333334,1.1876747666666665,2.253838266666667,-5.827094466666667
1023,1715673385650,2.7989743000000002,0.15180764924999998,0.406883505,0.87704977,2.5736516,-5.3892057
1024,1715673385660,2.452887,-0.09459901433333334,0.31154257,0.9075420933333334,2.6767096666666665,-5.036787333333333
1025,1715673385670,2.051522,-0.348483744,0.210414718,1.16601952,2.68579124,-4.50537548
1026,1715673385680,1.69985522,-0.5363239639999999,0.137654378,1.5187636999999998,2.5816692,-3.93061255
1027,1715673385690,1.3930487333333332,-0.6830073200000001,0.06465824233333334,1.7510452333333333,2.4864252000000002,-3.4843754
1028,1715673385700,1.1895816,-0.7818749,0.006768687,1.9046779,2.40742,-3.1236594
1029,1715673385710,1.12684624,-0.813998724,-0.0176229814,1.9150320600000001,2.39940238,-3.0896036600000003
1030,1715673385720,0.7261128655555555,-0.9875169777777777,-0.1652128877777778,2.0375749444444446,2.0912293,-1.9504249
1031,1715673385730,0.594546896,-1.00758319,-0.20141419200000002,1.8739971,1.9318613299999998,-1.325959418
1032,1715673385740,0.548324664,-0.9836792900000001,-0.21229286800000002,1.47866034,1.8438662399999999,-0.836091276
1033,1715673385750,0.55326396,-0.9725567,-0.21287827,1.2084441,1.8193095,-0.6264423
