id,timestamp,acc_x,acc_y,acc_z,gyro_x,gyro_y,gyro_z
0,1715673419240,3.7813485616666664,1.9027024833333332,1.3316021,-1.8629608833333335,-1.8467984333333334,5.333871633333334
1,1715673419250,5.3962902999999995,2.657899,1.61372225,-2.23576685,-1.8506163,6.807940449999999
2,1715673419260,5.006735166666667,2.6054975666666667,1.4721184,-0.7659232333333333,-1.620031611111111,6.278897300000001
3,1715673419270,4.56419915,2.34870415,1.2897399,0.763810625,-1.58282825,6.079101799999999
4,1715673419280,4.2253684,2.24481404,1.23874304,1.7820466499999998,-1.4758504000000001,6.07642915
5,1715673419290,3.8096978,2.19454276,1.16499482,2.1417852,-1.165194844,6.0147624
6,1715673419300,3.4747757999999997,2.1461862,1.0522565,1.7555350600000001,-0.7247305159999999,5.86971254
7,1715673419310,3.330987,2.125185,0.9933506,1.3130548,-0.4905248,5.7850466
8,1715673419320,2.77017372,2.1148674,0.7386467299999999,-0.24401012599999997,-0.050152037000000003,5.56522685
9,1715673419330,2.3976033400000003,2.1047144700000002,0.5513370280000001,-1.27311952,0.11443033999999999,5.32556897
10,1715673419340,1.9296490800000001,2.10857416,0.36410661600000005,-1.7475632399999999,-0.12547172,4.835395699999999
11,1715673419350,1.4389659666666665,2.1567111666666667,0.28198798333333336,-1.4032083333333334,-0.47805294666666664,4.3358707333333335
12,1715673419360,0.93906694,2.2081533,0.290687678,-0.80362372,-0.732457948,3.7597839199999994
13,1715673419370,0.494327615,2.27668775,0.32120776,-0.41302125,-0.81794855,3.16451095
14,1715673419380,0.23212328599999998,2.3329531799999996,0.376241462,-0.50258937,-0.7745771149999999,2.63901425
15,1715673419390,-0.039602580000000005,2.4384959333333334,0.4849469666666667,-0.7658044311111111,-0.6833545888888888,2.2963952222222224
16,1715673419400,-0.234519772,2.54587422,0.54207428,-1.2939347399999999,-0.390465092,1.72801562
17,1715673419410,-0.37764397,2.622836,0.5183839,-1.5621351,-0.17348573,1.3548992
18,1715673419420,-0.49473008199999996,2.68937038,0.406255414,-1.67662662,-0.07782423499999999,0.7994851700000001
19,1715673419430,-0.579466751,2.68948608,0.331330299,-1.5740317000000001,-0.180846659,-0.1979661535
20,1715673419440,-0.5638879222222222,2.627870111111111,0.4021237411111111,-1.2947458666666667,-0.5125329111111111,-1.3292936888888889
21,1715673419450,-0.50579171,2.58917545,0.57204559,-1.1312461,-0.61498858,-1.9659171
22,1715673419460,-0.400877044,2.54905112,0.7624835400000001,-1.0080040000000001,-0.49846604,-2.4678192
23,1715673419470,-0.2349283396,2.53033054,0.91656568,-0.87365946,-0.2083050508,-2.90622188
24,1715673419480,-0.016322092666666666,2.541855633333333,0.9373920666666667,-0.6650795466666667,0.19374609199999998,-3.3746741333333334
25,1715673419490,0.226446141,2.53724567,0.85585476,-0.321773268,0.574274422,-4.0445692
26,1715673419500,0.46741752000000003,2.49794458,0.7824785750000001,-0.041523567000000004,0.734626558,-4.632511599999999
27,1715673419510,0.7584406,2.45149666,0.763099395,0.164506009,0.81697119,-5.1612462
28,1715673419520,0.9470674999999998,2.447399,0.7813261,0.26435193,0.86742866,-5.507714
29,1715673419530,1.1696659,2.47671772,0.8538181,0.32983670600000004,0.9979094119999999,-5.9206588
30,1715673419540,1.9922502999999998,2.49825565,0.945360035,0.37636935,1.7573830000000001,-7.2188237
31,1715673419550,2.4774921,2.6251837,0.969873665,0.3759112,2.1847596,-7.8624465
32,1715673419560,3.03465256,2.69762074,0.949262714,0.44953573599999996,2.61740482,-8.6239512
33,1715673419570,3.3895810666666666,2.690753144444445,0.9111032944444444,0.57243164,2.790177866666667,-9.101790666666666
34,1715673419580,3.6663296800000005,2.64498358,0.8974182089999999,0.82491243,2.9218295,-9.7311143
35,1715673419590,3.8669634999999998,2.4750224,0.923925845,1.12588572,2.99516392,-10.1558484
36,1715673419600,3.9389616,2.3999081999999996,0.9251759180000001,1.16476728,3.0519439200000003,-10.163270399999998
37,1715673419610,3.98633,2.365077,0.91395575,1.0884092,3.1627548,-10.005056
38,1715673419620,3.99428176,2.3698577999999997,0.95020179,0.9178556,3.2332486400000002,-9.872620799999998
39,1715673419630,4.05471234,2.15069868,1.10239354,0.42989641700000003,3.5506390600000004,-9.4083481
40,1715673419640,3.75503615,1.5136553000000001,1.1036315,0.8819825120000001,4.09055228,-8.5856189
41,1715673419650,3.558473,1.234468951111111,0.9829232111111111,2.1966714111111107,4.099194222222223,-7.665289533333333
42,1715673419660,3.11537692,0.772325536,0.549263732,3.42519786,3.66700864,-6.7139128900000005
43,1715673419670,2.8941322400000002,0.67838108,0.316579444,4.6498605,2.69591632,-5.334701409999999
44,1715673419680,2.7752838,0.76144687,0.37977827,4.2013785,1.9320141,-4.50001535
45,1715673419690,2.58876072,0.589327064,0.46091716,2.86239244,1.84466036,-4.2705896
46,1715673419700,2.3958714,0.30873755,0.48612595000000003,1.5038484403444445,2.075211022222222,-4.229070911111112
47,1715673419710,2.01089792,-0.47543018400000003,0.342971234,-0.13988814152,2.5608997600000003,-3.84808446
48,1715673419720,1.8005928,-0.7914486,0.26208845,-0.70554936,2.6971228,-3.3389894999999994
49,1715673419730,1.5190946799999998,-1.38790419,0.0919748765,-0.813168543,2.58826654,-2.18088048
50,1715673419740,1.50497811,-1.78330531,0.0485882037,-0.245231844,2.03833516,0.0005955940000000215
51,1715673419750,1.5853160888888889,-1.8086557444444447,-0.0965232438888889,0.6328903444444445,1.6378824111111112,1.2317418555555557
52,1715673419760,1.59631876,-1.82683227,-0.27604048800000003,1.32163754,1.2704469250000001,1.55202528
53,1715673419770,1.39611806,-2.0236546,-0.5803630959999999,1.8611231799999999,0.621585914,1.52337572
54,1715673419780,1.17860535,-2.1685717,-0.5568617450000001,1.7389043000000002,-0.015271634999999978,1.6925549
55,1715673419790,1.0012644,-2.249589388888889,-0.4105727511111111,1.1205474666666666,-0.35287649444444447,2.1523668000000002
56,1715673419800,0.89768652,-2.26148566,-0.282540884,0.09208794000000001,-0.373696815,2.82280835
57,1715673419810,0.8582268900000001,-2.22504451,-0.227001065,-0.615278754,-0.29313896100000003,3.23306543
58,1715673419820,0.8578366300000001,-2.17400493,-0.22587295799999998,-1.35276112,-0.20928243000000002,3.6251492499999998
59,1715673419830,0.8821246,-2.1343927,-0.25690526,-2.0700696,-0.1470658,4.026671
60,1715673419840,0.9906004700000001,-2.12685581,-0.343556652,-2.55474529,-0.51654767,4.805157629999999
61,1715673419850,1.0867707,-2.03247228,-0.40412116,-2.57395705,-0.88980158,5.32246875
62,1715673419860,1.17697118,-1.8885857600000002,-0.474149624,-2.2879958,-1.3058007999999999,5.7375516499999994
63,1715673419870,1.2924915875,-1.762221725,-0.5478825725,-2.081676,-1.5578591,5.9734983
64,1715673419880,1.4649025,-1.61613095,-0.60168143,-1.54739805,-2.2500458,6.557867549999999
65,1715673419890,1.65198665,-1.4934408,-0.60838915,-1.3087788100000002,-2.5475065999999997,6.80338936
66,1715673419900,1.8027271666666667,-1.4291754666666665,-0.60828076,-1.1155078444444446,-2.803803622222222,7.050810133333333
67,1715673419910,1.99901902,-1.3886785,-0.611584496,-1.1849869400000002,-2.88948424,7.252924999999999
68,1715673419920,2.1390029200000003,-1.3075030399999998,-0.6004130599999999,-1.4927103599999998,-2.8713110399999997,7.4172476000000005
69,1715673419930,2.2791208299999997,-1.1431948200000002,-0.5888026,-2.08686836,-2.86428598,7.54824788
70,1715673419940,2.52058003,-1.0099430310000002,-0.6117246700000001,-2.8016877,-2.98218315,7.60505876
71,1715673419950,2.875743733333333,-0.8902077833333334,-0.5439612533333333,-3.456139911111111,-3.482848177777778,7.7620102
72,1715673419960,3.17867336,-0.639756848,-0.361813794,-3.5267235999999995,-3.8450606800000005,7.7309120899999995
73,1715673419970,3.4634338,-0.34545918200000003,-0.068101536,-3.2189543200000004,-4.2270346000000005,7.3518854000000005
74,1715673419980,3.6234675600000004,-0.217512698,0.206219346,-2.7160595499999998,-4.344855300000001,6.820921149999999
75,1715673419990,3.7480371111111115,-0.2370395788888889,0.4360891444444444,-2.4030421,-4.280434400000001,6.6034532
76,1715673420000,3.9088620999999995,-0.22747668699999996,0.61728604,-2.20794194,-4.11158092,6.68824132
77,1715673420010,4.17490211,-0.024214820999999997,0.8502081699999999,-2.08793736,-3.89799225,7.17348212
78,1715673420020,4.3890977,0.22775720000000002,1.024877,-1.9650007000000003,-3.7203220999999997,7.545713000000001
79,1715673420030,4.7464967,0.7804114,1.3030639,-1.515404,-3.3516648,7.907191999999999
80,1715673420040,5.023445669999999,1.27397064,1.47251881,-0.6770524864,-2.70582752,7.45396094
81,1715673420050,5.1149327,1.7687922,1.4475844500000001,0.27519478399999997,-2.0357848,6.58535615
82,1715673420060,4.9876324400000005,2.05293682,1.3406270599999999,0.85823512,-1.74615832,6.00898952
83,1715673420070,4.700728244444445,2.3379007,1.2405670444444443,1.5202569555555554,-1.4423885777777778,5.275856388888889
84,1715673420080,4.43105144,2.51850076,1.20360686,1.8632612000000002,-1.17542688,4.7759278
85,1715673420090,4.002830950000001,2.7832355499999997,1.13324293,2.06696947,-0.653549464,4.16162653
86,1715673420100,3.5913619500000005,2.96426443,1.0234071999999999,1.9431011599999999,-0.16114626,3.56911769
87,1715673420110,3.1752583999999997,3.05086096,0.84565906,1.6126537200000002,0.354607256,2.86926464
88,1715673420120,2.973588,3.0374944,0.7163833,1.3761266,0.550695,2.4759896
89,1715673420130,2.39951811,2.93776902,0.487534555,0.569586009,0.61407232,1.217087908
90,1715673420140,1.8722739000000002,2.71978059,0.50899312,0.087048295,0.574595152,0.4586070729999999
91,1715673420150,1.4287053,2.39082244,0.43036660000000004,-0.36260961,0.698005156,-0.23738224200000002
92,1715673420160,1.2119,2.2225687333333335,0.33611719333333334,-0.5252083722222223,0.7358380866666666,-0.5608761166666666
93,1715673420170,0.980959664,2.09817128,0.22228127199999997,-0.5620724,0.69791356,-0.8850674
94,1715673420180,0.8138157959999999,2.07175498,0.150899056,-0.560896476,0.663430218,-1.23119896
95,1715673420190,0.70620585,2.0716817599999997,0.1104332745,-0.591836792,0.6434549159999999,-1.6300940000000002
96,1715673420200,0.5812127666666667,2.013532233333333,0.07848019,-0.6397795333333334,0.5721771333333333,-2.3137539333333335
97,1715673420210,0.5300857999999999,1.9258015,0.111957758,-0.6252206,0.514654,-2.7293458
98,1715673420220,0.48121101599999994,1.8182219199999998,0.168875703,-0.566989877,0.540890638,-3.1942144800000003
99,1715673420230,0.372180258,1.6725609600000002,0.269027898,-0.52366424,0.689972312,-3.5822359599999998
100,1715673420240,0.36983865,1.6297292000000003,0.29995653,-0.5047274,0.8817839600000001,-3.8044686
101,1715673420250,0.48951366111111105,1.7251617,0.31046527222222225,-0.43213624333333334,1.2586877666666667,-4.233296
102,1715673420260,0.6029986,1.78438466,0.289126642,-0.28090637799999996,1.52453638,-4.66249012
103,1715673420270,0.7931865499999999,1.8321496499999999,0.23370266,0.021838429999999992,1.6779704500000001,-5.16601115
104,1715673420280,1.0022292199999998,1.84431492,0.21420761600000002,0.34587189,1.7508924799999999,-5.6452501999999996
105,1715673420290,1.2294822555555553,1.8338264666666666,0.23413967111111111,0.6258823333333334,1.8446094,-6.128353
106,1715673420300,1.57603095,1.8421745400000002,0.271284106,0.7567093149999999,2.0359374800000003,-6.572818549999999
107,1715673420310,1.8239478999999998,1.84826634,0.266674089,0.721584558,2.23723283,-6.8760368099999996
108,1715673420320,2.21269003,1.87338363,0.1437035016,0.555123815,2.3923315700000005,-7.10410334
109,1715673420330,2.5316043111111113,1.9447341444444446,0.03036085111111111,0.2976780222222222,2.4016676222222224,-7.45315
110,1715673420340,2.9047547700000003,1.9326981799999998,0.0639183641,0.116736342,2.3304814800000004,-7.9340096
111,1715673420350,3.28583812,1.83237518,0.21232945600000003,0.138299894,2.34700544,-8.3278034
112,1715673420360,3.5740804500000003,1.7125388999999998,0.385144415,0.44150288500000007,2.4729352,-8.529893
113,1715673420370,3.7160500111111108,1.6203383444444444,0.4622085288888889,0.7574050666666667,2.5869803777777776,-8.629286222222223
114,1715673420380,3.89210509,1.4429866199999999,0.46381362700000006,1.2807553200000001,2.7227791999999997,-8.863975499999999
115,1715673420390,3.9813299,1.24705455,0.40917021,1.6459764,2.69277035,-9.202760999999999
116,1715673420400,3.9617816714285716,1.0384142857142857,0.41147000714285714,1.7330683571428571,2.5962863285714284,-9.478206714285715
117,1715673420410,3.8767506,0.680222586,0.469246908,1.64041758,2.47919656,-9.7819686
118,1715673420420,3.766418977777778,0.37608561888888886,0.5717948866666667,1.4007988333333334,2.4920248777777783,-9.818708333333333
119,1715673420430,3.6261263,0.13458103,0.6462572,1.1082623,2.6484063,-9.666943
120,1715673420440,3.0981381000000003,-0.25501488,0.6506782,0.992747662,2.91312476,-8.9809408
121,1715673420450,2.6798514,-0.46615526,0.600888725,1.20760425,3.0201942,-8.139932349999999
122,1715673420460,2.33817901,-0.592571168,0.539574191,1.49901752,3.00228055,-7.35284764
123,1715673420470,1.9276125333333332,-0.6553431166666667,0.45911216,1.8014416,2.922532,-6.5657325
124,1715673420480,1.67862849,-0.638695831,0.418304876,2.06703064,2.7143796,-5.5754128199999995
125,1715673420490,1.46084134,-0.615657856,0.43037877599999996,2.1290181,2.39028512,-4.34890238
126,1715673420500,1.30572254,-0.6240486199999999,0.469393248,1.9196746199999999,2.1362263599999998,-3.4109493799999995
127,1715673420510,1.1973462666666665,-0.6669495,0.4888496733333333,1.6545285333333333,2.0049106666666665,-2.7433958
128,1715673420520,1.08841104,-0.717724797,0.48827850999999994,1.44907933,1.9542037,-2.23225432
129,1715673420530,0.92221233,-0.8407868989999999,0.43430581300000004,1.3180945,1.969735,-1.6783521999999997
130,1715673420540,0.81656595,-0.969501692,0.250947589,1.33110586,1.8857104599999999,-0.49422050199999995
131,1715673420550,0.7636759777777777,-1.0226206333333332,0.07383899555555556,1.3744807,1.7093367,0.42945524222222226
132,1715673420560,0.7502267,-1.0339018,0.017805915,1.3271047,1.4367551,1.2090551
133,1715673420570,0.756861212,-1.0310846,-0.0579424018,0.8240572500000001,1.03312585,2.13657755
134,1715673420580,0.7524829150000001,-1.0420425,-0.036922884499999996,0.34651332560000003,0.811717756,2.5612357599999998
135,1715673420590,0.7607760800000001,-1.09183192,0.0054515373999999995,-0.26887232159999996,0.646142732,3.0021278
136,1715673420600,0.7930137666666667,-1.1679136333333333,0.022054131666666664,-0.7332758222222222,0.5679519766666667,3.3656129999999997
137,1715673420610,0.8419637740000001,-1.2351269599999999,0.0173668669,-1.08831754,0.508606434,3.73023345
138,1715673420620,0.9463235040000001,-1.3102106599999999,0.016696096400000002,-1.4502094600000002,0.430446198,4.2919697999999995
139,1715673420630,1.04790264,-1.36655532,-0.015354553200000001,-1.6865684600000002,0.360074506,4.8052188000000005
140,1715673420640,1.233235911111111,-1.4296972222222222,-0.13734541666666666,-1.9477947222222223,0.13013126611111112,5.509936666666667
141,1715673420650,1.28609942,-1.39709372,-0.171046576,-2.02208608,-0.042638395999999995,5.73938444
142,1715673420660,1.4474624999999999,-1.21876015,-0.19580411,-2.1830033,-0.6650031999999999,6.1685934
143,1715673420670,1.5773176,-1.15720165,-0.176565185,-2.316401,-1.0606911499999998,6.25839065
144,1715673420680,1.64625452,-1.15654306,-0.17142464,-2.4362221600000002,-1.27820496,6.28604764
145,1715673420690,1.7278244,-1.1154715666666666,-0.15868812,-2.654633733333333,-1.5562639999999999,6.359785888888889
146,1715673420700,1.8277408000000002,-1.0235230999999998,-0.11092110799999999,-2.97198152,-1.8846414800000002,6.49245916
147,1715673420710,1.88355505,-0.9757032500000001,-0.077498423,-3.1024166,-1.9952386399999997,6.55875319
148,1715673420720,1.90916635,-0.9260600840000001,-0.068790597,-3.10890711,-2.0596085,6.61464749
149,1715673420730,1.926454,-0.83962214,-0.06994311,-3.0266676444444442,-2.1402003,6.7006825333333335
150,1715673420740,2.03397239,-0.679045715,-0.0426366342,-2.73464525,-2.1821481900000004,6.9185222600000005
151,1715673420750,2.13058768,-0.4997730799999999,-0.09420062,-2.4465764400000003,-2.1924566000000003,7.036281700000001
152,1715673420760,2.3143762666666667,-0.18119621333333333,-0.16613435333333335,-2.1658227777777777,-2.2553484222222218,6.942330811111112
153,1715673420770,2.3938795777777777,0.010874618888888889,-0.18861533444444445,-2.1633793333333333,-2.3064744666666663,6.693759466666667
154,1715673420780,2.4347091499999998,0.19458452799999998,-0.195956554,-2.33917104,-2.37391392,6.28650585
155,1715673420790,2.4885904,0.221628785,-0.132263815,-2.6963592000000003,-2.4930937,5.90164575
156,1715673420800,2.53896516,0.22418380799999998,-0.06944307699999999,-2.8416840800000003,-2.5838988,5.747173200000001
157,1715673420810,2.607326911111111,0.20731561777777777,-0.0028185921111111103,-2.6586552666666665,-2.7105447555555555,5.661176511111111
158,1715673420820,2.672778,0.17440042,0.042380523,-2.3246477,-2.8147144,5.6338573
159,1715673420830,2.9687097,0.19166430666666667,0.18383186333333335,-1.2934393555555554,-3.0378667555555556,5.8574678888888885
160,1715673420840,3.25708629,0.39485838199999995,0.33580008400000005,-0.509003467,-3.05849535,6.0905556999999995
161,1715673420850,3.5756293900000005,0.60876111,0.47159460099999995,-0.162810866,-2.95098313,6.1859116
162,1715673420860,3.9795613777777774,0.9720553222222222,0.6063023222222221,-0.14477506333333334,-2.7754154,6.2799491666666665
163,1715673420870,4.2187826,1.28528222,0.706846132,-0.358058649,-2.5466667000000003,6.29824976
164,1715673420880,4.5052874,1.9544188999999998,0.940835356,-0.71648384,-2.1185722399999998,5.98073722
165,1715673420890,4.571825111111112,2.3072145666666666,1.0403520444444443,-0.8803247144444444,-1.7660284000000002,5.6324658888888885
166,1715673420900,4.463602,2.76695418,1.08122168,-0.586369542,-1.27722756,4.8940386
167,1715673420910,4.344034,2.9852352,1.0929296,-0.20143281,-1.0789407,4.415181
168,1715673420920,4.053901229999999,3.06102612,1.079648334,0.188268675,-0.978407593,3.90862116
169,1715673420930,3.4195287,2.9759052,0.9549947399999998,0.93477654,-0.72143185,2.616183
170,1715673420940,2.6586849777777775,2.6397949444444446,0.8748410044444445,0.8612012,-0.24636534400000004,1.419430188888889
171,1715673420950,2.3326971399999996,2.4803092700000002,0.822224799,0.602404745,0.042989640399999994,1.02345883
172,1715673420960,1.79284845,2.22186755,0.580247255,-0.30619620000000003,0.59063031,0.45028403499999997
173,1715673420970,1.5552059,2.1246498,0.45058859999999995,-0.7705216555555556,0.7253345777777778,0.19853119333333336
174,1715673420980,1.20203354,2.0280696,0.325116524,-1.24240828,0.7615657,-0.161543316
175,1715673420990,0.9306640500000001,1.9451439999999998,0.25617348500000003,-1.3832738,0.7746382199999999,-0.680717688
176,1715673421000,0.7992234600000001,1.8791828000000002,0.1900537814,-1.3008985599999998,0.76394809,-1.03236226
177,1715673421010,0.5780215333333333,1.7813031,0.06002383066666666,-0.871552,0.53908858,-1.5679893
178,1715673421020,0.47705223500000005,1.73845514,0.052253047600000005,-0.63316187,0.37230711,-1.84884481
179,1715673421030,0.3295517388888889,1.6844276555555555,0.13134234888888888,-0.4118759,0.20723604,-2.2562308
180,1715673421040,0.1808764018,1.6181919999999999,0.28867537800000004,-0.342832848,0.234663881,-2.87894682
181,1715673421050,0.0922614806,1.557542,0.40924337800000005,-0.33330335,0.48075094499999993,-3.3919819500000004
182,1715673421060,0.012202608688888887,1.4952024444444445,0.5271852322222222,-0.32146782222222225,0.7616810888888889,-3.7077483555555557
183,1715673421070,0.027867477479999996,1.4725981799999999,0.576472676,-0.307662282,1.08358334,-4.013629079999999
184,1715673421080,0.111018668,1.4238513999999998,0.58916854,-0.31847461,1.43632746,-4.3832026
185,1715673421090,0.216317498,1.35654865,0.57391153,-0.35750889999999996,1.6912414599999999,-4.6643224
186,1715673421100,0.3805845266666667,1.297995822222222,0.5295498555555556,-0.38189259333333336,1.9420423999999998,-4.939507
187,1715673421110,0.52403056,1.2672507899999998,0.490370077,-0.2829527748,2.09212192,-5.17131014
188,1715673421120,0.64704996,1.2501339,0.47380813999999993,-0.0421191566,2.11747282,-5.4055161
189,1715673421130,0.9593243,1.2361697,0.51856685,0.37048978,2.0960314,-5.6815047
190,1715673421140,1.2304376,1.2753548000000001,0.580088735,0.8024784219999999,2.10469048,-5.95529487
191,1715673421150,1.57988488,1.2615126399999999,0.6531722400000001,1.21381984,2.2242520000000003,-6.43189174
192,1715673421160,1.9759322799999999,1.28307496,0.717200364,1.17771764,2.47831084,-6.77690838
193,1715673421170,2.3179888600000003,1.37915368,0.7465801300000001,0.9404880999999999,2.7673416600000005,-7.0458725
194,1715673421180,2.5967369,1.4316485666666667,0.7005693166666667,0.7338867222222222,2.9956661222222225,-7.338986011111111
195,1715673421190,2.830726,1.44268176,0.6365371049999999,0.557903228,3.1345633900000003,-7.77203869
196,1715673421200,3.0210359500000004,1.4641098,0.64807435,0.4965418140000001,3.12941679,-8.00803114
197,1715673421210,3.192022333333333,1.5264643444444443,0.7332812555555556,0.5788287222222223,3.0932858888888886,-8.113580222222222
198,1715673421220,3.2947289599999996,1.5579811,0.812144934,0.7937888599999999,3.09843064,-8.177439199999998
199,1715673421230,3.3046876285714286,1.462933842857143,0.81332269,1.160447614285714,3.1504066285714285,-8.284227428571429
200,1715673421240,3.1678134555555557,1.3244268777777777,0.7161935222222221,1.4690460777777778,3.142460511111111,-8.279565333333332
201,1715673421250,2.99477845,1.3140095999999999,0.69092445,1.8067867,2.89725745,-8.00783235
202,1715673421260,2.8614109599999997,1.30921058,0.73070116,1.8844276399999997,2.71511266,-7.74189246
203,1715673421270,2.6627896,1.22441292,0.7816065400000001,1.8342145200000002,2.59452792,-7.38175676
204,1715673421280,2.482536622222222,1.1174771277777777,0.7954190111111111,1.7279511222222221,2.580040288888889,-7.097405666666666
205,1715673421290,2.1108671200000004,0.82268217,0.73129874,1.54173226,2.58160816,-6.3388264
206,1715673421300,1.8202892,0.5819973600000001,0.63054896,1.5004989,2.5432763,-5.5448542199999995
207,1715673421310,1.6578407,0.4556973,0.5667404,1.5134187,2.513405,-4.9980993
208,1715673421320,1.5069171399999999,0.39523039299999996,0.504748993,1.5564847400000001,2.4486228100000003,-4.3107998
209,1715673421330,1.3562104444444445,0.30699622444444447,0.3861404222222222,1.6315362444444443,2.3469782111111113,-3.3643911444444448
210,1715673421340,1.22643742,0.10851852879999999,0.21824444400000004,1.66054552,2.2146920000000003,-2.43857412
211,1715673421350,1.1043327,-0.050124876,0.10018878,1.6620116,2.11451,-1.9932534
212,1715673421360,1.07447734,-0.24574604759999996,0.00897003592,1.65747593,2.0952983,-1.9563418599999998
213,1715673421370,0.7847477222222222,-0.7206518222222222,-0.08653621333333333,1.3035354666666668,1.6657616555555554,-1.0579337666666666
214,1715673421380,0.62298758,-0.95487276,-0.13993499,0.98141608,1.6061785800000004,-0.746324608
215,1715673421390,0.5175424,-1.17356844,-0.18105934399999998,0.50561314,1.5082874,-0.09691377200000001
216,1715673421400,0.47505822000000003,-1.2723913,-0.20845729,0.048716507000000006,1.3306936,0.866130575
217,1715673421410,0.5155043222222222,-1.2873447,-0.19090545777777776,-0.18332744555555555,1.1663114444444445,1.5233112777777778
218,1715673421420,0.55893505,-1.2811112,-0.16092403,-0.26282477,1.0936015,1.7847955
219,1715673421430,0.72516425,-1.1761173900000002,-0.0802607822,-0.49364021999999996,0.86993319,2.56648924
220,1715673421440,0.844409028,-1.09922269,-0.0637110356,-0.525206676,0.782426721,2.7721065099999995
221,1715673421450,0.9023697066666667,-1.0661800333333333,-0.12281204333333334,-0.44791693333333327,0.61463224,2.8927524
222,1715673421460,0.892661852,-1.0863926200000003,-0.19779202599999998,-0.300087556,0.358455728,2.9129109200000003
223,1715673421470,0.849988626,-1.12707796,-0.282394524,-0.17449365600000002,0.0750753364,2.95371676
224,1715673421480,0.8086752349999999,-1.17945905,-0.37218635,-0.0898582802,-0.2700024404,3.0542039599999997
225,1715673421490,0.797674591,-1.22294937,-0.39480352599999996,-0.0582460018,-0.682275394,3.23639456
226,1715673421500,0.7974855655555556,-1.274322311111111,-0.3833556988888889,-0.09349632000000001,-0.9764341466666667,3.443226855555556
227,1715673421510,0.8198526860000002,-1.30335654,-0.35230101999999996,-0.2023033,-1.2199436799999999,3.77523888
228,1715673421520,0.8678372209999999,-1.3010027000000002,-0.325823883,-0.30682233600000003,-1.32307301,4.03192444
229,1715673421530,0.9842769459999999,-1.24492027,-0.249514585,-0.6463107,-1.49081666,4.670721540000001
230,1715673421540,1.1334739555555555,-1.1258245422222222,-0.17021995777777776,-1.1433191222222223,-1.4870835555555555,5.2350134
231,1715673421550,1.26260415,-0.90230877,-0.150618545,-1.75254188,-1.4520267199999999,5.61986862
232,1715673421560,1.32771157,-0.75469648,-0.143599843,-2.24835056,-1.4654963200000002,5.72716692
233,1715673421570,1.44171822,-0.57922892,-0.145752414,-2.6653577,-1.5494597,5.6930349
234,1715673421580,1.5258003666666666,-0.4629335055555555,-0.16304475444444444,-2.8108454666666667,-1.6614007333333332,5.615327833333334
235,1715673421590,1.5753967599999998,-0.34677631999999997,-0.163924202,-2.73475204,-1.86854516,5.4360593800000006
236,1715673421600,1.5831899200000001,-0.25598444,-0.145868264,-2.45323484,-2.1014375000000003,5.20267824
237,1715673421610,1.59310512,-0.21321974400000002,-0.146996388,-2.12048126,-2.2823147300000004,5.05432944
238,1715673421620,1.6197896,-0.22092752,-0.17251006,-1.8742872000000002,-2.4058928,5.0269628
239,1715673421630,1.81555123,-0.290547435,-0.207420632,-1.4025466000000002,-2.67465819,5.266376299999999
240,1715673421640,2.14547904,-0.300676074,-0.18076665200000003,-0.9918924600000001,-2.94223246,5.795187
241,1715673421650,2.6770159,-0.20458511000000001,-0.14333154,-0.8386416499999999,-3.02996805,6.2511367
242,1715673421660,2.980505733333333,-0.1312813703333333,-0.12403163333333334,-0.8210029,-3.0398183,6.4431014
243,1715673421670,3.58602624,0.060637685600000005,-0.031721363,-1.06550175,-3.0024790500000003,7.0025772
244,1715673421680,4.1967936,0.403560136,0.11648240700000001,-1.27973216,-2.92332618,7.223267559999999
245,1715673421690,4.5399111,0.77785027,0.263930037,-1.50211762,-2.8346286399999996,7.267433199999999
246,1715673421700,4.8421787,1.3122839,0.510865179,-1.9187583,-2.6608985599999997,7.0121068
247,1715673421710,4.964463288888889,1.721109888888889,0.7673753888888889,-2.150754677777778,-2.470661511111111,6.6799473111111105
248,1715673421720,4.96566792,2.01704448,0.96036092,-2.3286182799999997,-2.1791701399999996,6.31723234
249,1715673421730,4.82340324,2.4464964399999998,1.22279697,-2.37311986,-1.7982803600000001,5.93965667
250,1715673421740,4.3528881,2.71814038,1.33354731,-2.13497398,-1.20754316,5.2662233
251,1715673421750,3.6942875666666666,2.7132545111111113,1.1790186666666667,-1.7755816444444443,-0.7426933666666666,4.610301755555556
252,1715673421760,3.2747947500000003,2.6884495,1.028474665,-1.0104474749999999,-0.46922084999999997,3.897473
253,1715673421770,2.8489161,2.7288787500000002,0.8757523150000001,-0.20305161399999996,-0.4005138,3.3892025400000003
254,1715673421780,2.5548563399999997,2.77776583,0.77218528,0.6486472580000001,-0.39130501500000003,2.815371
255,1715673421790,2.1404161999999998,2.682907222222222,0.6403422555555556,1.4642100555555555,-0.35740708888888884,1.8243491
256,1715673421800,1.81178858,2.544929,0.556934952,1.57621558,-0.305524264,1.2804346599999998
257,1715673421810,1.41113717,2.39184074,0.498236384,1.42522495,-0.25193610499999997,0.95038415
258,1715673421820,1.1012228,2.2908044,0.5029562,0.8184067,-0.07971791,0.6221663
259,1715673421830,0.7132124,2.221532,0.44594067,0.026725354,0.14950927,0.4709771
260,1715673421840,0.35224006399999996,2.31051275,0.397059756,-1.2720352646,0.43392811600000003,0.231044513
261,1715673421850,0.16025324,2.3793461,0.37520483,-1.8843666,0.608116315,-0.195400525
262,1715673421860,-0.11897713466666666,2.3963661,0.38924359444444445,-1.7874086888888892,0.6923987555555555,-0.7347012111111112
263,1715673421870,-0.300871218,2.29849992,0.370631386,-1.1988230500000001,0.74021595,-1.4357624
264,1715673421880,-0.40738962999999995,2.13980766,0.282662836,-0.534507075,0.6666830499999999,-2.05052195
265,1715673421890,-0.496785094,2.00953184,0.234696632,-0.14056008664000003,0.506346196,-2.53884766
266,1715673421900,-0.5475726066666666,1.9272059000000001,0.28093104,-0.021176662,0.3663324777777778,-3.0271767
267,1715673421910,-0.5338603890000001,1.85885231,0.35935025,-0.07967209900000001,0.371207522,-3.36702814
268,1715673421920,-0.495717925,1.78384188,0.40610298,-0.194194064,0.491441104,-3.7191614
269,1715673421930,-0.336800131,1.6598286899999999,0.41420712899999995,-0.31859678999999996,0.695851897,-4.074898899999999
270,1715673421940,-0.15274603777777776,1.631490911111111,0.4271319822222222,-0.37782015999999996,0.9348104788888888,-4.443892000000001
271,1715673421950,0.18580353,1.6930256499999998,0.52378057,-0.269086135,1.1508701000000001,-4.8077385
272,1715673421960,0.33799535,1.7146610599999998,0.561392512,-0.1811215377,1.2598026299999998,-4.99984013
273,1715673421970,0.8825447333333334,1.7729626444444444,0.5762192155555556,0.13433945055555557,1.5579099666666667,-5.595882122222223
274,1715673421980,1.18760588,1.81310584,0.561825444,0.339060756,1.6900197399999999,-6.08000288
275,1715673421990,1.42620516,1.82565526,0.5571666639999999,0.447779496,1.74893774,-6.45947214
276,1715673422000,1.8007698,1.7708471799999999,0.638720185,0.43705881599999996,1.8798308600000002,-6.9734237100000005
277,1715673422010,2.1233488222222223,1.7448714333333333,0.73272565,0.3107607355555555,2.0667268,-7.278697066666666
278,1715673422020,2.2703762,1.7654077999999997,0.8035835,0.17012598,2.2269092,-7.36734
279,1715673422030,2.8240917199999998,2.01819096,1.06598907,-0.21875084,2.89201932,-7.32607644
280,1715673422040,3.1823334777777776,2.247563411111111,1.180366988888889,-0.3443243866666667,3.5110498000000003,-7.171354466666667
281,1715673422050,3.53253536,2.53368442,1.20230184,-0.241841556,3.8522689,-7.16325028
282,1715673422060,3.930961,2.7563497999999997,1.30550295,0.234205732,4.0916669,-7.4575039599999995
283,1715673422070,4.1046359,2.73114706,1.3587987700000002,0.725158138,4.19497958,-7.75291828
284,1715673422080,4.18435,2.4930520333333335,1.3801822,1.3545428,4.245309866666667,-7.943131533333333
285,1715673422090,4.1113132,2.07010866,1.35960376,2.13531004,4.276179000000001,-7.8107979599999995
286,1715673422100,3.92670472,1.63943716,1.2676348999999998,2.8430586,4.23748048,-7.313767400000001
287,1715673422110,3.68887378,1.33018746,1.17508072,3.3681278399999997,4.09380522,-6.6464886000000005
288,1715673422120,3.5728914999999994,1.226718,1.156165,3.5607336,3.9874230000000006,-6.249915
289,1715673422130,3.29222241,0.898125604,1.13541992,3.50129636,3.94388352,-5.2854656
290,1715673422140,2.9956014,0.66778284,0.9735934,3.07480543,4.0275264,-4.2852044000000005
291,1715673422150,2.5911877,0.35197175,0.545306215,2.31569842,3.78681468,-3.6856249400000003
292,1715673422160,2.291373533333333,-0.05797087333333333,0.41963831,2.0167206,3.5890877999999997,-3.6651915000000006
293,1715673422170,1.80311737,-0.730420692,0.268729096,1.7669582600000002,3.4309247,-3.72921014
294,1715673422180,1.3654577399999999,-1.4953555600000001,-0.006805277999999995,1.74960972,3.2337068,-3.42157834
295,1715673422190,1.087209812,-1.95412626,-0.24692905199999998,1.9465221,2.80906375,-2.4996606
296,1715673422200,0.8833171677777778,-2.2172906555555554,-0.45032438333333336,2.117309866666667,2.4252367444444447,-1.7456323555555557
297,1715673422210,0.759391877,-2.37449217,-0.5829852,2.29754056,1.8230968099999998,-0.6942178434
298,1715673422220,0.7299389030000001,-2.38436476,-0.578692304,2.20635356,1.307725063,0.19937114939999998
299,1715673422230,0.7481534,-2.2673396400000003,-0.548483226,1.6869654600000001,0.802340944,1.1539245
300,1715673422240,0.7712577466666667,-2.1209843333333334,-0.48453371,0.9469768822222222,0.4505640088888889,1.7333980333333332
301,1715673422250,0.7997295959999999,-2.01042216,-0.45652666000000003,0.06438518800000001,0.22763892879999997,2.03167674
302,1715673422260,0.78249145,-1.9533998555555554,-0.44231579444444447,-0.82527894,0.042913284,2.1933117
303,1715673422270,0.7200846750000001,-1.87410932,-0.35837458099999997,-1.7101631000000002,-0.16407840299999998,2.4299762100000004
304,1715673422280,0.6913330400000001,-1.8136057399999999,-0.29991994,-2.3083987200000005,-0.339671618,2.7678608999999996
305,1715673422290,0.7018397500000001,-1.7321132,-0.295840435,-2.5873198499999996,-0.56390496,3.1362585
306,1715673422300,0.7358600200000001,-1.6692315199999999,-0.30109073999999997,-2.6621508,-0.75231104,3.3691967000000007
307,1715673422310,0.8095729511111112,-1.5829920777777777,-0.28721188999999997,-2.710918077777778,-1.0907507666666667,3.731012266666667
308,1715673422320,0.9030160479999999,-1.4504626200000001,-0.22617173,-2.728613,-1.4950621800000001,4.1431017400000005
309,1715673422330,1.0339153111111112,-1.276233011111111,-0.13067835222222224,-2.7202847777777777,-1.7903611666666666,4.458077655555556
310,1715673422340,1.1763369000000001,-1.07801414,-0.051051759200000005,-2.70407144,-1.99227588,4.650914299999999
311,1715673422350,1.2773848222222222,-0.9089216444444445,-0.039561928333333336,-2.7055560666666665,-2.1465804555555557,4.732322
312,1715673422360,1.34258438,-0.800211375,-0.061119416,-2.7212823999999998,-2.3474328800000004,4.686955
313,1715673422370,1.3821537,-0.74211645,-0.08976133,-2.717434,-2.4627032,4.636009
314,1715673422380,1.3492616,-0.666368156,-0.042295152200000005,-2.52424795,-2.7454575,4.5789695
315,1715673422390,1.323654422222222,-0.6153814333333334,-0.012134854611111112,-2.3900271888888884,-2.813933688888889,4.600171811111111
316,1715673422400,1.33018738,-0.5437756119999999,-0.00013415419999999995,-2.00611207,-2.85956719,4.7520583
317,1715673422410,1.39663636,-0.44878838400000004,-0.0195316276,-1.54587088,-2.87320473,5.03519433
318,1715673422420,1.4800863,-0.33392194,-0.058418043,-1.148562388888889,-2.8800598444444443,5.333481555555555
319,1715673422430,1.5926477700000001,-0.17301009399999998,-0.11236631189999999,-0.9010262499999999,-2.8965702,5.5083246
320,1715673422440,1.87337764,0.114866459,-0.1474659244,-0.671310337,-2.91778263,5.5169380199999996
321,1715673422450,2.223049711111111,0.2564716055555556,-0.17166313555555554,-0.8127901344444444,-2.8343129111111107,5.285087344444444
322,1715673422460,2.3587961,0.24983165000000002,-0.17891288,-1.055162805,-2.77749731,5.223966819999999
323,1715673422470,2.9161031800000003,0.32091506999999997,-0.017909579999999998,-1.54211408,-2.73731771,5.44203049
324,1715673422480,3.5783931777777775,0.6666039555555555,0.3835454355555556,-2.1377229888888887,-2.703299355555556,6.170723
325,1715673422490,4.12572844,1.0729406799999999,0.841719838,-2.66163156,-2.57317818,6.8688438000000005
326,1715673422500,4.6276174,1.5107101,1.3055395600000002,-3.14928528,-2.23749246,7.31315673
327,1715673422510,5.073467,1.9633461999999997,1.6906475,-3.4396296,-1.7683022,7.4140716
328,1715673422520,5.3285062000000005,2.2910726,1.8558765400000001,-3.4658966399999995,-1.5025758,7.283957200000001
329,1715673422530,5.695430119999999,3.08378974,1.91103834,-2.8513205,-0.663048434,6.0459931099999995
330,1715673422540,5.1157255,3.18628345,1.69851375,-1.00609505,-0.53114732,4.24047385
331,1715673422550,4.455083777777777,2.984943888888889,1.4819835333333333,0.05635232000000001,-0.5236642233333333,3.5589008333333334
332,1715673422560,3.7725980800000003,2.7156951200000004,1.164958296,1.28396238,-0.50900346,2.9456685499999997
333,1715673422570,2.99039402,2.37989488,0.7535195800000001,1.9865948800000002,-0.601732802,2.58887756
334,1715673422580,2.2780055444444445,2.0642058000000003,0.4728798844444444,2.4499090555555556,-0.7539434722222222,2.2434536666666665
335,1715673422590,1.72936925,1.77900635,0.283156775,2.1857522,-0.734030975,2.0669389999999996
336,1715673422600,1.4710614499999999,1.6357662300000002,0.1610215927,1.7776941499999999,-0.667706279,2.0385795399999997
337,1715673422610,0.9704089999999999,1.4365540222222224,-0.03694660011111111,0.73288555,-0.6547966433333333,2.114934288888889
338,1715673422620,0.6516356080000001,1.4256685199999999,-0.0374412088,-1.013792,-0.705915906,2.2727853
339,1715673422630,0.411243532,1.4821840400000001,0.0394047408,-2.0447493,-0.798095455,2.2775348099999997
340,1715673422640,0.0898589088,1.58453148,0.225952212,-2.65885208,-0.9367618799999999,2.17574932
341,1715673422650,-0.0961275628,1.6959038800000001,0.37918065,-2.6260486,-1.02518464,2.0041266799999997
342,1715673422660,-0.20749178222222223,1.836733122222222,0.49511017333333335,-2.0624507333333333,-1.0192286488888889,1.6560726555555556
343,1715673422670,-0.29874913,1.9682976799999998,0.5681794840000001,-1.2166145,-0.92271193,1.03808915
344,1715673422680,-0.43050073199999994,2.051888,0.62748782,-0.579252975,-0.7733554,0.33887749894999997
345,1715673422690,-0.5660696433333334,2.0248743,0.6515827233333333,-0.32918848733333334,-0.6635863288888888,-0.08436727964444445
346,1715673422700,-0.688723131,1.9488148200000002,0.661215419,-0.11519391139999999,-0.42035163100000006,-0.82472919
347,1715673422710,-0.820389356,1.8741337999999998,0.640512988,-0.070585476,-0.16435329680000002,-1.38496902
348,1715673422720,-0.8910140422222221,1.8131004000000002,0.5689017222222222,-0.004886922333333335,0.07895433466666667,-1.8432859
349,1715673422730,-0.88024039,1.7614623999999999,0.48200984,0.058337633,0.17577648,-2.0867157
350,1715673422740,-0.7480131699999999,1.8002269000000002,0.530652932,0.227104433,0.32617149100000004,-2.5575705999999996
351,1715673422750,-0.47601693333333334,1.849559122222222,0.5781706066666668,0.49013453222222225,0.6094229333333333,-3.1448190555555553
352,1715673422760,-0.26560085440000003,1.84938838,0.554093324,0.691346762,0.8105876399999999,-3.62032334
353,1715673422770,0.010061556999999999,1.8185513,0.5357934999999999,0.88186035,1.00838575,-4.235052550000001
354,1715673422780,0.22641565333333333,1.7727864,0.51952222,0.9539169800000001,1.1487829333333333,-4.601037333333333
355,1715673422790,0.514237328,1.7082703600000002,0.481820804,0.977109484,1.3259746399999999,-4.96908332
356,1715673422800,0.66278255,1.6855861,0.45825842000000006,0.9673051000000001,1.4143058,-5.1972413
357,1715673422810,0.93706685,1.6114355,0.44075742,0.9431759,1.5016595,-5.553223
358,1715673422820,1.10683281,1.5877267800000001,0.44036717999999997,0.93181382,1.5276823,-5.729641
359,1715673422830,1.46387201,1.64233352,0.470320131,0.8630609850000001,1.5153276,-6.0860502
360,1715673422840,1.7547974400000002,1.7503095299999998,0.576277521,0.552069464,1.53214166,-6.48784706
361,1715673422850,2.124866488888889,1.9103147555555557,0.8504493777777777,-0.11981442222222222,1.8483933666666665,-6.960724633333333
362,1715673422860,2.3737971,2.1011592,1.1237850999999999,-0.66958465,2.22660385,-7.1378841500000005
363,1715673422870,2.596615,2.33853892,1.4588899999999998,-1.08999742,2.63820488,-7.16774008
364,1715673422880,2.9266707199999997,2.6274704,1.8824269,-1.3467746200000001,3.13224214,-7.10475982
365,1715673422890,3.4049615777777777,2.913266277777778,2.2828296666666668,-1.291895111111111,3.7658146444444447,-7.0807937222222215
366,1715673422900,3.8229610199999997,3.0887718,2.5366236399999997,-0.9908539700000001,4.28731199,-7.189425900000001
367,1715673422910,4.0493217,3.082497,2.5884438,-0.6374379,4.525595,-7.361537
368,1715673422920,4.206559888888888,2.834840288888889,2.6630754666666667,0.32036489011111113,5.0079243,-7.677676777777778
369,1715673422930,4.2872562,2.2234163,2.31268985,1.4003475300000001,5.34070334,-7.768953450000001
370,1715673422940,3.99591018,1.362768485,1.51140536,3.18992316,4.964288000000001,-7.32766485
371,1715673422950,3.4961658222222223,0.6082400777777778,0.8119511777777778,4.363274777777778,4.2254396,-6.671751555555556
372,1715673422960,3.1145229999999997,0.32734836,0.560996136,4.58310822,3.3998010199999995,-5.5783906000000005
373,1715673422970,2.7910895,0.15727746199999998,0.507810092,3.8048963799999997,3.0079005000000003,-4.2489342
374,1715673422980,2.629082755555556,-0.028904123333333333,0.4770332433333334,2.4553049222222225,3.122624511111111,-3.1528282444444446
375,1715673422990,2.32167204,-0.45525827999999996,0.134190756,0.16362026000000002,3.5975076200000005,-2.2700058800000003
376,1715673423000,1.9826034199999998,-0.6891255700000001,0.0011586019999999988,-0.85325658,3.7608224399999997,-2.13665394
377,1715673423010,1.60450829,-0.97123345,-0.145941448,-1.0589654520000003,3.6992013900000003,-1.9966894199999998
378,1715673423020,1.3478836,-1.2632444,-0.2804432,-0.69913524,3.444669,-1.7673858
379,1715673423030,1.1887889,-1.6987577999999999,-0.4318544999999999,0.334723614,2.92815198,-1.2565039500000001
380,1715673423040,1.1297813777777779,-2.122122311111111,-0.7716439500000001,2.06262036,1.9610641111111111,-0.040045606666666664
381,1715673423050,1.2003444,-2.2044577,-0.944628275,2.9232956000000003,1.10557448,1.099251996
382,1715673423060,1.29402674,-2.1701020800000004,-0.9177364600000001,2.5825245199999998,0.67418142,1.7277406800000001
383,1715673423070,1.3823123800000001,-2.08493862,-0.763629932,1.52496404,0.48246136,2.15268906
384,1715673423080,1.3900505500000002,-1.9986532000000001,-0.637903095,-0.16959144999999998,0.6285803249999999,2.2718842
385,1715673423090,1.3123326333333334,-2.0061943,-0.6422935733333333,-1.4163928666666665,0.7441357000000001,2.2453879333333333
386,1715673423100,1.122596,-2.1158247,-0.7329391,-2.5322655,0.584827135,2.3415991000000003
387,1715673423110,1.018095952,-2.1946281,-0.792192588,-2.7957164,0.22861631799999999,2.64684848
388,1715673423120,0.92389536,-2.2789745,-0.84614694,-2.771801,-0.06001751000000001,2.9177978
389,1715673423130,0.893649712,-2.31317154,-0.9271760280000001,-2.471011,-0.580108222,3.4063678000000004
390,1715673423140,1.0415242,-2.18498122,-0.84184178,-1.7332232600000002,-1.61836533,4.3952669900000005
391,1715673423150,1.2684277,-1.9958482,-0.6418057,-1.1097895,-2.463925,5.307961
392,1715673423160,1.5882390000000002,-1.7067824600000001,-0.48646739399999994,-1.09792337,-2.69110571,5.9324637
393,1715673423170,1.7626163777777777,-1.5429626333333335,-0.4438538222222222,-1.2680883111111112,-2.6684969555555558,6.150259044444444
394,1715673423180,1.9621266800000001,-1.21411962,-0.440574496,-1.7867808,-2.5677720400000004,6.3645438400000005
395,1715673423190,2.03858244,-0.9975338,-0.463600236,-2.0014083200000004,-2.5736974,6.4039448000000005
396,1715673423200,2.16495568,-0.6931746000000001,-0.47042989999999996,-2.1354933199999997,-2.7721066,6.4779816
397,1715673423210,2.2771586,-0.5287706988888888,-0.4377897866666667,-2.071070822222222,-2.9437766555555553,6.542824888888889
398,1715673423220,2.45252731,-0.30159685999999997,-0.405377279,-1.74431038,-3.19600119,6.561914300000001
399,1715673423230,2.6064935,-0.11945818999999999,-0.39538893,-1.3993396,-3.4193182,6.535189
400,1715673423240,2.8911714111111113,0.18210412555555555,-0.33942360555555556,-1.0106595777777778,-3.8244914888888886,6.224021222222222
401,1715673423250,3.04683634,0.293578116,-0.279004094,-1.07124384,-3.9462505,6.0926173
402,1715673423260,3.21976096,0.37366815,-0.10622571399999998,-1.4175739,-4.022639320000001,5.988739539999999
403,1715673423270,3.4135664444444442,0.4500736744444444,0.19628516333333335,-2.0117659555555556,-4.021444677777778,5.953831977777778
404,1715673423280,3.553317,0.471856798,0.47201533599999995,-2.2231218999999998,-3.97062405,6.0405715099999995
405,1715673423290,3.8124785,0.565703725,0.8526106849999999,-2.33755215,-3.78484475,6.4564638
406,1715673423300,4.074621909999999,0.781350445,1.1201872800000001,-2.23729395,-3.58646635,6.89834865
407,1715673423310,4.374029144444444,1.1888430888888888,1.396775311111111,-2.154182311111111,-3.432638555555555,7.101766822222222
408,1715673423320,4.56592506,1.64209578,1.6218507800000002,-2.1176712199999996,-3.211853,7.0829517300000004
409,1715673423330,4.6873465,2.2369597,1.8769386999999997,-2.0691533,-2.676506,6.692334
410,1715673423340,4.3712611,2.87366155,2.06211414,-1.6872403999999999,-1.9936808899999998,5.707176540000001
411,1715673423350,3.695215444444445,3.2131617555555554,2.038235388888889,-0.85831662,-1.3513357666666665,4.660783088888889
412,1715673423360,3.1635077,3.2498849,1.90947125,0.12226467799999999,-0.85246248,3.93879802
413,1715673423370,2.5826202,3.1966805999999997,1.5858243,1.18486479,-0.23487768400000003,3.285783
414,1715673423380,2.1644983200000003,3.1203224499999997,1.20813761,1.95263076,0.24375050599999998,2.8026192599999997
415,1715673423390,1.71094124,3.07099632,0.722603162,2.4681094,0.522228724,2.1561405799999998
416,1715673423400,1.5662498,3.0608494,0.58698547,2.5266914,0.5491679,1.9527835
417,1715673423410,1.2373418444444446,2.9654779555555555,0.3509689788888889,2.1040065555555554,0.5595525844444444,1.1405023777777776
418,1715673423420,1.0306699,2.9137676,0.19830425,1.5949692,0.5459608,0.59421915
419,1715673423430,0.77377686,2.83233607,0.14006915,0.50388747,0.52838314,-0.13156510400000002
420,1715673423440,0.6377811,2.7250981,0.12086072,-0.3791946,0.6052147,-0.6366743
421,1715673423450,0.54707122,2.6690310999999998,0.12234454155555557,-0.4714352555555556,0.6105767444444444,-0.7063808222222223
422,1715673423460,0.33408048,2.56558882,0.22736692600000002,-1.25877946,0.6335589,-1.69493732
423,1715673423470,0.201767874,2.47575428,0.36975326799999997,-1.2106127399999997,0.62066964,-2.55253096
424,1715673423480,0.114067638,2.41421408,0.50398062,-0.9079290799999999,0.69207978,-3.0173383
425,1715673423490,0.141136285,2.3893467,0.561008365,-0.55138225,0.8491790700000001,-3.4910948499999996
426,1715673423500,0.2898678688888889,2.3630918555555556,0.5394488444444444,-0.24690833111111113,0.994726188888889,-3.9999626666666663
427,1715673423510,0.40874337999999993,2.3481858,0.5053344,-0.0651640505,1.0726335500000002,-4.3861654
428,1715673423520,0.7624834999999999,2.2390636200000005,0.438787799,0.185275432,1.14983162,-5.1800762
429,1715673423530,0.9844205111111111,2.145653744444444,0.4470653777777777,0.23893315777777774,1.1998920444444445,-5.552867
430,1715673423540,1.35258499,2.05977259,0.530244355,0.17486018,1.345278,-6.017939
431,1715673423550,1.8429429,2.1209774,0.656471225,-0.27655397800000003,1.88248818,-6.443146850000001
432,1715673423560,2.233964988888889,2.2162336666666667,0.7739950333333333,-0.5745866444444445,2.2388550444444446,-6.6860048333333335
433,1715673423570,2.68402236,2.2937192,0.96581242,-0.7594276600000001,2.6466958000000003,-6.983564200000001
434,1715673423580,3.18024648,2.3265258799999997,1.17140974,-0.738322258,3.2044464000000006,-7.3833755
435,1715673423590,3.6636591000000003,2.23388025,1.2899227999999998,-0.5006040649999999,3.8131735499999997,-7.857407
436,1715673423600,3.9547226666666666,2.0503634666666666,1.292819333333333,-0.24113906699999996,4.202396433333333,-8.206974666666667
437,1715673423610,4.2324968,1.72867404,1.23989554,0.1297172352,4.60094524,-8.586596799999999
438,1715673423620,4.34629028,1.3949595,1.1623849,0.7482183000000001,4.92277974,-8.9473432
439,1715673423630,4.3314114,1.1149431,1.0560373,1.3593279,5.0362787,-9.144652
440,1715673423640,4.136765680000001,0.608450148,0.7690937,2.95695428,4.801675919999999,-9.240253200000001
441,1715673423650,3.7815317,0.15284427665,0.480089,4.5926375,4.0485095,-8.9953725
442,1715673423660,3.51488794,-0.04741740002,0.346178732,5.1213415,3.53339735,-8.637176499999999
443,1715673423670,3.394954,-0.125861,0.29202923,5.240613,3.3137912999999997,-8.415738
444,1715673423680,3.047623633333333,-0.14750182444444443,0.2112250522222222,4.813720055555556,2.687908911111111,-7.276677666666667
445,1715673423690,2.88683928,-0.17041238399999997,0.1381056182,4.3638990799999995,2.4407730800000005,-6.719242799999999
446,1715673423700,2.65183166,-0.299206484,0.0301420036,3.56937718,2.13677603,-5.97459822
447,1715673423710,2.4074576,-0.39734024,-0.029148044,3.03936,1.9000963,-5.4939694
448,1715673423720,2.298210088888889,-0.4090482488888889,0.021749237777777777,2.644266,1.7741223444444443,-5.1345089999999995
449,1715673423730,2.01495295,-0.522512196,0.13838612179999998,1.3046707000000002,1.57378735,-3.8131430899999996
450,1715673423740,1.8670722999999998,-0.8302557799999999,-0.00047563760000000064,0.2335643,1.41800154,-2.752009
451,1715673423750,1.7428761000000002,-1.22510195,-0.096377575,-0.44272459499999994,1.1614839499999998,-2.1346685
452,1715673423760,1.6220459,-1.5267353666666665,-0.15244792,-0.6758036155555556,0.9030455000000001,-1.6788952333333333
453,1715673423770,1.4136801,-1.78687255,-0.22873285499999998,-0.5763513600000001,0.5560400750000001,-1.1352167249999998
454,1715673423780,1.219126,-1.9370338500000002,-0.309560735,-0.351919472,0.20625864600000005,-0.556528766
455,1715673423790,1.0303650000000002,-2.14951565,-0.3895959,-0.217590196,-0.258762512,0.28664851599999996
456,1715673423800,0.9117267000000001,-2.335651111111111,-0.3805574288888889,-0.4480696533333334,-0.66996644,1.1549425666666666
457,1715673423810,0.8629955,-2.42867217,-0.302950591,-1.03002569,-0.946535678,2.12142813
458,1715673423820,0.875221842,-2.45788124,-0.20951832600000003,-1.7535803399999998,-1.0845607,3.1064025
459,1715673423830,0.9442489088888889,-2.4480627999999998,-0.1705180788888889,-2.188815122222222,-1.1378892333333335,3.7685804555555555
460,1715673423840,1.1619885699999999,-2.3781081,-0.175059,-2.80009942,-1.3248598,5.0566510000000005
461,1715673423850,1.4077773,-2.2671077200000003,-0.16479010600000002,-2.9188668200000003,-1.6074308,5.95217934
462,1715673423860,1.8240495222222224,-2.0605470555555554,-0.12171441666666667,-2.649678944444444,-2.0205386666666665,6.887794166666667
463,1715673423870,2.01948983,-1.92605148,-0.1322394222,-2.2460293200000003,-2.3617272399999996,7.3530766
464,1715673423880,2.30919572,-1.72194198,-0.166717036,-1.6973806799999998,-2.744587,7.7362418
465,1715673423890,2.50953059,-1.5801653999999998,-0.140154508,-1.25412156,-2.98199977,8.02808255
466,1715673423900,2.7483039888888885,-1.3394887,-0.033735029444444446,-0.8865690933333333,-3.1250847777777775,8.506824333333334
467,1715673423910,2.9095843799999996,-1.14981098,0.015135029,-0.793880476,-3.0323656,8.890807599999999
468,1715673423920,3.09116806,-0.9247856639999998,0.015305770799999998,-0.8786685760000001,-2.84476888,9.2315788
469,1715673423930,3.2158461000000003,-0.752062204,-0.0155984707,-0.996336496,-2.7344161,9.3941456
470,1715673423940,3.627793066666667,-0.14639065666666665,-0.11092110399999999,-1.3621785666666666,-2.6153686,9.347206
471,1715673423950,3.7888430799999995,0.204975378,-0.11822640799999999,-1.7695849499999998,-2.5292874700000003,8.925108499999999
472,1715673423960,3.8931453428571428,0.4907516357142857,-0.14274352285714284,-2.3649211285714284,-2.4661939,8.282351171428571
473,1715673423970,3.84761486,0.7533366300000001,-0.1507649037,-2.6699392200000003,-2.57134564,7.84393718
474,1715673423980,3.6094789,1.0911123999999999,-0.0205743696,-2.7013683,-2.87812212,7.209309639999999
475,1715673423990,3.4445913,1.1601896,0.07079682,-2.5558603,-3.060893,6.826419
476,1715673424000,3.13020694,1.02301097,0.34753857,-1.9252639999999999,-3.43367364,6.1000392
477,1715673424010,3.0153101999999996,1.096125,0.610474656,-1.6664556799999999,-3.4432947,6.03690624
478,1715673424020,2.942346677777778,1.4330511222222222,0.8149595,-1.6679506000000002,-3.2889324888888885,6.091751933333334
479,1715673424030,2.88769291,1.9083248099999999,0.97941083,-2.13308038,-3.03598503,6.00410271
480,1715673424040,2.8163228,2.3210502,1.112077,-2.6656632,-2.8727465,5.8413987
481,1715673424050,2.5475537,3.1387603555555557,1.5066122444444445,-3.440766455555556,-2.6311493222222224,4.763646022222222
482,1715673424060,2.32351358,3.39100276,1.72779584,-3.4956153999999997,-2.4871989,3.9293908200000005
483,1715673424070,2.01820316,3.61218638,1.9705660999999999,-3.1116865000000002,-2.30480985,3.1932828
484,1715673424080,1.79206808,3.78558662,2.11594048,-2.5016152,-2.05464536,2.57687402
485,1715673424090,1.6030881555555554,3.9563687888888888,2.1750727333333333,-1.89918,-1.829236,2.0042489
486,1715673424100,1.45866439,4.096555990000001,2.2977438,-1.50549263,-1.4366329,1.052215419
487,1715673424110,1.36229902,4.2021722,2.46283886,-1.53409642,-0.95722588,0.22846360400000001
488,1715673424120,1.3236139,4.229881,2.5980175,-1.7481437,-0.3463606,-0.5180137
489,1715673424130,1.3941301,4.16020007,2.53522103,-1.8708969500000001,0.46552511,-1.31728507
490,1715673424140,1.533748,4.0264544,2.3635526,-1.7180585000000002,1.122923,-2.0494528
491,1715673424150,1.9592911499999999,3.6111557,2.09387215,-0.74830991,1.9469038,-3.41443135
492,1715673424160,2.2409301888888886,3.2898124444444443,1.9426201111111112,-0.25603737555555556,2.358109477777778,-4.060964333333334
493,1715673424170,2.49001108,2.96061176,1.7755425800000002,0.10818423799999999,2.78212466,-4.5809090800000005
494,1715673424180,2.7506970600000002,2.62100668,1.5591275199999999,0.41928263499999996,3.3096677999999997,-5.08774395
495,1715673424190,2.99784552,2.26369306,1.24963384,0.6636745319999999,3.7424659,-5.47436066
496,1715673424200,3.1394038666666666,2.0320833444444446,1.0219701555555556,0.8930680444444445,3.968146611111111,-5.6946387000000005
497,1715673424210,3.25422632,1.8220696799999998,0.78953386,1.25166296,4.105044919999999,-5.86058018
498,1715673424220,3.298607,1.7162586,0.6570505,1.5293012,4.1460953,-5.9342504
499,1715673424230,3.33830446,1.53637623,0.36303336,1.9305785,4.0413318799999995,-6.01448756
500,1715673424240,3.3046562899999996,1.35332896,0.0606803691,2.4912764199999997,3.70822698,-6.15359679
501,1715673424250,3.2189316399999996,1.23880398,-0.0672356284,2.5981930600000003,3.44631844,-6.29860112
502,1715673424260,3.0723439000000003,1.017742285,-0.1114089425,2.15039835,3.3255504,-6.502049700000001
503,1715673424270,3.0183468,0.9254198700000001,-0.12250715500000002,1.6312138,3.4040974666666663,-6.573419133333334
504,1715673424280,2.8750945199999998,0.7645445879999999,-0.16220458399999999,0.92072667,3.57718106,-6.611440480000001
505,1715673424290,2.7729544400000004,0.664624128,-0.19926771999999998,0.421665008,3.755798,-6.590915150000001
506,1715673424300,2.7007430799999996,0.569960092,-0.258173604,0.287015036,3.84078468,-6.52364374
507,1715673424310,2.629977333333333,0.43140727111111116,-0.36867326666666667,0.46441029333333333,3.817347866666667,-6.363128633333333
508,1715673424320,2.59694408,0.334495116,-0.46019756800000006,0.70504535,3.70392034,-6.26225451
509,1715673424330,2.55058804,0.26072250599999997,-0.504578226,1.15859751,3.38578178,-6.140722909999999
510,1715673424340,2.4795145333333335,0.11953949133333332,-0.47250723333333333,1.9269744666666666,2.7029259000000003,-6.0909373
511,1715673424350,2.41882406,-0.0104884168,-0.383351624,2.257025,2.32040216,-6.136844000000001
512,1715673424360,2.31254954,-0.20728038,-0.22965974399999997,2.42153092,2.01063232,-6.2154012000000005
513,1715673424370,2.20797016,-0.43039094,-0.11786053599999999,2.40134188,1.85696928,-6.18412508
514,1715673424380,2.106654011111111,-0.6049404222222222,-0.07547188111111111,2.3015536,1.7880196,-6.048159877777778
515,1715673424390,1.9760421799999999,-0.79450978,-0.07221153,2.11619,1.67273234,-5.6900874
516,1715673424400,1.92864918,-0.9118092600000001,-0.0709065756,1.9796615799999997,1.5034004800000003,-5.276776
517,1715673424410,1.90617216,-0.9929359400000001,-0.06465011239999999,1.8771736,1.3153303900000002,-4.899307
518,1715673424420,1.8728462888888886,-1.0414496111111111,-0.057808254444444436,1.8002028555555556,1.1670241,-4.634176044444445
519,1715673424430,1.79616582,-1.1098331,-0.025806386000000004,1.6588197700000002,0.957607582,-4.25608134
520,1715673424440,1.63310754,-1.13483454,0.065637974,1.4947871999999998,0.798125984,-3.8300946000000002
521,1715673424450,1.4880198,-1.15023786,0.12458044099999999,1.43444904,0.749333108,-3.51575865
522,1715673424460,1.3151377333333334,-1.1969533222222222,0.16200809777777778,1.4500074333333335,0.7367713777777778,-3.096136566666667
523,1715673424470,1.2194004200000002,-1.2379991000000001,0.172290536,1.4880372000000002,0.73157223,-2.75915612
524,1715673424480,1.04280474,-1.27805014,0.184071712,1.57441356,0.756678794,-2.06582404
525,1715673424490,0.9041381133333333,-1.281904011111111,0.14704109999999998,1.6133969666666668,0.8004880066666666,-1.6572265
526,1715673424500,0.8066690380000001,-1.3088568200000001,0.0709797504,1.6009250899999998,0.84600253,-1.19839546
527,1715673424510,0.7702279,-1.3401392,0.013903250999999998,1.5378532,0.8576548,-0.8535315
528,1715673424520,0.747885096,-1.39356916,-0.09007842400000002,1.35189061,0.816955903,-0.208747917
529,1715673424530,0.720225,-1.4205706,-0.15055756,1.2341005,0.77091193,0.2751948
530,1715673424540,0.702833722,-1.4241928400000001,-0.23002561,0.90948668,0.6253121800000001,1.4012943199999999
531,1715673424550,0.693101422,-1.38246479,-0.23774557899999998,0.586904066,0.5351484999999999,2.1690603499999996
532,1715673424560,0.63378697,-1.36474425,-0.283095785,-0.021838424999999995,0.5015203749999999,3.1761174999999997
533,1715673424570,0.6109773644444445,-1.4113560222222223,-0.4082284288888889,-0.6097453222222222,0.3967739433333333,4.0845504
534,1715673424580,0.666563285,-1.4721591,-0.50661492,-1.22570114,0.117805364,5.07711484
535,1715673424590,0.8148767899999999,-1.51851549,-0.47786322999999997,-2.04097715,-0.34842226499999995,6.31573575
536,1715673424600,1.2454994666666666,-1.6177773333333334,-0.3317469866666667,-2.7856473333333334,-0.7398596333333333,7.428783
537,1715673424610,1.7318964333333333,-1.6642909,-0.156343813,-3.461043777777778,-1.0948911333333333,8.549245666666668
538,1715673424620,2.8650817,-1.42626614,0.18555960180000003,-4.18861144,-1.7087428,10.573253
539,1715673424630,3.424468,-1.2398894,0.37416816,-4.3870816,-1.9927951,11.468384
540,1715673424640,4.410629966666667,-0.9027559000000002,0.6240879377777778,-4.434593222222222,-2.3450608,12.536091555555556
541,1715673424650,5.4750877000000004,-0.15861902,0.9976496819999999,-4.3348832999999996,-2.69370198,13.268542400000001
542,1715673424660,6.034163,1.1139065000000001,1.3978864,-3.96225534,-2.9315117200000005,13.1594727
543,1715673424670,5.75504314,1.71510012,1.4134239000000002,-3.25731684,-2.88328396,10.811550800000001
544,1715673424680,5.280768833333333,1.863875777777778,1.3693346111111113,-2.8860328888888893,-2.7718689111111114,9.018593577777779
545,1715673424690,4.7956091,1.8615721600000001,1.3390415199999999,-2.6180768,-2.61676338,7.789203840000001
546,1715673424700,3.9547551,1.8778412799999997,1.2559879200000001,-2.11460176,-2.41194022,7.104912400000001
547,1715673424710,3.3269502,1.89419584,1.15383564,-1.59597708,-2.28045148,7.1492001599999995
548,1715673424720,3.0544465,1.8882198,1.0618912,-1.2916746,-2.1919372,7.2370734
549,1715673424730,2.8300092111111113,1.9847093111111112,0.8593861533333333,-0.8431637555555554,-2.017501288888889,7.226485133333333
550,1715673424740,2.47346136,2.27242532,0.575789672,0.114018,-1.83198494,6.765179880000001
551,1715673424750,2.0197580000000004,2.51850064,0.36876542600000006,0.728716425,-1.85299865,6.04251112
552,1715673424760,1.5094096875,2.699768825,0.27593072750000003,0.975093635,-1.9141080625,5.04376165
553,1715673424770,1.0065898333333334,2.8645438666666667,0.3015081011111111,0.4802079544444444,-1.8102822222222221,4.323364733333333
554,1715673424780,0.734750164,2.9716612,0.33689770599999996,-0.300118086,-1.625543,3.9348274000000005
555,1715673424790,0.49158016222222223,3.149506222222222,0.3796292044444444,-1.519849677777778,-1.3210809222222222,3.496287222222222
556,1715673424800,0.367222639,3.31082113,0.40944462899999995,-2.26737906,-1.127168504,3.1613955500000004
557,1715673424810,0.31265239,3.5613907600000005,0.46758216599999997,-3.02292774,-0.960463442,2.41853776
558,1715673424820,0.3585371722222222,3.6896189111111113,0.5581829766666666,-3.0235454333333336,-0.9190807277777778,1.663555688888889
559,1715673424830,0.42740297,3.7472915999999996,0.6223534,-2.6656632,-0.9106474,0.9949467999999999
560,1715673424840,0.45691693000000005,3.7035086,0.59790075,-1.4659239,-1.033584,-0.17211129
561,1715673424850,0.45799012899999997,3.44717677,0.585637825,0.15496122063,-1.3764168300000001,-1.691699769
562,1715673424860,0.5511703666666666,3.314929166666667,0.62503646,0.4797837266666667,-1.4601206333333334,-2.2810727666666666
563,1715673424870,0.821755276,3.2556167799999995,0.78236274,0.131427668,-1.3378254200000002,-2.88536098
564,1715673424880,1.16149466,3.30803448,0.97542276,-0.8790351000000001,-0.8303949500000002,-3.4508541999999998
565,1715673424890,1.4000953111111112,3.376829911111111,1.0786537111111112,-1.5480004444444446,-0.42212486000000005,-3.807455211111111
566,1715673424900,1.7192466,3.4079428,1.1025034,-2.4379632,0.23747386,-4.4629817
567,1715673424910,2.17659652,3.3751421600000002,1.22720574,-2.9280299399999996,0.892229792,-5.370208119999999
568,1715673424920,2.4712479099999998,3.2529033800000002,1.35687179,-2.763417,1.3738512,-6.08385123
569,1715673424930,2.6013105,3.1592088,1.4054478,-2.5418103,1.5905404,-6.3641467
570,1715673424940,2.848215,2.7818696,1.3209916,-1.5793921,2.191021,-6.965849
571,1715673424950,2.88925392,2.33112376,1.0328651199999999,-0.741804228,2.52351481,-7.22080912
572,1715673424960,2.836500222222222,2.094614,1.0035273555555555,-0.4534316955555556,2.7585995000000003,-7.236377555555555
573,1715673424970,2.7735034,1.83604612,0.9932408799999999,-0.48640144999999996,3.11632895,-7.049537750000001
574,1715673424980,2.7763511500000004,1.6243326,0.9477076999999999,-0.5949827400000001,3.4714249199999996,-6.67104572
575,1715673424990,2.90364515,1.5316442000000001,0.9096872000000001,-0.6076276359999999,3.85651452,-5.97591138
576,1715673425000,3.0658699333333335,1.5733031333333334,0.8645423166666667,-0.34065916199999996,4.1138721333333335,-5.2326208
577,1715673425010,3.20090011,1.7113986300000001,0.75798324,0.344528007,4.2491787,-4.6246317
578,1715673425020,3.2091629599999996,1.77592066,0.6088403760000001,0.8677646400000001,4.23302134,-4.56896674
579,1715673425030,3.124924733333333,1.7090494777777776,0.39083581111111115,1.6168076,4.1085267,-4.7632217
580,1715673425040,2.9303234799999998,1.5094844699999999,0.1144213175,2.3710734199999997,3.6127026900000003,-5.1119495100000005
581,1715673425050,2.6603991500000004,1.2378161,0.0643025325,2.5310438,3.1237358,-5.21762925
582,1715673425060,2.5484278111111114,1.110525461111111,0.05293669277777777,2.4104911666666666,3.0237320666666667,-5.194866111111111
583,1715673425070,2.32691618,0.8238529419999999,-0.0016952218,1.9124664200000001,3.02857836,-5.12308276
584,1715673425080,2.19606702,0.66353871,-0.0499419396,1.6026202999999999,3.09184869,-5.01720433
585,1715673425090,1.9530339444444442,0.4101526833333333,-0.20363654555555555,1.395029611111111,3.1283088111111113,-4.779969677777777
586,1715673425100,1.8565350500000002,0.26705827699999996,-0.292767082,1.44865171,3.02639432,-4.57724408
587,1715673425110,1.73827212,0.08659042066400001,-0.338031912,1.5645786000000002,2.82121998,-4.3309432800000005
588,1715673425120,1.6373455499999998,-0.034404446338,-0.319683282,1.6028799200000001,2.5689326200000004,-4.17889864
589,1715673425130,1.5973493,-0.116104335,-0.3181893,1.5824465,2.4959953,-4.1548
590,1715673425140,1.48015954,-0.2444837735,-0.350825342,1.46045666,2.15061222,-4.206296
591,1715673425150,1.37816582,-0.44006226000000004,-0.28867538800000003,1.31372686,1.7182723199999999,-4.337234799999999
592,1715673425160,1.3575792500000001,-0.63311622,-0.207999945,1.22362422,1.50367532,-4.3486579999999995
593,1715673425170,1.390718011111111,-0.8447783066666666,-0.13641717444444443,1.1337659,1.2626923555555554,-4.213035666666666
594,1715673425180,1.5131066,-1.0260355300000001,-0.05969860849999999,1.08706526,1.07597804,-3.96986024
595,1715673425190,1.66542039,-1.16573883,0.0221842211,1.06337897,0.9402743389999999,-3.65268401
596,1715673425200,1.8389894,-1.2881443,0.11571813333333332,1.0617856333333335,0.81387612,-3.2111150333333334
597,1715673425210,1.91581305,-1.35639015,0.22245199,1.07316806,0.75044796,-2.8307495
598,1715673425220,1.8876041399999999,-1.37503759,0.291029152,1.06414253,0.753975726,-2.59187066
599,1715673425230,1.8348023000000002,-1.3823367,0.33849534,1.0392345,0.78038037,-2.4471262
600,1715673425240,1.7125051111111111,-1.3772281,0.3433059511111111,0.9278534066666667,0.8588765222222222,-2.0442266
601,1715673425250,1.59404422,-1.3779463,0.3229091,0.8319373859999999,0.8903666319999999,-1.6936850199999998
602,1715673425260,1.4460112200000002,-1.3869955800000002,0.26497888,0.78697771,0.9380141139999999,-1.38205204
603,1715673425270,1.3093379333333335,-1.3713401444444446,0.17282850333333333,0.8900306433333333,0.945772111111111,-1.1143199888888888
604,1715673425280,1.1543965799999998,-1.32312598,0.043990372,1.12664934,0.8104349299999999,-0.68875056
605,1715673425290,1.051500344,-1.29613656,-0.03767293,1.29533976,0.647822598,-0.2468811792
606,1715673425300,0.924308671111111,-1.2796817333333332,-0.10879360777777777,1.334231477777778,0.5386134366666666,0.2555283231111111
607,1715673425310,0.8670424666666666,-1.2582984000000002,-0.14925667444444443,1.2591629666666668,0.5152648122222223,0.5766737577777779
608,1715673425320,0.8054280625000001,-1.1902523625,-0.21452471875,1.029708895,0.493464575,1.1272372750000001
609,1715673425330,0.76986197,-1.08520972,-0.29728563,0.658054594,0.44721445200000004,1.71698948
610,1715673425340,0.74327505,-1.021889,-0.32270175,0.25488353,0.39370266,2.2661574
611,1715673425350,0.7190419800000001,-0.926236956,-0.31523792,-0.36039522700000004,0.32067371,3.30704122
612,1715673425360,0.6878856733333333,-0.8745835777777778,-0.3159669266666667,-0.7169522,0.24358250666666667,4.145993555555555
613,1715673425370,0.867245705,-0.7499217949999999,-0.286632565,-1.21152904,-0.030512717999999994,5.800868159999999
614,1715673425380,1.239486982,-0.6084013199999999,-0.197889584,-1.5902044,-0.236007794,6.9545483599999995
615,1715673425390,1.8596003555555558,-0.4183916177777778,-0.07469270577777778,-2.335524511111111,-0.5507459344444445,8.700502722222222
616,1715673425400,2.371107077777778,-0.2201957911111111,0.03580832155555555,-2.996260133333333,-0.8049676644444445,9.851321444444444
617,1715673425410,3.2540557100000003,0.256350321,0.331635196,-3.9100261599999997,-1.1611937,11.1481378
618,1715673425420,3.8200399000000003,0.61103564,0.536378845,-4.6327713,-1.4434135000000001,11.994155799999998
619,1715673425430,4.243174,0.778643,0.64070815,-4.9087605,-1.5592335,12.223719
620,1715673425440,5.556763220000001,1.67530508,1.0941980020000002,-4.798957400000001,-1.99374194,12.557098400000001
621,1715673425450,5.9649332600000005,2.70742013,1.3328583100000002,-4.098814280000001,-2.3064438600000003,12.1671836
622,1715673425460,5.78288018,3.25448849,1.27702577,-2.69095304,-2.72488674,9.923597599999999
623,1715673425470,4.989620700000001,3.1702457500000003,1.0185654999999998,-1.92324814,-3.0454687799999998,7.97017276
624,1715673425480,4.434588111111111,2.8765567777777776,1.0384345555555554,-1.6409876666666667,-3.1367930333333334,6.915503466666667
625,1715673425490,3.80036796,2.57593088,1.08996604,-1.65526156,-2.9682552200000005,6.48806072
626,1715673425500,3.25867176,2.42517197,1.070282002,-1.7968753899999999,-2.6062718,6.470742680000001
627,1715673425510,2.8858634100000002,2.3931275399999996,0.9590986859999999,-1.90389896,-2.2702348999999997,6.3848856000000005
628,1715673425520,2.4385569,2.377110333333333,0.8550295466666668,-1.9584340333333334,-2.0246619666666668,5.9406642
629,1715673425530,2.1976893,2.341783,0.82876784,-1.94580434,-1.91486402,5.5412500399999995
630,1715673425540,1.5958247,2.3045857,0.8063274999999999,-1.7881553000000001,-1.8759671,5.039027
631,1715673425550,0.6721191822222221,2.3832623222222225,0.8217146777777777,-1.2442137,-1.8363627444444444,4.326130911111111
632,1715673425560,0.104249993,2.5355685800000005,0.74830588,-0.667736799,-1.7388432299999999,3.75558428
633,1715673425570,-0.5032732799999999,2.7937605999999997,0.62441446,-0.259220661,-1.7236173999999997,3.2706031199999996
634,1715673425580,-1.11661397,3.09234498,0.54398905,0.006062838500000001,-1.8055955000000001,2.4862826799999995
635,1715673425590,-1.3341937,3.3623913,0.6156457000000001,-0.34773504,-1.8700875500000003,1.8842138499999996
636,1715673425600,-1.3574775666666665,3.590453333333333,0.7534993000000001,-0.9056416888888889,-1.828166966666667,1.3234225888888889
637,1715673425610,-1.28144058,3.8077039,0.9290298800000001,-1.37997518,-1.66418022,0.791711898
638,1715673425620,-1.0142909,4.0231128,1.06807446,-1.89853867,-1.20259506,-0.172370907
639,1715673425630,-0.7965709,4.16756,1.0332919,-2.0990858,-0.8935431,-0.8713993
640,1715673425640,-0.5730334380000001,4.187195,0.82873739,-2.1277964,-0.7276932,-1.8657352
641,1715673425650,-0.1801202589,3.966536,0.628036649,-1.9224540599999997,-0.8957575200000001,-3.3944254299999996
642,1715673425660,0.11378712220000001,3.75242612,0.5861195379999999,-1.8095966399999999,-1.0421055200000002,-4.40443006
643,1715673425670,0.3757942733333333,3.5765704333333335,0.5565568533333334,-1.8590835,-0.9918754000000001,-5.0317309777777774
644,1715673425680,0.806364096,3.34850018,0.509359,-2.0880595,-0.7684073760000001,-5.630772540000001
645,1715673425690,1.1388591,3.21474864,0.539629042,-2.6247352,-0.35295794,-6.26802716
646,1715673425700,1.49605074,3.08400928,0.698370022,-3.5039535600000002,0.48759264,-6.9996606
647,1715673425710,1.6984324333333334,2.9444400333333336,0.8252920800000001,-4.033916455555556,1.317364838888889,-7.448263111111111
648,1715673425720,1.8888297399999998,2.79974264,0.959513308,-4.283784079999999,2.0940765800000003,-7.65420268
649,1715673425730,2.0538272600000003,2.6958524400000003,1.0251208059999999,-4.1738589600000005,2.8131259799999997,-7.6195664800000005
650,1715673425740,2.273940255555556,2.5417810000000003,0.9575017344444444,-3.627674022222222,3.5380465333333335,-7.481232955555555
651,1715673425750,2.57655278,2.4248366199999998,0.9290969099999999,-2.47133164,3.94005018,-7.14159511
652,1715673425760,3.1069190499999997,2.62884235,1.2261385500000002,-1.530461812,3.98247474,-6.493772440000001
653,1715673425770,3.3781849333333334,2.7457293666666667,1.3974188666666667,-0.20301089999999997,4.2351286777777775,-5.602873
654,1715673425780,3.5181626,2.52819635,1.241231,0.75380775,4.6647197,-5.3535465
655,1715673425790,3.4768614399999995,2.2344962,0.9596536199999999,1.47866042,4.78316664,-5.10561152
656,1715673425800,3.330296133333333,1.8861466,0.6970935466666667,2.2551108,4.641659733333333,-4.623689866666667
657,1715673425810,3.1363537999999997,1.55523098,0.5359276279999999,2.8301387,4.3982602,-4.06979812
658,1715673425820,3.0060534399999996,1.33593765,0.46691136499999997,3.1890678599999998,4.2169247,-3.50716069
659,1715673425830,2.900487711111111,1.10088404,0.33403709,3.2657705000000004,4.151321422222222,-2.8693188333333333
660,1715673425840,2.7549777,0.8811489299999999,0.10543297999999998,3.196047,4.0958514,-2.3580925
661,1715673425850,2.62966558,0.82181008,-0.348605691,2.8606056300000002,3.6926957699999994,-1.92224016
662,1715673425860,2.5153432222222225,0.8271553111111111,-0.4331960111111111,2.1638883444444446,2.9551454,-1.6953716444444444
663,1715673425870,2.3406364799999997,0.9242978479999999,-0.234220982,1.47230738,2.6040268400000004,-1.68192584
664,1715673425880,2.1687511111111113,0.8872468833333333,-0.02747450277777778,0.634824711111111,2.5757133333333333,-1.836328822222222
665,1715673425890,2.04477772,0.7107731509999999,0.03408125622,0.20743455600000002,2.68021721,-1.9741484799999998
666,1715673425900,1.8251064,0.32782399500000003,-0.0269527903,0.10002918400000001,2.6634335800000004,-2.15103968
667,1715673425910,1.6509804499999998,-0.04420990000000001,-0.0567411125,0.258273841,2.50440997,-2.36114678
668,1715673425920,1.5461674333333333,-0.3352228133333333,-0.07569547466666667,0.6310747333333333,2.2964460333333334,-2.5512277666666665
669,1715673425930,1.4684393,-0.573692,-0.10464026,0.8584184,2.1826215,-2.6106853
670,1715673425940,1.3003990699999999,-1.14471928,-0.24838643,1.72001326,1.6046208,-2.7039185399999996
671,1715673425950,1.29533465,-1.7360845624999999,-0.3528178225,2.44911145,0.90408055,-2.5120306
672,1715673425960,1.3976356777777776,-2.0237833333333333,-0.39637135444444443,2.598994133333333,0.5072217555555556,-2.217423911111111
673,1715673425970,1.4530421,-2.2282701499999997,-0.426152915,2.3584285,0.14251485960000002,-1.90846522
674,1715673425980,1.4517311,-2.3660933333333336,-0.41768698,1.8709274333333334,-0.035735616000000005,-1.6904677666666668
675,1715673425990,1.3889835,-2.46017405,-0.29937723000000005,0.6783964,-0.13616186000000002,-1.2921633
676,1715673426000,1.3607623400000002,-2.4529601999999997,-0.17087582484000002,-0.40561452000000003,-0.08628471,-0.9331577600000001
677,1715673426010,1.36764082,-2.32097684,0.06343052547999999,-1.9985984,0.26374105999999997,-0.3168099715
678,1715673426020,1.3717128555555556,-2.199755555555556,0.15534103222222223,-2.675895244444445,0.4814296733333333,-0.006515893777777775
679,1715673426030,1.33974284,-2.05182101,0.141160681,-3.20994414,0.6808856839999999,0.33538029700000005
680,1715673426040,1.2856847,-1.8799877000000003,0.055491040000000005,-3.3982433999999997,0.70081514,0.61590487
681,1715673426050,1.13437104,-1.69757463,-0.1129883038,-2.6842641200000004,0.18909332280000002,1.009821342
682,1715673426060,1.0685581555555554,-1.6059879888888888,-0.16757075777777775,-2.182536711111111,-0.14187345266666668,1.1945470444444444
683,1715673426070,1.0223156899999999,-1.4897577,-0.15502734099999999,-1.1760072000000001,-0.8253858270000001,1.5954121
684,1715673426080,1.03268222,-1.3391147399999999,-0.047295444400000004,-0.59024852,-1.2429275,2.0058066
685,1715673426090,1.02911492,-1.216821,0.024434352799999996,-0.4092797,-1.3503176,2.2072089
686,1715673426100,1.0263404,-1.1288464,0.04616123,-0.4262481888888889,-1.3294124444444444,2.5806512111111113
687,1715673426110,1.03363961,-1.0048513,0.078797282,-0.5813299,-1.18472732,2.98580238
688,1715673426120,1.07166625,-0.886204098,0.06659534889999999,-0.793544508,-0.9331272159999999,3.63828276
689,1715673426130,1.1545186,-0.81120586,0.035733793,-0.85062987,-0.82619524,4.0091085
690,1715673426140,1.40020366,-0.69623576,-0.1480086332,-0.6649268,-0.7996226,4.578893
691,1715673426150,1.8747923400000002,-0.34597140960000006,-0.383193094,0.272140465,-1.2018315400000001,5.5927614199999995
692,1715673426160,2.2797793200000003,0.1118662932,-0.416707249,1.3635886300000002,-1.7428138,6.473415350000001
693,1715673426170,2.7373345,0.6541303333333333,-0.35274415444444446,1.7603439111111112,-2.0426995,7.307102333333333
694,1715673426180,3.54529226,1.7579806000000002,-0.1594239348,1.3653143399999998,-2.02262071,7.940820699999999
695,1715673426190,4.22849084,3.12188932,0.10203034920000001,-0.3881438,-1.70043502,8.8549194
696,1715673426200,4.604767333333333,4.0108163333333335,0.29069448333333336,-1.5688038,-1.5678874333333335,9.127090333333333
697,1715673426210,4.81642714,4.669113439999999,0.472222686,-2.6464515900000003,-1.5711148199999998,9.1522581
698,1715673426220,4.68690139,5.14204376,0.768831426,-3.29720625,-1.81773648,8.1973383
699,1715673426230,4.24635768,5.1544592300000005,1.0452073450000001,-3.2288810499999996,-2.1194885900000004,6.9017997
700,1715673426240,3.7095456,5.0069385,1.2611102,-2.8130345,-2.5120306,6.105598
701,1715673426250,2.89766292,4.795572699999999,1.5863121,-1.548512868,-2.5303411999999996,5.17265413
702,1715673426260,2.183623377777778,4.584854222222222,1.443708888888889,-0.7005945755555556,-2.1985209111111113,4.620143466666667
703,1715673426270,1.59820306,4.36430352,1.13870058,0.07776314,-1.85516716,3.8409069199999997
704,1715673426280,1.055915212,4.12621626,0.9253954799999999,0.368229564,-1.74243202,3.1644652399999997
705,1715673426290,0.557105665,3.8688232,0.81071805,0.198958812,-1.64814494,2.53289172
706,1715673426300,0.2354649744,3.7197535000000004,0.7901314600000001,-0.358333534,-1.49726118,1.90000472
707,1715673426310,0.02338212688888889,3.648329322222222,0.8042813222222223,-0.9213883777777778,-1.3210469666666667,1.3489600666666668
708,1715673426320,-0.18830366999999998,3.5439383999999996,0.8047298599999999,-1.49393204,-0.996596132,0.4557359936
709,1715673426330,-0.3195308333333333,3.353305333333333,0.7444133533333334,-1.6482841333333333,-0.7751201233333334,-0.15312355133333333
710,1715673426340,-0.45502654,3.105364,0.64961106,-1.6895006,-0.47235155000000006,-1.0375546
711,1715673426350,-0.551507765,2.67586343,0.543513422,-1.021702685,-0.30463850400000003,-1.9812497400000002
712,1715673426360,-0.54219628,2.3503201000000002,0.5587826199999999,-0.132634125,-0.19837848,-2.6548968
713,1715673426370,-0.43444608,2.11128175,0.5670757999999999,0.43463060000000003,0.012751810000000002,-3.1311425
714,1715673426380,-0.2783021422222222,1.942206888888889,0.5601681666666667,0.6760750866666667,0.24638231666666666,-3.455868166666667
715,1715673426390,-0.09055406899999999,1.82490526,0.5442451399999999,0.6990741939999999,0.583620653,-3.80434659
716,1715673426400,0.22665956,1.6800370400000002,0.48857730000000005,0.527512692,1.072618264,-4.27941648
717,1715673426410,0.48366235,1.5947637799999999,0.3849249,0.375285062,1.4271644399999999,-4.6778531999999995
718,1715673426420,0.65485525,1.5381995,0.3006273,0.302531,1.6409367,-4.962822
719,1715673426430,0.852702178,1.46487812,0.19086479399999998,0.3388775,1.7938058,-5.35851
720,1715673426440,1.160214007,1.31683908,0.0761141994,0.5196936,1.8481728,-5.8508673
721,1715673426450,1.3908535,1.1996092555555555,0.025367334000000002,0.8926607666666667,1.7995072222222221,-6.454503944444444
722,1715673426460,1.49990455,1.12405945,0.03588624,1.12768778,1.7551686,-6.7619118
723,1715673426470,1.5311564,1.0282917,0.037959532000000004,1.3120622,1.74501295,-6.96363475
724,1715673426480,1.5437011777777778,0.9410034333333334,0.03275936333333333,1.4328862333333334,1.7393878666666667,-7.020827000000001
725,1715673426490,1.58259235,0.9396889849999999,0.04378304,1.5411367,1.6765196500000001,-6.897127
726,1715673426500,1.6089963600000001,1.0162543960000001,0.0522103612,1.59203704,1.58794418,-6.8119417
727,1715673426510,1.6383204666666666,1.1834429444444445,0.06623015244444445,1.6610953333333334,1.3631966666666666,-6.849326433333333
728,1715673426520,1.6920072000000002,1.2391149499999998,0.06683926180000001,1.62099205,1.1959978100000002,-7.04950713
729,1715673426530,1.773945,1.288124,0.05482027300000001,1.5352571,1.0137309,-7.2799864
730,1715673426540,1.7934042000000001,1.2784757333333332,0.15325419922222222,1.3103229666666667,0.7811948111111112,-7.3459599111111125
731,1715673426550,1.74040647,1.21141825,0.315872086,0.936303709,0.741040615,-6.80868876
732,1715673426560,1.53454072,0.8434272399999999,0.31276216,0.6387818120000001,0.92610224,-5.9657405599999995
733,1715673426570,1.4044383333333335,0.5961391333333332,0.2510783422222222,0.5463171444444445,1.0033461333333333,-5.207948622222222
734,1715673426580,1.33006544,0.43876951200000003,0.21919571200000001,0.5158604,1.03842509,-4.46053802
735,1715673426590,1.39809985,0.49795588999999996,0.17077216,0.43600505,1.07046505,-3.3163110000000002
736,1715673426600,1.5259765555555558,0.6134233333333333,0.10527037444444444,0.169566,1.0834374,-2.8299010444444446
737,1715673426610,1.64022982,0.542958496,0.031196944800000004,-0.21340577600000002,1.07854364,-2.6968783600000004
738,1715673426620,1.65852358,0.28782166,-0.0383436998,-0.47955976399999994,1.03425592,-2.6672513
739,1715673426630,1.6010079999999998,0.11915329,-0.06219874999999999,-0.65133506,0.9831876000000002,-2.5960245
740,1715673426640,1.4722565200000002,-0.23142813799999998,-0.13936178899999999,-0.581100806,0.85000371,-2.3959050900000003
741,1715673426650,1.3134302,-0.7527675211111111,-0.11319088444444445,-0.29297774844444446,0.42758870266666665,-1.4851321777777777
742,1715673426660,1.18041028,-1.1779346,0.0014269119999999996,-0.0912938124,0.0648433454,-0.37635408000000004
743,1715673426670,1.1088655,-1.3123123333333333,0.16074108,-0.09626218333333332,0.04550945633333333,0.4078543666666667
744,1715673426680,1.01942686,-1.3861936875,0.293088745,-0.17392478875,0.29296715624999997,1.1920462625000001
745,1715673426690,0.9666052479999999,-1.3663846000000002,0.234440512,-0.32994358999999995,0.685085375,2.17651285
746,1715673426700,0.997948504,-1.29881972,0.13206868,-0.48847837599999994,0.865870936,2.94947118
747,1715673426710,1.0838437,-1.1658607,0.0250014575,-0.741895815,0.8544477699999999,3.7098609500000004
748,1715673426720,1.1542746222222222,-1.0109126333333334,-0.032535773444444444,-0.9629442122222223,0.7663813444444445,4.027163044444444
749,1715673426730,1.1914719,-0.8993208000000001,-0.066345334,-1.2582297,0.6238461,4.187634
750,1715673426740,1.19860035,-0.8509154710000001,-0.0863221062,-1.52542218,0.49202140399999994,4.200828639999999
751,1715673426750,1.26718366,-0.7585869190000001,-0.13410537900000002,-1.9583423699999998,0.098440935,4.21489391
752,1715673426760,1.3087213111111111,-0.7130700444444444,-0.16633761333333333,-2.049860166666667,-0.23375776333333334,4.254320266666666
753,1715673426770,1.32163804,-0.72598136,-0.170949004,-1.8417587000000002,-0.592478194,4.39154076
754,1715673426780,1.3594817799999999,-0.71712718,-0.18223014799999998,-1.5219402199999998,-0.8855102239999999,4.65757258
755,1715673426790,1.3922276500000001,-0.64208623,-0.21991527500000002,-1.18396379,-1.18752197,4.98514909
756,1715673426800,1.4296092333333332,-0.5107750533333334,-0.2334282411111111,-0.9292957111111111,-1.5765413777777777,5.3499577
757,1715673426810,1.4984045,-0.404438226,-0.224927746,-0.96852684,-1.86393318,5.62884822
758,1715673426820,1.58506196,-0.25583810100000004,-0.217043149,-1.13889716,-2.0812790399999996,5.84350628
759,1715673426830,1.6994893100000001,-0.06972358,-0.191078215,-1.41919266,-2.35215182,6.023665620000001
760,1715673426840,1.903952588888889,0.33676762000000005,0.029053183333333336,-1.8164078666666665,-2.5911376,6.151311199999999
761,1715673426850,1.98732934,0.53230546,0.132062579,-1.88688645,-2.61515991,6.16595164
762,1715673426860,2.0947969444444445,0.9548863888888888,0.33396935333333333,-1.7905309222222223,-2.540893977777778,6.096588000000001
763,1715673426870,2.12841695,1.40974695,0.464691745,-1.40670048,-2.3560767,5.96189196
764,1715673426880,2.0863047200000002,1.678537,0.46657600600000004,-1.0678993499999998,-2.2192276200000003,5.86251945
765,1715673426890,1.96794398,2.01067828,0.40884094,-0.8458345600000001,-2.15733174,5.74448518
766,1715673426900,1.8879962333333333,2.2093429777777778,0.39612745555555556,-0.8850249444444445,-2.1743409555555555,5.611577922222223
767,1715673426910,1.71777707,2.53357468,0.443867363,-1.10966722,-2.2145088,5.28725264
768,1715673426920,1.60020311,2.68659569,0.49692533499999997,-1.36693316,-2.19948146,4.842603820000001
769,1715673426930,1.3706897,2.898218,0.6133285,-1.6317907555555555,-2.1446460666666667,4.392324811111112
770,1715673426940,1.109089,3.11695,0.79577816,-1.9511646599999999,-1.98841222,3.9112175699999994
771,1715673426950,0.795412254,3.52499844,0.9791302999999999,-1.6988162500000001,-1.73088665,3.4102315000000005
772,1715673426960,0.61341995,3.80238655,1.0706722,-1.26059681,-1.5919300799999998,3.03684014
773,1715673426970,0.4431424111111111,4.1504250222222225,1.1555349222222222,-0.5398182444444445,-1.4004424777777777,2.3451456444444445
774,1715673426980,0.38736408,4.40548864,1.22188838,-0.12996158,-1.17767175,1.4308754799999999
775,1715673426990,0.40391990099999997,4.5674797,1.30817996,-0.0309403251,-0.92503318,0.572243273
776,1715673427000,0.47788153399999994,4.5286783999999995,1.36729321,-0.048502700800000006,-0.5155702609999999,-0.464990611
777,1715673427010,0.5462717333333332,4.375885,1.3487371999999997,0.0032070426666666644,-0.12614366666666668,-1.2847514000000002
778,1715673427020,0.5687039260000001,4.234308,1.3323216199999999,0.1755626672,0.19853120600000002,-1.96588654
779,1715673427030,0.589863667,4.080226059999999,1.3331083,0.42421536,0.517127973,-2.5887553
780,1715673427040,0.6679048,3.8885805999999996,1.2989173,0.58062744,0.8005389,-3.0112603
781,1715673427050,0.8486538222222222,3.789360577777778,1.2432839444444446,0.6470250844444444,1.0663670888888888,-3.3759127777777778
782,1715673427060,1.2858737699999998,3.75334718,1.072294292,0.724623614,1.55462149,-4.312922519999999
783,1715673427070,1.5918611444444446,3.650063888888889,0.8439652422222222,0.7783271444444444,1.7580192888888888,-5.053382777777777
784,1715673427080,1.8403268799999999,3.38034362,0.6105966,0.8204226,1.67792466,-5.97554504
785,1715673427090,1.98456696,3.03773818,0.6188532,0.7983397999999999,1.5775594600000002,-6.44499464
786,1715673427100,2.1144729,2.6735298333333333,0.6646119666666667,0.75716745,1.6739744333333333,-6.569550133333333
787,1715673427110,2.1684252,2.41279313,0.61181009,0.7630928779999999,1.89942438,-6.494658200000001
788,1715673427120,2.1596626199999998,2.12145312,0.4825281739999999,0.860724419,2.0964741600000005,-6.4073351
789,1715673427130,2.0939330600000003,1.7771099,0.27879675800000003,1.03225536,2.18842468,-6.3488907
790,1715673427140,1.9539894444444446,1.3664347666666667,0.11463406898133334,1.3310754444444446,2.0950980333333336,-6.213602622222222
791,1715673427150,1.6915256200000002,0.8077910600000001,-1.21958344e-05,1.78082494,1.79405012,-5.760825939999999
792,1715673427160,1.53189432,0.55749596,-0.0005366167200000001,1.95654029,1.63017019,-5.35438652
793,1715673427170,1.3768486999999998,0.32800694999999996,-0.02869069885,1.99798755,1.5096007500000002,-4.53979775
794,1715673427180,1.3584532999999999,0.30558694999999997,-0.06969918866666666,1.8865554666666666,1.4546229,-4.288223
795,1715673427190,1.37690965,0.34806908999999997,-0.092810293,1.6012610000000003,1.35651794,-4.2054712
796,1715673427200,1.3758974199999998,0.326836136,-0.06378420979999999,1.33839039,1.3061979300000002,-4.30982252
797,1715673427210,1.3791251333333332,0.14661424666666667,0.02624137,0.6672175499999999,1.3081679,-4.543310333333333
798,1715673427220,1.37084824,0.022623269999999997,0.148362316,0.1420567152,1.35337198,-4.52754976
799,1715673427230,1.3201867200000001,-0.031794538,0.243867886,-0.07312056959999999,1.41329784,-4.4460296
800,1715673427240,1.20825341,-0.158795847,0.326836149,-0.1895209394,1.56735802,-4.2812794
801,1715673427250,1.17240988,-0.5471904519999999,0.31240846600000005,-0.037415497,1.6939293,-4.101197
802,1715673427260,1.2418611333333334,-0.8130216688888888,0.1916643051111111,0.3334306066666667,1.6179784333333334,-3.5979963333333336
803,1715673427270,1.28563602,-0.834670618,0.0876636484,0.52833734,1.3750576200000002,-3.33501888
804,1715673427280,1.35392044,-0.8135352600000001,0.016598527600000003,0.637254604,1.070510808,-3.32063296
805,1715673427290,1.4817599222222222,-0.8513098444444445,-0.019276192222222224,0.75564029,0.7178175666666666,-3.350392266666667
806,1715673427300,1.56818912,-0.9032965879999999,-0.025123416659999998,0.9214902199999999,0.395321448,-3.28453084
807,1715673427310,1.60880728,-0.9926737379999999,0.01775103559,1.26363585,0.1186605682,-2.94808148
808,1715673427320,1.5854786666666667,-1.0743512888888889,0.07797880277777777,1.6187589555555555,0.0722687508888889,-2.415225355555555
809,1715673427330,1.55137104,-1.0902953,0.0957128988,1.96820774,0.16070337,-1.61778497
810,1715673427340,1.5467732,-1.00778444,0.0891027596,2.057058,0.23973406000000003,-1.012967298
811,1715673427350,1.5822447499999999,-0.65090996,0.099548495,1.86013049,0.43728789999999995,-0.026771174000000002
812,1715673427360,1.6274933333333332,-0.39235352777777777,0.06304568522222222,1.4733730666666667,0.5803389888888888,0.35364006666666664
813,1715673427370,1.5906111,-0.09375546800000001,-0.07930340649999999,0.52839843,0.65897085,0.34483343
814,1715673427380,1.47944615,-0.075919063,-0.136776275,-0.172202924,0.6340475440000001,0.1406517232
815,1715673427390,1.3355536000000001,-0.16285096599999999,-0.150203888,-0.9789116,0.5552154079999999,-0.0120951316
816,1715673427400,1.11465851,-0.33703185,-0.1464516366666667,-1.4088928555555555,0.4602699944444444,0.10498397755555555
817,1715673427410,0.9109982459999999,-0.46706381100000005,-0.170455075,-1.44710919,0.24639249400000002,0.665995836
818,1715673427420,0.73300615,-0.502968356,-0.11376273399999999,-1.01330326,-0.04282165600000001,1.508043
819,1715673427430,0.6391768355555556,-0.47895746444444437,-0.03277291366666667,-0.5789644948888889,-0.17827084666666668,2.079147622222222
820,1715673427440,0.6035840020000001,-0.46034391,-0.0058418042,0.0725402468,-0.232800748,2.77821512
821,1715673427450,0.679612839,-0.36633845000000004,-0.0796936725,0.485240809,-0.23466388,3.5177438899999998
822,1715673427460,0.833249865,-0.21452471,-0.23498321,0.33084462800000003,-0.23322834600000003,4.03528412
823,1715673427470,1.0085616244444444,-0.13993363111111112,-0.27359318444444447,-0.5421598577777779,-0.3174971977777778,4.790320411111111
824,1715673427480,1.2972403499999998,-0.0455209455,-0.178211612,-1.35444095,-0.39858956500000003,5.5639898500000005
825,1715673427490,1.5842144,0.056710625400000006,-0.07262618839999999,-2.0100826599999997,-0.43502768999999997,6.32404372
826,1715673427500,1.8355339666666666,0.19298550666666667,0.0011789294444444426,-2.4210626,-0.39217549333333335,7.020827133333333
827,1715673427510,2.55064876,0.704370344,0.12988561999999998,-2.85139672,-0.299629404,7.965468799999999
828,1715673427520,3.03543316,1.23823076,0.1289343496,-2.91159754,-0.31447341900000003,8.4102395
829,1715673427530,3.3098332900000003,1.6671520999999998,0.1250499826,-2.76520371,-0.46454774400000004,8.562726999999999
830,1715673427540,3.4470913,2.1680534,0.16220458,-2.4405594,-0.7049385,8.424595
831,1715673427550,3.25328137,2.8456294499999997,0.28041878800000003,-1.6490154999999997,-1.1687227199999999,7.35993362
832,1715673427560,2.81579238,2.95380649,0.348361774,-1.08466759,-1.3293344399999998,6.211934579999999
833,1715673427570,2.1954940444444446,2.7221777666666664,0.31572303333333335,-0.6255938666666667,-1.192918,5.156822577777778
834,1715673427580,1.7487241,2.5057804,0.21298194399999998,-0.433195075,-1.08011667,4.78101322
835,1715673427590,1.30166136,2.38450492,0.106603788,-0.45335361999999996,-1.11269106,4.7216217
836,1715673427600,1.1272948277777777,2.3814193777777777,0.08247771822222222,-0.6026524922222222,-1.1408248222222221,4.731032377777778
837,1715673427610,0.926121094,2.4021949400000002,0.024220925900000002,-0.9281944879999999,-1.12585522,4.59546302
838,1715673427620,0.762971316,2.4564480800000004,0.028916321000000002,-1.4051428,-1.1319332599999998,4.26661898
839,1715673427630,0.605626811,2.45258824,0.040746281499999995,-1.74234039,-1.1458763099999998,3.8285674
840,1715673427640,0.41264603,2.3790412,0.046039272,-2.0117319,-1.2218832,3.2001703
841,1715673427650,0.10066441699999999,2.18278597,0.008390733,-1.9344879899999998,-1.4557682399999998,2.4956748099999997
842,1715673427660,-0.16324123,2.0056354,0.117323925,-1.57154248,-1.91512368,2.04105354
843,1715673427670,-0.31699002444444446,1.9959159333333334,0.2832821077777778,-1.3539658555555556,-2.0872587333333334,1.919542188888889
844,1715673427680,-0.369100792,2.05574804,0.377753736,-1.29802757,-2.10333126,1.81008532
845,1715673427690,-0.375607288,2.210312,0.49190675399999995,-1.49603952,-1.9843957199999998,1.51567886
846,1715673427700,-0.39686461,2.39634113,0.573167592,-1.9081904,-1.7106517499999998,1.1112402000000001
847,1715673427710,-0.4064058233333333,2.505776444444445,0.5812398777777779,-2.1707437555555553,-1.479888977777778,0.7730838711111111
848,1715673427720,-0.38093686,2.5513074,0.5410682,-2.4274259,-1.1765264,0.28893927
849,1715673427730,-0.36014298,2.5858216,0.46453932,-2.3863451,-0.9613492000000001,-0.2883284
850,1715673427740,-0.37179,2.526733,0.39855984,-1.9152153000000003,-0.8914050999999998,-1.0311406
851,1715673427750,-0.272942735,2.369315,0.47338128,-0.9568593249999999,-0.9618226099999999,-1.91773509
852,1715673427760,-0.20852163666666665,2.373681833333334,0.5421319022222222,-0.5131776966666667,-0.9282436888888888,-2.4289868777777777
853,1715673427770,-0.0682052015,2.4135859,0.675984535,-0.370214884,-0.706740562,-3.0537458600000003
854,1715673427780,0.05905832099999999,2.432459,0.7908387849999999,-0.55642189,-0.42791112,-3.5201109500000003
855,1715673427790,0.23922804888888885,2.4884515,0.9449399777777777,-0.8940521733333333,-0.08618291333333332,-3.9063814666666667
856,1715673427800,0.467368716,2.5520392000000003,1.10397914,-1.37948638,0.47696357999999994,-4.32651416
857,1715673427810,0.64440342,2.57014998,1.1858741,-1.76341526,1.1515726,-4.69190308
858,1715673427820,0.8266702020000001,2.55725279,1.16349467,-1.89754604,1.9172463700000002,-5.0350261199999995
859,1715673427830,0.9078578399999999,2.5544782,1.1145772,-1.8399261,2.3503041,-5.227021
860,1715673427840,1.006705,2.5833824,0.94414043,-1.3264939,2.7887526,-5.4608297
861,1715673427850,1.0919607555555555,2.4917848888888887,0.7290872466666667,-0.08261952777777778,2.8482610555555556,-5.867224766666666
862,1715673427860,1.0982227,2.2656078,0.5212621159999999,0.73013664,2.68392802,-6.1030324
863,1715673427870,1.1490575222222223,2.1344877777777778,0.4568288,1.2668835333333335,2.3477587333333334,-5.884057333333334
864,1715673427880,1.23982839,2.1679131299999996,0.555136029,1.4827226,2.0949624,-5.488624
865,1715673427890,1.2177662,2.19782342,0.579241138,1.32011032,2.02025352,-4.7582432400000005
866,1715673427900,1.1758816333333333,2.0827434555555557,0.5320432333333334,0.9715302433333333,2.1423552333333333,-4.4584
867,1715673427910,1.14365819,1.93111876,0.51585325,0.5674479889999999,2.2239159699999997,-4.0260753
868,1715673427920,1.0959786,1.7751036,0.5271649,0.33964106,2.2514966,-3.6002870000000002
869,1715673427930,0.9998686600000001,1.4776811,0.5109309166666667,0.2556471,2.3011293,-3.2123876
870,1715673427940,0.948402924,1.31105212,0.490705452,0.310655524,2.40378535,-2.6067146400000003
871,1715673427950,0.89614983,1.0365543499999998,0.300688265,0.79626285,2.41177235,-1.8408424
872,1715673427960,0.8989006755555555,0.939458538888889,0.21070333822222223,1.0470060666666667,2.280343033333333,-1.6373734111111111
873,1715673427970,1.0407620000000002,0.8944424249999999,0.1081465595,1.54304565,1.6021469,-1.46951275
874,1715673427980,1.15534792,0.8946132,0.159948361,1.71124734,1.168737964,-1.6431053600000003
875,1715673427990,1.3821904,0.769788828,0.295114782,1.7354070199999998,0.85111852,-2.04355808
876,1715673428000,1.6081629,0.45982355666666663,0.46982416666666665,1.6207782,0.73782339,-2.5167139
877,1715673428010,1.6505475,-0.08790755400000001,0.537885048,1.40807496,0.9908234300000001,-2.97867058
878,1715673428020,1.63525402,-0.5498369320000001,0.41892688400000005,1.32179024,1.31540666,-3.15524128
879,1715673428030,1.5973493,-0.99420434,0.20915854,1.351234,1.5361733,-3.1270192
880,1715673428040,1.585275425,-1.1114444375,0.146250908125,1.4211589375,1.5238605875,-3.0485039499999997
881,1715673428050,1.50528902,-1.98564638,-0.336897713,1.8578856,1.0692738099999999,-2.39772238
882,1715673428060,1.5344918900000002,-2.1713157599999997,-0.482052512,1.9339994,0.6458373,-2.095726
883,1715673428070,1.5764578,-2.0682913800000002,-0.365692068,1.37243096,-0.32036827199999995,-1.65477286
884,1715673428080,1.6180822666666668,-1.8480753000000003,-0.09762763666666667,0.5458759466666666,-0.6682526388888889,-1.4161213333333333
885,1715673428090,1.66242636,-1.59394662,0.22251298999999997,-0.202654556,-0.6376517,-1.25694682
886,1715673428100,1.6304549099999999,-1.46764663,0.39113258,-1.43061592,-0.22944099599999998,-0.98117175
887,1715673428110,1.36992755,-1.3320594,0.493443435,-2.16185205,0.407523485,-0.6023894999999999
888,1715673428120,1.2228288,-1.2464819444444446,0.43106852111111116,-2.326021988888889,0.7391639166666667,-0.2806416677777778
889,1715673428130,1.0299382,-1.1045767,0.2622714,-2.250122,1.0444268,0.22999077000000004
890,1715673428140,0.93470698,-1.0409327000000002,0.10019487,-1.9311282900000002,1.003804288,0.5823378210000001
891,1715673428150,0.87569134,-0.7374027919999999,-0.25009386,-0.537759954,0.12429579400000001,1.5343255199999999
892,1715673428160,0.8965970666666667,-0.44598808666666667,-0.3949756133333333,0.017969618888888896,-0.36310848444444443,1.7824369333333334
893,1715673428170,0.8877957000000001,-0.143362023,-0.354746315,0.5986479499999999,-1.06527265,1.9070449500000002
894,1715673428180,0.8558304160000001,-0.0168424464,-0.255466124,0.67708304,-1.2976305199999998,2.03958744
895,1715673428190,0.79291212,0.0382339375,-0.139733765,0.425085855,-1.2496012,2.5176811
896,1715673428200,0.7854658888888888,0.06833054277777778,-0.11659217177777778,0.08755735333333334,-1.07094858,3.0712776666666666
897,1715673428210,0.84156132,0.129861228,-0.1448986972,-0.314717778,-0.87292644,3.73192844
898,1715673428220,1.0699811333333333,0.39904766,-0.26708876,-0.8985318666666667,-0.7445429266666667,4.7724355
899,1715673428230,1.2963744300000002,0.66248987,-0.337178212,-1.2162632,-0.8818756000000001,5.42573548
900,1715673428240,1.5879585,0.9743252,-0.32367742,-1.3684908,-1.109484,5.8430786
901,1715673428250,2.0114384333333337,1.4389592666666668,-0.16992861333333334,-1.4794816222222222,-1.4272018,6.232488466666667
902,1715673428260,2.5770771199999998,2.12372138,0.11198214399999999,-1.61075996,-1.80553442,6.87027932
903,1715673428270,2.9024132799999998,2.5893096200000003,0.354703608,-1.5913956,-1.82575406,7.2426628
904,1715673428280,3.1711302,3.06267875,0.600797235,-1.4615714499999999,-1.6834683000000001,7.46691125
905,1715673428290,3.2496678666666665,3.3327080666666666,0.6835493788888889,-1.3236600888888888,-1.5215296222222223,7.431243333333334
906,1715673428300,3.2148217000000003,3.60877774,0.711578085,-1.136285685,-1.36309993,7.152056
907,1715673428310,2.9584112,3.7419188333333335,0.7438984055555555,-0.8464386388888889,-1.2881791,6.506580311111112
908,1715673428320,2.72804948,3.71821684,0.7603736400000001,-0.7064351,-1.24564591,6.1057815
909,1715673428330,2.4191046,3.6231382000000005,0.7585198,-0.579650012,-1.14463934,5.63901916
910,1715673428340,2.058169,3.4245290000000006,0.72467643,-0.52320606,-1.0219775,5.301089
911,1715673428350,1.703751211111111,3.154994311111111,0.6290204588888889,-0.49975564555555557,-0.8508843777777778,4.910881555555556
912,1715673428360,1.2257423,2.7797964,0.43965977,-0.423451792,-0.655336228,4.33824244
913,1715673428370,0.87683164,2.49035252,0.25306355199999997,-0.32308662200000005,-0.649838458,4.003916080000001
914,1715673428380,0.5057205555555556,2.1469071333333334,0.010339355555555556,-0.13942998893333333,-0.7970264333333333,3.5795686
915,1715673428390,0.22458627300000003,1.9645354000000002,-0.11924475999999999,0.08524624391999999,-1.069533384,3.2309274
916,1715673428400,0.05383241279999999,1.89069572,-0.15283818,0.25848762399999997,-1.2988827,2.97961742
917,1715673428410,-0.23750776399999998,1.81653286,-0.138087325,0.407492927,-1.5352875899999998,2.66783179
918,1715673428420,-0.5251593955555555,1.8752178666666666,-0.08362953888888888,0.41243586,-1.6035721333333333,2.4206553333333334
919,1715673428430,-0.6809361079999999,1.98356709,-0.068382039,0.345016698,-1.58275178,2.20656756
920,1715673428440,-0.8012846100000001,2.10275083,-0.064418396,0.23335053,-1.5552629,1.9456057999999998
921,1715673428450,-0.9747825000000001,2.2505581500000003,-0.061771897,-0.40798163,-1.4986051,0.77747875
922,1715673428460,-1.0328652,2.26001,-0.055613003999999994,-0.65316767,-1.4969252,0.355829
923,1715673428470,-1.06484875,2.2299472000000002,-0.028385804100000002,-0.845208435,-1.5128077,-0.0051923499999999845
924,1715673428480,-1.13420648,2.05413813,0.12854408358,-1.37728732,-1.58429428,-1.5263843
925,1715673428490,-1.12716945,1.82852125,0.32873869,-1.4199562000000001,-1.5566373500000001,-2.2637139
926,1715673428500,-1.07595304,1.73319864,0.43313503600000003,-1.37649318,-1.4746897799999998,-2.62314698
927,1715673428510,-0.8688718222222223,1.6719675333333333,0.5914708444444444,-1.2513065222222222,-1.0438329555555557,-3.1361142777777777
928,1715673428520,-0.65174534,1.71278288,0.608035492,-1.16232382,-0.6670648480000001,-3.46446118
929,1715673428530,-0.44740415,1.7801038999999999,0.58747333,-1.08665291,-0.377377284,-3.7557980900000003
930,1715673428540,-0.18304591666666667,1.8518018666666667,0.5161344511111111,-0.9955746088888888,-0.11238223777777777,-4.243901433333333
931,1715673428550,0.16388760900000002,1.84326606,0.409584866,-0.865718208,0.192544729,-5.11859237
932,1715673428560,0.3846633666666667,1.7581581777777777,0.3506370022222222,-0.7697411222222222,0.32009338111111113,-5.7669072111111115
933,1715673428570,0.59404688,1.6326683599999998,0.36205771200000003,-0.62651867,0.43653958,-6.3917885
934,1715673428580,0.72455448,1.5000265000000002,0.415390075,-0.5312694920000001,0.56242364,-6.6452057600000005
935,1715673428590,0.7947658559999999,1.42103418,0.46499053999999995,-0.43745588,0.828867775,-6.81443075
936,1715673428600,0.842320475,1.4334677999999998,0.5230183425,-0.4113413925,1.0644326875,-6.826457250000001
937,1715673428610,0.91498027,1.56603036,0.596217736,-0.44553458,1.43843494,-6.7308188
938,1715673428620,0.97115428,1.80192228,0.6278292860000001,-0.67198234,1.98638102,-6.5851882
939,1715673428630,0.9882284,2.0396922,0.64558643,-0.8896404111111111,2.286247977777778,-6.556467333333334
940,1715673428640,1.0187789,2.2059824,0.661563,-1.1479685,2.5373814,-6.578866
941,1715673428650,1.0124981100000001,2.5488072199999996,0.6142370859999999,-1.8130174700000001,2.9856801600000002,-6.671732799999999
942,1715673428660,0.9489943999999999,2.81940842,0.733530616,-1.9895269199999999,3.1288212,-6.554064919999999
943,1715673428670,1.0982687888888887,3.1251146333333333,1.0205473444444444,-1.7602082,3.1482468,-6.0217566
944,1715673428680,1.41007002,3.31197382,1.25187794,-0.41625886800000006,3.4541832,-4.8027601
945,1715673428690,1.52122288,3.10755948,1.0909661,1.1706926599999998,3.89805332,-4.20357748
946,1715673428700,1.60232526,2.93573846,0.89887559,2.12544447,3.9774507399999997,-3.8722136299999996
947,1715673428710,1.8243565199999998,2.75305688,0.49827905899999997,3.6477359700000003,3.4965316,-3.1643736500000004
948,1715673428720,1.8587331333333335,2.656388111111111,0.21520903077777778,4.192911088888888,2.9171869666666668,-3.0519166666666666
949,1715673428730,1.70680701,2.33500206,-0.01972676035,3.8873936000000002,2.17003766,-3.3304985
950,1715673428740,1.6036606799999997,2.05651017,-0.0608816001,3.3411732799999996,1.79292005,-3.39853358
951,1715673428750,1.47946437,1.54521816,0.0889259181,1.67392355,1.34338427,-3.07883714
952,1715673428760,1.41607653,1.1741234,0.24028230600000003,0.15989396000000003,1.4178946,-2.565634
953,1715673428770,1.3880958555555556,0.7329899666666667,0.3309678111111111,-0.5776239866666667,1.6455182666666666,-2.2143864666666664
954,1715673428780,1.3862881599999999,0.427110302,0.32162851000000003,-1.06541004,1.94798816,-1.85086054
955,1715673428790,1.3778974800000001,-0.0017927899999999942,0.188547582,-1.2809233199999999,2.18607288,-1.50886772
956,1715673428800,1.40574054,-0.313189013,0.024178232999999993,-1.06792992,2.16684595,-1.26536157
957,1715673428810,1.4393658222222223,-0.7435190166666668,-0.2287328488888889,-0.47265697800000006,1.8185967,-1.0669779
958,1715673428820,1.39376428,-0.8980768150000001,-0.304840935,0.21022927959999999,1.268186764,-1.03517218
959,1715673428830,1.29888066,-1.05917156,-0.34830079999999997,0.7660555600000001,0.790276388,-1.09784698
960,1715673428840,1.2116561,-1.2080582,-0.3536182,1.37817303,0.21093177700000001,-1.22538043
961,1715673428850,1.1165354111111112,-1.392852311111111,-0.2649002777777778,1.6553260555555556,-0.31771779,-1.1714529111111114
962,1715673428860,1.0326212140000002,-1.5061,-0.174132106,1.45392044,-0.612697826,-0.8834943940000001
963,1715673428870,0.935225322,-1.6266192400000001,-0.0898345124,0.8195368399999999,-0.695836598,-0.328584414
964,1715673428880,0.8660383599999999,-1.6971721800000001,-0.0725164276,0.212855992,-0.6388733999999999,0.11814133599999999
965,1715673428890,0.82907277,-1.7211066,-0.07896802,-0.40301833499999995,-0.5789475000000001,0.7422776299999999
966,1715673428900,0.8274195422222222,-1.6852542000000001,-0.07620363177777778,-0.8535993277777778,-0.5302649444444445,1.336641011111111
967,1715673428910,0.8316216759999999,-1.63060732,-0.0620158164,-1.11977708,-0.49327368400000005,1.7648201999999997
968,1715673428920,0.883600364,-1.49411164,-0.0218183456,-1.45892942,-0.38295142000000004,2.5786455
969,1715673428930,0.963544022,-1.33513894,-0.0014574014,-1.5588364,-0.30164526,3.0016085200000004
970,1715673428940,1.0217669,-1.2493412,-0.029757832999999997,-1.5926784,-0.22602014,3.424205
971,1715673428950,1.0853072,-1.0003022,-0.11817763,-1.4975666699999999,-0.26148086,3.9565284500000004
972,1715673428960,1.1821116999999999,-0.58814405,-0.189340325,-1.1472813,-0.60177865,4.482071
973,1715673428970,1.22959614,-0.43145197199999996,-0.20557298,-1.004598404,-0.759183324,4.5552220000000005
974,1715673428980,1.26730562,-0.26583258400000004,-0.230428084,-0.86269443,-0.9166796500000001,4.58584175
975,1715673428990,1.3221299555555557,-0.08432741066666666,-0.26803054555555555,-0.7446617,-1.0222829777777778,4.6331245
976,1715673429000,1.37701934,0.07413847479999999,-0.306578868,-0.650479855,-1.09919091,4.688207670000001
977,1715673429010,1.4404499000000002,0.369350805,-0.352551055,-0.39593229,-1.29482058,4.8113272600000005
978,1715673429020,1.49246515,0.57033812,-0.344532295,-0.176387335,-1.48959495,4.9754975
979,1715673429030,1.5406997,0.6577996714285714,-0.33165698,-0.11986048857142857,-1.5679383999999998,5.100419557142858
980,1715673429040,1.6618043,0.7676667,-0.3345317,-0.129289628,-1.68530089,5.381997500000001
981,1715673429050,1.9472884666666666,1.1906588333333332,-0.36959474,-0.3370958177777778,-2.0246789222222223,5.907779633333333
982,1715673429060,2.1264839199999996,1.4760250400000001,-0.335525689,-0.5976705649999999,-2.38745993,6.20516924
983,1715673429070,2.5132197599999997,2.0239594999999997,-0.11246997480000001,-1.053712,-2.9120863,6.504921
984,1715673429080,2.8563861499999996,2.4799616999999996,0.16253996399999998,-1.32569968,-3.15802062,6.6876000399999995
985,1715673429090,3.1075594,2.9652880666666666,0.42100016444444444,-1.5197138888888888,-3.1571890555555555,6.807974333333333
986,1715673429100,3.2453600799999998,3.48299569,0.606657349,-1.6270089900000002,-3.0114434,6.7705096
987,1715673429110,3.2281517199999996,3.9367294200000003,0.6871132799999999,-1.6488474,-2.85310714,6.526209199999999
988,1715673429120,3.05878822,4.24114372,0.74930594,-1.4541036000000003,-2.78047534,5.8519972
989,1715673429130,2.7751687111111116,4.3740493888888885,0.8468583222222222,-1.168143988888889,-2.6987856222222226,5.225341
990,1715673429140,2.4725588800000002,4.308263739999999,0.90456498,-0.9388999,-2.6030495,4.8693595
991,1715673429150,1.8994522,4.05179136,0.9323226800000001,-0.08872817200000001,-2.0747121799999997,3.996937
992,1715673429160,1.5760676,3.8646157000000003,0.8940765,0.2779437,-1.7602082,3.689168
993,1715673429170,1.0467818777777778,3.5292574,0.77548561,0.6402885744444444,-1.2556166222222223,3.2473256666666668
994,1715673429180,0.6122918,3.18643605,0.6281464,0.684856335,-0.7263188,2.8114309
995,1715673429190,0.33715381,2.90065705,0.51676795,0.54767126,-0.44926084800000005,2.6165496399999997
996,1715673429200,0.11941753866666666,2.615728388888889,0.3977400111111111,0.29173906000000005,-0.14060082315555555,2.4326350555555556
997,1715673429210,0.013689821799999998,2.46164351,0.313457312,0.1371087093,0.01333213311,2.33436045
998,1715673429220,-0.10177423599999999,2.3441245100000003,0.1812605725,0.037018435,0.127838816,2.10311747
999,1715673429230,-0.283223848,2.17690742,0.044453815,0.061178154400000004,0.14288138,1.50046824
1000,1715673429240,-0.439300036,2.0189652899999997,-0.025495390299999997,0.08692612899999999,0.0959516592,1.049466448
1001,1715673429250,-0.6768010377777778,1.8280672888888887,-0.03985327288888888,0.022313548666666665,0.02041308,0.3714060711111111
1002,1715673429260,-0.9483479880000001,1.6065204999999998,0.019647486999999998,-0.1893987728,-0.009132435599999999,-0.159985608
1003,1715673429270,-1.0398777000000001,1.4788362,0.0917736475,-0.47418415999999997,-0.02611449,-0.528093
1004,1715673429280,-1.0649198666666666,1.3919103999999998,0.17291659,-1.0701849666666667,0.08180503933333333,-0.9319767333333332
1005,1715673429290,-1.0352312049999999,1.31531446,0.273204955,-1.4851661,0.30442468999999994,-1.26705672
1006,1715673429300,-0.948061455,1.2337427399999998,0.377607393,-1.7450281699999999,0.5828417779999999,-1.6278032100000002
1007,1715673429310,-0.810474135,1.17311725,0.446337015,-1.66619596,0.8962308999999999,-2.03576958
1008,1715673429320,-0.74540937,1.1447619,0.4677712,-1.4931073,1.0913107,-2.296548
1009,1715673429330,-0.50410256,1.0813679500000002,0.45471555300000005,-0.790795623,1.38926032,-2.76247007
1010,1715673429340,-0.38185155,1.0846975,0.44246486,-0.45341474000000004,1.4833336,-2.9584203
1011,1715673429350,-0.19594436399999998,1.11163192,0.396486556,-0.009987645600000003,1.6089885199999998,-3.4052682599999997
1012,1715673429360,-0.0023510883333333343,1.1146042444444444,0.3571956288888889,0.1260249011111111,1.7014124555555554,-3.772008133333333
1013,1715673429370,0.180095871,1.06973316,0.31184135300000004,-0.21070269799999997,1.85014283,-4.040400249999999
1014,1715673429380,0.34181871999999996,1.08579505,0.273979395,-0.739070595,2.0444132,-4.2171846
1015,1715673429390,0.431342228,1.14022498,0.255630756,-0.9675341679999999,2.19801529,-4.3716724
1016,1715673429400,0.6008683888888888,1.2547954555555556,0.24680302333333332,-0.988447811111111,2.4266452444444444,-4.6924292
1017,1715673429410,0.69741875,1.3045274,0.24446549,-0.9137017,2.5245533,-4.8612657
1018,1715673429420,0.863001566,1.35585355,0.182095993,-0.451811209,2.71134055,-5.346460840000001
1019,1715673429430,0.9389573,1.3650187,0.17068069,-0.06078109000000001,2.751337,-5.632483
1020,1715673429440,1.03169436,1.45248716,0.18376681,0.443350727,2.66367786,-5.915954999999999
1021,1715673429450,1.1282121200000002,1.5956540399999999,0.239684704,0.8644506679999999,2.41927082,-6.2146374
1022,1715673429460,1.19830764,1.78963488,0.344513998,0.978331208,2.2070256,-6.39603398
1023,1715673429470,1.2495376666666667,2.0373343333333334,0.5515633488888889,1.0149016666666668,1.9641183555555557,-6.559895277777778
1024,1715673429480,1.33080939,2.20161619,0.727298532,1.02054205,1.91799472,-6.492107799999999
1025,1715673429490,1.4812328000000001,2.4290685,0.9452746,1.0538036800000001,1.9878166200000003,-5.9838526000000005
1026,1715673429500,1.6049229600000001,2.59093178,1.1234923399999999,1.14463928,2.13027042,-5.29097872
1027,1715673429510,1.7067257,2.5258182333333337,1.1662672333333335,1.3492486000000001,2.409710666666667,-4.745608633333333
1028,1715673429520,1.82031356,2.32228192,1.0585250800000001,1.7492737200000001,2.7480688399999997,-4.15635784
1029,1715673429530,1.850413,2.1115868,0.8130962,2.3231206,2.8651106,-3.557832
1030,1715673429540,1.8913542700000001,2.02942922,0.6033400760000001,2.88485686,2.55489806,-3.05423457
1031,1715673429550,1.9582850333333335,1.9110463666666666,0.4103288,3.5364516,1.731243,-2.5712844999999995
1032,1715673429560,1.9719443,1.8035197,0.357033,3.5715764,1.3287846,-2.5389087
