id,timestamp,acc_x,acc_y,acc_z,gyro_x,gyro_y,gyro_z
0,1715673392760,0.54750581,0.2628289228571429,0.19471519285714287,-0.03691372857142856,0.3417354571428572,0.23972096000000004
1,1715673392770,0.9234956444444443,1.0494514777777777,0.0854589111111111,0.6007350844444445,-0.06554923677777777,2.004469411111111
2,1715673392780,0.46851513999999994,0.98950894,0.0008902951999999999,0.07055494000000001,-0.056275963,1.6603317
3,1715673392790,0.27512582,1.02801116,0.017671761799999998,-0.334967955,0.020357084799999998,1.54026613
4,1715673392800,0.15453340047000003,1.0563116300000002,0.010092051639999999,-0.7445531049999999,0.125563353,1.41681034
5,1715673392810,0.0070126047,1.0950029,0.0037807084,-1.1134546,0.21517728,1.2620476
6,1715673392820,-0.06932721412000001,1.1221691200000001,7.927286000000006e-05,-1.22597596,0.245048583,1.086713995
7,1715673392830,-0.283455556,1.1949721800000002,-0.034758125,-1.30340314,0.243979568,0.71257431
8,1715673392840,-0.388034826,1.23270608,-0.030379819359999997,-1.1814439399999999,0.155862274,0.418412148
9,1715673392850,-0.467588236,1.24884122,0.01063476696,-0.9770789799999999,0.0815810556,0.001466082000000013
10,1715673392860,-0.5175369666666667,1.2139394666666667,0.03887083166666667,-0.7277101833333333,0.06064534344444444,-0.4724533666666667
11,1715673392870,-0.526762448,1.1744588200000001,0.034197117060000004,-0.521144405,0.056046886500000004,-0.81947572
12,1715673392880,-0.5296243888888889,1.0538961444444446,-0.01680314908888889,-0.3405064622222222,0.027828305555555558,-1.1184433444444444
13,1715673392890,-0.507810128,0.9958141560000001,-0.0271235346,-0.24547619599999998,-0.014905112000000002,-1.3101226799999999
14,1715673392900,-0.444891818,0.963141584,-0.007780942000000001,-0.20143281600000001,-0.0275500228,-1.4752089800000001
15,1715673392910,-0.350910728,0.9647392400000001,0.0122568124,-0.23167065,0.018325958000000003,-1.62100725
16,1715673392920,-0.21492108000000001,1.0023756,0.035002041,-0.32001704000000003,0.0910189215,-1.76410245
17,1715673392930,-0.11436982044444445,1.0395322777777778,0.046730367777777775,-0.38805215444444446,0.1414662088888889,-1.867856211111111
18,1715673392940,-0.0272820803,1.07407487,0.044825786599999994,-0.42864414799999995,0.175241969,-1.9900004
19,1715673392950,0.192206335,1.1514390799999998,0.057448470200000004,-0.38142426,0.188177032,-2.33405512
20,1715673392960,0.42607499555555556,1.200205488888889,0.07923904,-0.17465655000000002,0.14567439444444444,-2.7699514333333335
21,1715673392970,0.541574288,1.21268662,0.097030055,-0.04680754599999999,0.11444560399999999,-2.9833894499999998
22,1715673392980,0.75062308,1.24854845,0.156320095,0.12484558500000001,0.06291911850000001,-3.2620203499999993
23,1715673392990,0.9109068333333332,1.2795055,0.21810215333333333,0.19125172666666668,0.058846684666666677,-3.4173328
24,1715673393000,1.11607732,1.34537114,0.305859322,0.197340015,0.11360566400000001,-3.5919791699999997
25,1715673393010,1.30657017,1.46528055,0.41275579100000004,0.11589641390000001,0.25074491,-3.8070037799999996
26,1715673393020,1.50811848,1.57217097,0.505047759,0.012644910999999998,0.495289532,-4.13448878
27,1715673393030,1.66217,1.6279609,0.5674112,-0.035277467,0.6339254,-4.319123
28,1715673393040,1.90149501,1.7330706599999999,0.65952015,-0.0879187804,0.839359405,-4.4719307
29,1715673393050,2.1975062,1.8721216000000003,0.7735207,-0.14126259,1.0812315,-4.618752
30,1715673393060,2.61765285,2.00278146,0.88539315,-0.199798746,1.35300543,-4.71267233
31,1715673393070,3.14718973,2.17549276,1.08902695,-0.1840384194,1.6049262,-4.728722970000001
32,1715673393080,3.8531822499999997,2.2944632,1.30626525,0.1579239372,1.86744561,-4.71529929
33,1715673393090,4.2429374555555555,2.293291,1.3608382,0.8495438888888889,2.0847642777777775,-4.787775255555555
34,1715673393100,4.5612052,2.2524971999999996,1.3375292399999998,1.6825062,2.1955413,-4.94269382
35,1715673393110,4.70179862,2.1686508000000004,1.2859897,2.40500703,2.18935629,-5.13094709
36,1715673393120,4.613086340000001,1.87914624,1.2088389,2.89843334,2.20351314,-5.40737898
37,1715673393130,4.416070755555555,1.6108257555555556,1.1524385888888888,2.9704340333333334,2.3216443333333334,-5.572414466666667
38,1715673393140,4.2434793,1.3935568,1.0898806,2.9022207,2.4439192,-5.6257634
39,1715673393150,3.50981456,0.6732221920000001,0.81907218,2.5055554,2.7887525799999997,-5.347055880000001
40,1715673393160,3.169527622222222,0.41136546777777777,0.6965989555555556,2.410355488888889,2.8770905222222223,-5.141465777777778
41,1715673393170,2.56523508,0.029904186,0.46892981999999994,2.4038769600000003,2.89440176,-4.6648114000000005
42,1715673393180,2.12722172,-0.207097454,0.333177974,2.48952034,2.77103746,-4.24346728
43,1715673393190,1.7524802,-0.394149,0.25653937,2.577545966666667,2.6069184,-3.82478
44,1715673393200,1.4468649199999999,-0.54342192,0.206268144,2.62421596,2.4866798,-3.4368806
45,1715673393210,1.111845336,-0.72221286,0.10143274399999999,2.63588345,2.39283555,-2.9134453999999996
46,1715673393220,0.8065409349999999,-0.9085896,-0.031770150000000004,2.5950319,2.2919664,-2.4422392
47,1715673393230,0.620328878,-1.02725503,-0.12109243600000001,2.5393974,2.2238090500000003,-2.1500318
48,1715673393240,0.52801865,-1.0806727,-0.16580236,2.3926065,2.1354322,-1.7440202
49,1715673393250,0.401480745,-1.12110806,-0.215049131,2.04166436,1.9988580500000002,-1.19146208
50,1715673393260,0.368472726,-1.1384811400000001,-0.213671006,1.4182000399999999,1.8653686399999998,-0.606176831
51,1715673393270,0.37591217600000004,-1.1666778800000002,-0.21595162,0.842306825,1.8100700499999998,-0.238084735
52,1715673393280,0.37960888,-1.2011134222222222,-0.27140473111111113,0.6041117944444444,1.7600554777777777,-0.1148257051111111
53,1715673393290,0.35486216000000004,-1.2634396,-0.32777522800000003,0.36352591999999995,1.56473132,-0.016584990799999998
54,1715673393300,0.3034662133333333,-1.3421922,-0.37714936,0.2586335644444444,1.2837332444444445,0.06297003
55,1715673393310,0.265539878,-1.4159728399999998,-0.40558464,0.17406604399999998,0.9604633680000001,0.17855592
56,1715673393320,0.230117085,-1.4825194499999998,-0.402041732,0.07231116750000001,0.7082524259999999,0.32438472700000004
57,1715673393330,0.194511346,-1.50380728,-0.361021064,-0.175073982,0.420214208,0.5942497
58,1715673393340,0.18226673,-1.4991728,-0.33501956,-0.4086688499999999,0.28130344,0.8045095
59,1715673393350,0.16622243666666667,-1.4862723555555555,-0.34770321333333337,-0.7353290666666666,0.18332744888888886,1.0477527
60,1715673393360,0.13619697,-1.4482248,-0.45624614,-1.2111167,-0.03726278499999999,1.4555391500000001
61,1715673393370,0.164338856,-1.40826516,-0.53718988,-1.45825752,-0.349445464,1.8561446399999997
62,1715673393380,0.22976950499999999,-1.3430052,-0.558172825,-1.5438091999999999,-0.672715335,2.1967478
63,1715673393390,0.3024770033333333,-1.2711717,-0.550337,-1.5542957,-0.9738719000000001,2.4750223333333334
64,1715673393400,0.36904592799999997,-1.1956428799999999,-0.5429585,-1.5324776,-1.23090875,2.6835310199999998
65,1715673393410,0.44381247300000004,-1.0835815,-0.52652462,-1.5124565300000001,-1.59825257,2.89272183
66,1715673393420,0.48338186999999994,-1.0182302,-0.49899250000000006,-1.5488488666666667,-1.8075332777777777,2.993799722222222
67,1715673393430,0.52255486,-0.9476894719999999,-0.456099792,-1.6906611999999999,-1.9570595400000002,3.10423388
68,1715673393440,0.5407023,-0.91407776,-0.44405028,-1.8997909700000002,-2.03920569,3.2169691200000003
69,1715673393450,0.5853932222222222,-0.8667849955555557,-0.4565510644444444,-2.1441201333333333,-2.1119476555555554,3.3340685666666667
70,1715673393460,0.658294532,-0.7998027600000001,-0.47502771999999993,-2.48231188,-2.26261424,3.45765004
71,1715673393470,0.7546476799999999,-0.780076025,-0.46359413499999996,-2.7169757999999997,-2.45086775,3.5288159
72,1715673393480,0.8252107622222222,-0.7973704055555556,-0.4454121722222222,-2.7933339999999998,-2.582331,3.5898514666666665
73,1715673393490,0.8826490960000001,-0.8179440899999999,-0.434976584,-2.8237552,-2.72453532,3.6785693700000004
74,1715673393500,0.9971314,-0.8445615,-0.41971964,-2.78692,-2.9066496,3.8347065000000002
75,1715673393510,1.3642076300000001,-0.8616904780000001,-0.24938651600000003,-2.5072353,-3.29766446,4.393648000000001
76,1715673393520,1.633028877777778,-0.8043423111111111,-0.1369592082222222,-2.3928270222222223,-3.4071347888888885,4.675850888888889
77,1715673393530,2.21938558,-0.620780144,0.0943103818,-2.26907422,-3.51053562,5.2048163
78,1715673393540,2.4717295,-0.5149691,0.20751211,-2.2591324,-3.4946074000000005,5.440213
79,1715673393550,3.3606838000000003,-0.18682188000000002,0.530671209,-2.3658811,-3.22619322,6.00443896
80,1715673393560,4.21085525,0.30574956000000003,0.8920947250000001,-2.50905254,-2.80051183,6.436412300000001
81,1715673393570,4.5889464222222225,0.6591577311111112,1.0615117666666667,-2.5962961,-2.3436355,6.615382211111111
82,1715673393580,5.101602560000001,1.38808106,1.21787594,-2.54159658,-1.71253018,6.34991378
83,1715673393590,5.190638300000001,1.6760734499999999,1.2922401000000001,-2.19743505,-1.45698995,5.71029185
84,1715673393600,5.141174255555556,1.7929027444444445,1.3697818888888889,-1.7164804333333334,-1.3161091666666667,5.100826533333334
85,1715673393610,4.76605856,1.8049712,1.43551062,-0.671188224,-1.04231938,4.402078319999999
86,1715673393620,4.33869824,1.70005652,1.3358463,0.701807795,-0.6597345,3.9138136500000003
87,1715673393630,4.026308380000001,1.58798294,1.1167481320000001,1.3693460600000003,-0.475741876,3.8318966599999995
88,1715673393640,3.6702684999999997,1.5767248333333332,0.8450763800000001,2.0221167,-0.31642818,3.8365393
89,1715673393650,3.3464757999999994,1.6906475,0.638147,2.7013988,-0.12140946999999999,3.8438694
90,1715673393660,2.93257975,1.8743897600000001,0.472533671,2.4781886,0.257800391,3.56261193
91,1715673393670,2.50665858,1.9350519000000002,0.26843030199999995,1.7857118,0.682336464,3.01245146
92,1715673393680,2.1347926444444445,1.8480144111111112,0.07933389688888888,1.0399980777777778,0.8678868111111111,2.413681355555555
93,1715673393690,1.7209785199999998,1.70678256,-0.0795412232,0.5214651260000001,0.8250957,1.9498513800000001
94,1715673393700,1.2548598,1.5185947499999999,-0.15933856500000002,0.18738290559999998,0.611842652,1.5695877
95,1715673393710,1.033630811111111,1.4139443444444444,-0.1579902522222222,0.0033936957777777796,0.4114007811111111,1.3239486222222223
96,1715673393720,0.78543002,1.2896910700000002,-0.11796419999999999,-0.144087839,0.2053576223,1.133399394
97,1715673393730,0.48618692399999996,1.1572992000000002,-0.058186326,-0.30619620599999997,0.02144137106,0.945711056
98,1715673393740,0.252368384,1.10585728,-0.059747393999999995,-0.4849506600000001,0.0245873268,0.814130675
99,1715673393750,0.05966472722222222,1.0867098222222222,-0.1155148788888889,-0.5839872,0.04642576,0.75869465
100,1715673393760,-0.14358155199999997,1.11707738,-0.187437762,-0.82737116,-0.06740897900000001,0.616042315
101,1715673393770,-0.301773708,1.19250856,-0.1575274855,-1.1155773500000001,-0.256838293,0.340954427
102,1715673393780,-0.42257342800000003,1.26629948,-0.0693820934,-1.30601462,-0.400880307,-0.033567051
103,1715673393790,-0.5327614644444444,1.3002791222222223,0.04672359388888889,-1.4015455,-0.4787995633333333,-0.4813109111111111
104,1715673393800,-0.5894795389999999,1.30607618,0.101018087,-1.3778676600000002,-0.474749192,-0.7875122
105,1715673393810,-0.633915026,1.3000759199999998,0.141276528,-1.26702608,-0.44605379999999994,-1.1291233200000002
106,1715673393820,-0.626310911,1.26419563,0.178553102,-1.0691668699999999,-0.421481744,-1.40210368
107,1715673393830,-0.605181634,1.2454689499999998,0.208274348,-0.83221223,-0.396604274,-1.6331176800000002
108,1715673393840,-0.56753314,1.2259862,0.23489174,-0.59421915,-0.37705657,-1.8315268
109,1715673393850,-0.43048851599999993,1.2159612000000002,0.32614097200000003,-0.273637093,-0.319910109,-2.03129488
110,1715673393860,-0.30948283111111113,1.2492395222222223,0.36494677111111107,0.006464993333333335,-0.19995654833333332,-2.173305733333333
111,1715673393870,-0.09299323880000002,1.36512846,0.331677864,0.224584612,-0.0605978338,-2.3372009599999997
112,1715673393880,0.108481944,1.50731365,0.275412395,0.31804699,0.0057421334,-2.65100248
113,1715673393890,0.29928575999999996,1.5857267199999998,0.265747204,0.32009339,0.065515297,-3.2219324
114,1715673393900,0.5114525866666667,1.5935482333333335,0.2937773,0.29051733333333335,0.14060081666666668,-3.6559776
115,1715673393910,0.6970711279999999,1.55271866,0.33212914000000004,0.26809348,0.25662448699999996,-4.094309040000001
116,1715673393920,0.802461464,1.50104499,0.35082533,0.250668558,0.353721511,-4.36800727
117,1715673393930,0.9707272999999998,1.4059356,0.3684971,0.19486602,0.50793445,-4.6732717
118,1715673393940,1.2061883,1.3542864000000001,0.43797270666666666,0.021482100000000004,0.72153368,-4.873533566666667
119,1715673393950,1.44886498,1.41320446,0.530348004,-0.10575603999999998,0.9556986999999999,-5.00382615
120,1715673393960,1.5419734,1.450843477777778,0.5737733133333334,-0.13298196333333331,1.0812993777777777,-5.094191788888889
121,1715673393970,1.9141708285714287,1.6672402142857143,0.7331089857142857,-0.12319843,1.3996667999999999,-5.412113357142857
122,1715673393980,2.14105779,1.85012024,0.82718851,-0.114353976,1.60174978,-5.57558084
123,1715673393990,2.5571492399999998,2.18605442,0.94379896,-0.133351884,1.89881356,-5.80719052
124,1715673394000,3.1210662,2.4953896,1.07207475,-0.2354122,2.1952205499999997,-6.03840315
125,1715673394010,3.6016871333333333,2.704548166666667,1.2265553000000002,-0.33074960000000003,2.3773687,-6.142996888888889
126,1715673394020,4.03371118,2.85726428,1.3869101799999999,-0.42239804000000003,2.7124707700000004,-6.249243300000001
127,1715673394030,4.306471,2.9409032,1.4708785,-0.4269948,3.0176742,-6.333909
128,1715673394040,4.762412,2.9141335,1.5535662,-0.305992578,3.1267136666666664,-6.3703064666666664
129,1715673394050,4.96489948,2.6282387,1.46729292,0.8592430446,3.5291669900000002,-6.54403152
130,1715673394060,4.9953159,2.1354234599999997,1.2971976,2.4463168499999997,3.34031814,-6.48523548
131,1715673394070,4.693048,1.6228386000000001,1.1095769,3.2892038999999995,3.16756535,-6.308252749999999
132,1715673394080,4.328789044444445,1.2177878666666666,0.8795161222222223,3.517294177777778,3.1382691777777776,-6.185146477777778
133,1715673394090,3.7818364000000004,0.681320235,0.5357629700000001,3.3931426,3.06904806,-5.83211374
134,1715673394100,3.2847647199999996,0.2662594452,0.28426048000000004,3.0929022799999997,2.98621474,-5.51904534
135,1715673394110,2.7107407777777777,-0.13763675666666667,0.09245118866666667,2.555724422222222,2.856575611111111,-5.045628222222223
136,1715673394120,2.28372464,-0.39319977,0.013281261999999999,2.1409299400000004,2.7450605,-4.66815596
137,1715673394130,1.9952993,-0.5450318,-0.013354438,1.8843664999999998,2.65986,-4.3992987
138,1715673394140,1.5649022799999999,-0.76706915,-0.028355313700000002,1.56879356,2.4910474000000002,-3.8710989399999995
139,1715673394150,0.9925274500000001,-1.16360445,-0.052625021499999994,1.4477048,2.37362376,-3.41143792
140,1715673394160,0.7044923222222221,-1.4277120333333333,-0.09839327777777777,1.383932188888889,2.1924123,-2.373415111111111
141,1715673394170,0.536494692,-1.59473936,-0.170753872,1.3682160199999998,2.06008198,-1.5921591
142,1715673394180,0.45468505400000003,-1.6469009199999998,-0.230818354,1.3127494499999999,1.7997617000000001,-0.6884450799999999
143,1715673394190,0.45077832444444443,-1.6258943,-0.23287268000000003,1.2379184333333333,1.6092057333333334,-0.20351993777777777
144,1715673394200,0.494711794,-1.5713234200000001,-0.19654195,1.03764625,1.4015997299999998,0.231853898
145,1715673394210,0.5790581579999999,-1.56011542,-0.20581688800000003,0.6869790800000001,1.21357538,0.455064064
146,1715673394220,0.6334109133333334,-1.5959264666666666,-0.25521815,0.31074375555555556,1.0065871444444445,0.43714196
147,1715673394230,0.63907998,-1.6622616399999999,-0.29335856899999996,0.065393124,0.8195673400000001,0.36059376
148,1715673394240,0.6107064,-1.779982,-0.33550736,-0.11713341,0.6614143,0.30268374
149,1715673394250,0.46380752,-1.9405401000000002,-0.38776654,-0.35406429111111115,0.3150707331111111,0.41033177777777774
150,1715673394260,0.33230599,-2.02735003,-0.40868241000000005,-0.520625172,-0.1212109404,0.87055935
151,1715673394270,0.299285765,-2.03777135,-0.37371082,-0.6671564919999999,-0.448466732,1.35422716
152,1715673394280,0.338617325,-2.00094,-0.32300664500000004,-1.09482325,-0.742124915,2.1245894
153,1715673394290,0.4053962911111111,-1.9273956666666667,-0.2984794722222222,-1.4811276666666666,-0.8486275833333333,2.6403294
154,1715673394300,0.49528501399999997,-1.8164108200000002,-0.29572458,-1.8104671799999998,-0.92747671,3.0666810399999997
155,1715673394310,0.61844396,-1.6551236555555555,-0.2958438333333333,-2.1900368111111113,-1.0815538555555557,3.643081588888889
156,1715673394320,0.725798462,-1.51146015,-0.30717036,-2.35097604,-1.2658654999999999,4.00797858
157,1715673394330,0.82036496,-1.38326978,-0.328878954,-2.38845255,-1.4232396699999998,4.19794236
158,1715673394340,0.8846858,-1.3071494,-0.34331274,-2.3455698,-1.627345,4.316832
159,1715673394350,1.0143763,-1.1411032300000001,-0.371046052,-2.10716437,-1.98190654,4.4049342000000005
160,1715673394360,1.0938105333333334,-1.0532322888888888,-0.3841009955555556,-1.5794769999999998,-2.4428501333333332,4.498241988888889
161,1715673394370,1.1481279599999998,-0.98505752,-0.39441326,-1.291583,-2.64773432,4.59706658
162,1715673394380,1.18544718,-0.9084066999999999,-0.437281618,-1.0802236,-2.8207314400000003,4.73591604
163,1715673394390,1.263596711111111,-0.8062869133333332,-0.5136546333333334,-1.0334821888888888,-2.9885564666666666,4.8953721111111115
164,1715673394400,1.39434965,-0.7263838650000001,-0.5524712500000001,-1.1295662,-3.1939089,5.082857
165,1715673394410,1.5147713,-0.6973821600000001,-0.5177375160000001,-1.2864821599999998,-3.3191362599999996,5.226166
166,1715673394420,1.8244479000000002,-0.70089452,-0.31994550000000005,-1.76355264,-3.4588259100000003,5.60699459
167,1715673394430,2.0043852,-0.7056509,-0.19909698,-2.1284072,-3.44696,5.9220333
168,1715673394440,2.39632271,-0.63762867,-0.0802241914,-2.4220501000000003,-3.35760553,6.3260748300000005
169,1715673394450,3.2341399,-0.335324454,0.08538302719999999,-2.64290842,-3.28398098,6.8925455200000005
170,1715673394460,3.9886678,0.07093909999999999,0.29078932333333335,-2.4509440999999996,-3.323056066666667,7.090109399999999
171,1715673394470,4.5867615,0.54622087,0.615218825,-2.1064160000000003,-3.2897384,6.9749358
172,1715673394480,4.972881549999999,0.96542215,0.9350545499999999,-1.86298625,-3.0756302,6.84024
173,1715673394490,5.217560499999999,1.3297727,1.2107109,-1.6857590000000002,-2.6786442,6.7866367
174,1715673394500,5.314612277777778,1.5835138,1.398231988888889,-1.5299798444444446,-2.185183822222222,6.7305982222222225
175,1715673394510,5.31946299,1.7606941800000002,1.50270348,-1.3383751700000002,-1.6936239,6.588884210000001
176,1715673394520,5.23447624,1.93678372,1.52907696,-1.0618059739999999,-1.2335812000000002,6.349593130000001
177,1715673394530,4.9249519,2.1233252,1.428504,-0.28716776,-0.49261703200000007,5.6724947199999995
178,1715673394540,4.626171177777778,2.1383497444444446,1.2679397777777777,0.16630806,-0.18570304,5.2833734
179,1715673394550,4.11005079,2.0759382299999998,0.9948263430000001,1.0152581,0.20754147,4.6605964
180,1715673394560,3.4881364500000003,2.02965501,0.742518951,2.1592864599999997,0.5262298599999999,3.9173565599999995
181,1715673394570,2.89510784,1.94697948,0.43537907200000003,2.74654171,0.71393347,3.4649345400000002
182,1715673394580,2.5321598222222224,1.8903338666666667,0.21214653155555557,3.049031988888889,0.8356806444444445,3.0164864666666666
183,1715673394590,2.1812187400000003,1.83770481,0.0003902662000000029,3.05834256,0.85831151,2.66719036
184,1715673394600,1.7146732,1.77848805,-0.19379180000000001,2.542192,0.7387652,2.2328652
185,1715673394610,1.4147573,1.7485099888888889,-0.23734447333333333,1.8191057,0.6084387755555556,1.9397686222222221
186,1715673394620,1.1581163399999999,1.71320966,-0.18908420399999998,0.858235084,0.5410127819999999,1.6632639
187,1715673394630,0.92373681,1.67495738,-0.0986033124,-0.168751517,0.557689395,1.41022821
188,1715673394640,0.7870581,1.6433276,-0.049515083,-0.84116143,0.61285055,1.2596041
189,1715673394650,0.53375065,1.6294852,0.006463791700000001,-1.7296649,0.7304421,0.9631817999999999
190,1715673394660,0.2142259165,1.57693958,-0.041356072400000006,-2.15629311,0.758236473,0.511217849
191,1715673394670,0.0138422695,1.5500599,-0.046679553,-2.0089829999999997,0.642477525,0.183870435
192,1715673394680,-0.06689414866666667,1.5484371555555554,-0.03760381888888889,-1.8743212222222223,0.5872790511111111,0.022975319999999997
193,1715673394690,-0.214634474,1.56994528,-0.0231964752,-1.5303090400000001,0.47482554400000004,-0.475069904
194,1715673394700,-0.303139642,1.59533704,-0.062125575,-1.29440818,0.40211731300000003,-0.8631678380000001
195,1715673394710,-0.368283675,1.6212227,-0.14988679,-0.9349292759999999,0.1935526524,-1.3428955999999999
196,1715673394720,-0.38415351124999997,1.6106351625,-0.14841566750000001,-0.6209826900000001,-0.083134940625,-1.81499525
197,1715673394730,-0.3672843211111111,1.5326165666666667,-0.09727532222222221,-0.44895203111111115,-0.2507432088888889,-2.2196637777777775
198,1715673394740,-0.350166784,1.46882968,-0.0809681377,-0.40512582999999996,-0.298148044,-2.53774802
199,1715673394750,-0.3226611,1.3200363666666666,-0.04794995366666667,-0.5017239866666666,-0.28359419,-2.8684704666666665
200,1715673394760,-0.29981016,1.2200345799999999,-0.020769506434000003,-0.673784364,-0.19587393800000003,-3.0680402
201,1715673394770,-0.22178122,1.1949478,0.015824093915,-0.833953224,-0.078404552,-3.1568294000000003
202,1715673394780,-0.15126492,1.2066192199999999,0.050417575199999995,-0.9661444360000001,0.042607848,-3.23960164
203,1715673394790,-0.008211856666666668,1.2372334666666667,0.10355617777777777,-1.1498519777777778,0.25819237777777776,-3.3981246555555558
204,1715673394800,0.11628117599999999,1.2748305199999999,0.1323065,-1.2024576599999999,0.370825754,-3.5191336400000006
205,1715673394810,0.286004492,1.3358341,0.16150942,-1.18016106,0.478521296,-3.73269204
206,1715673394820,0.5107432199999999,1.3533717099999998,0.205688827,-0.8581129500000001,0.53275085,-4.1751875
207,1715673394830,0.7000164600000001,1.30507616,0.24935601,-0.5387525799999999,0.522045436,-4.455375999999999
208,1715673394840,0.7857030333333334,1.286111611111111,0.2882078722222222,-0.295438186,0.4922216511111111,-4.631003155555556
209,1715673394850,0.9358473,1.2529389,0.42691517,-0.033444874,0.45081854000000005,-4.8243084
210,1715673394860,1.28011731,1.23446227,0.7418664469999999,0.1541213006,0.685070084,-5.00623908
211,1715673394870,1.5138009555555554,1.2786721333333333,0.9158732222222221,0.13506909566666667,1.0013438666666667,-5.050633666666666
212,1715673394880,1.8925494,1.47085408,1.0901977600000001,-0.050274211400000005,1.6247793600000002,-5.1591846
213,1715673394890,2.18366388,1.64712052,1.16739734,-0.207174952,2.04529896,-5.3888394
214,1715673394900,2.5396806333333335,1.8569579666666667,1.2901565666666666,-0.42348233333333335,2.3972388000000002,-5.6735129
215,1715673394910,2.9660938900000002,2.11380015,1.55133451,-0.732076175,2.73730248,-5.933700780000001
216,1715673394920,3.5066435599999997,2.39338344,1.9492113199999999,-1.13614827,3.2628450799999995,-6.1972280600000005
217,1715673394930,3.8991358400000005,2.51397582,2.23645967,-1.4287221899999998,3.78847946,-6.38158709
218,1715673394940,4.234562611111111,2.4743380555555556,2.4032431222222224,-1.5637471222222221,4.36744911111111,-6.481195444444444
219,1715673394950,4.66948,2.2809258,2.519964,-1.4683673,4.941747,-6.472880999999999
220,1715673394960,4.9890837900000005,1.88021342,2.32161714,-0.02877173500000001,5.36219031,-6.10543013
221,1715673394970,5.094219977777778,1.5429964666666667,1.7225191111111111,3.168337388888889,4.999083611111111,-5.369607422222222
222,1715673394980,4.99485236,1.45849357,1.4077528099999999,4.37526107,4.592668269999999,-5.15556556
223,1715673394990,4.53544765,1.19946025,0.95328733,5.746180000000001,3.4896440999999996,-5.1596733
224,1715673395000,4.362084,1.0551835,0.82821906,5.838039,3.201392,-5.228243
225,1715673395010,3.6358584300000003,0.329116748,0.671581896,4.37124472,3.03219764,-5.202846060000001
226,1715673395020,3.08323478,-0.228501126,0.530219972,3.17402527,3.2786054900000003,-4.93656992
227,1715673395030,2.6154235777777775,-0.6353893466666667,0.33409132444444445,2.1150021666666667,3.6424537444444445,-4.430928088888889
228,1715673395040,2.1105012600000004,-0.985703856,0.046405140000000004,1.5149458599999999,3.72068856,-3.6639086
229,1715673395050,1.6999893800000003,-1.24546907,-0.158832449,1.35172266,3.56940776,-3.09652165
230,1715673395060,1.1724668,-1.4476251,-0.19696272,1.4659917666666666,3.1130033555555556,-2.159595288888889
231,1715673395070,0.9243588600000001,-1.52650368,-0.19679197199999998,1.75776476,2.83585034,-1.3153150679999999
232,1715673395080,0.7703193500000001,-1.5525601500000001,-0.28251649,2.1972058999999997,2.5303565,-0.19753853999999998
233,1715673395090,0.7731887111111111,-1.5388906111111114,-0.33233646666666666,2.354834577777778,2.2791213,0.4451341133333333
234,1715673395100,0.8096203919999999,-1.5043194400000002,-0.374509662,2.33142826,2.08418067,0.8250193360000001
235,1715673395110,0.8300362699999999,-1.46818324,-0.42217098399999997,2.17920068,1.94203228,0.99183138
236,1715673395120,0.7894485099999999,-1.4781106,-0.511566428,1.8569692199999999,1.80252591,0.9500023790000001
237,1715673395130,0.7176299744444444,-1.5038275777777779,-0.6081994177777779,1.2406164466666665,1.5720616666666667,0.79717914
238,1715673395140,0.581472941,-1.5571762100000002,-0.70097382,0.6347348079999999,1.3059840600000001,0.698768754
239,1715673395150,0.5171033,-1.5970445,-0.7001628,0.2275473,1.1155926,0.68294734
240,1715673395160,0.42611631299999997,-1.67347568,-0.6741856850000001,-0.46578476,0.823140888,0.813443446
241,1715673395170,0.30871312800000006,-1.76460288,-0.68525948,-1.17011238,0.436585392,1.1815966799999997
242,1715673395180,0.276077082,-1.7749022499999998,-0.7156637100000001,-1.4307533700000001,0.153999124,1.46957387
243,1715673395190,0.27003403800000003,-1.7567975699999998,-0.71252326,-1.68015433,-0.31768048,1.89887463
244,1715673395200,0.3118474766666666,-1.6892652666666668,-0.6143041333333333,-1.8651242666666665,-0.8589274333333334,2.447788
245,1715673395210,0.39148625299999995,-1.60026404,-0.49029083,-1.9833114600000001,-1.26551423,2.96344485
246,1715673395220,0.48890657800000004,-1.49162355,-0.407194492,-1.9995909900000002,-1.4775607999999998,3.3784513400000002
247,1715673395230,0.61219428,-1.3312361400000001,-0.353020612,-1.94447562,-1.69053902,3.8576139400000002
248,1715673395240,0.6778444222222223,-1.2539756222222223,-0.36280574,-1.8715383333333335,-1.8038850000000002,4.035070277777778
249,1715673395250,0.7845945599999999,-1.1186628,-0.44839202800000005,-1.75361082,-2.05394276,4.265336
250,1715673395260,0.846964043,-1.0078148900000001,-0.5295674850000001,-1.69056951,-2.3160498200000004,4.35762255
251,1715673395270,0.9359421455555554,-0.8858037311111111,-0.5591789833333334,-1.7003773666666668,-2.7860884222222224,4.377663888888889
252,1715673395280,1.0295113299999998,-0.851732664,-0.551032164,-1.76179646,-2.94522568,4.39859632
253,1715673395290,1.11135762,-0.8399271199999999,-0.5641548719999999,-1.8771888999999997,-3.1091514,4.47115185
254,1715673395300,1.1711727444444444,-0.8187605388888888,-0.5924058311111112,-1.9567201666666665,-3.227574433333333,4.533078311111111
255,1715673395310,1.28675802,-0.79419266,-0.62475594,-2.09224392,-3.5140939799999997,4.6350926
256,1715673395320,1.4102652,-0.8191060444444445,-0.6112009444444445,-2.2034927444444445,-3.7475225111111112,4.7372427777777775
257,1715673395330,1.69350585,-0.8829097375,-0.5330112575,-2.3825272625,-4.022051187500001,4.97198485
258,1715673395340,2.0299781799999996,-0.8869907380000001,-0.42294541399999996,-2.5252711700000003,-4.196873,5.2457138
259,1715673395350,2.536055666666667,-0.8363427888888889,-0.2500010644444444,-2.6833273111111113,-4.3991967333333335,5.663739088888889
260,1715673395360,3.0151758,-0.73437214,-0.07451654,-2.751337,-4.5254426,6.264423
261,1715673395370,3.9446082000000002,-0.45191662600000004,0.160167887,-2.54216156,-4.60296134,6.70410865
262,1715673395380,4.869166166666667,-0.11783885555555555,0.6220078277777777,-2.234511022222222,-4.580437111111111,7.101970444444444
263,1715673395390,5.40360775,0.283766575,1.0349384499999998,-2.18402646,-4.145973,7.30063392
264,1715673395400,5.8253805,0.7947008777777778,1.3770586666666667,-2.3571762666666665,-3.425019666666667,7.3968652
265,1715673395410,6.0327544,1.23988944,1.5875804,-2.65210202,-2.71324964,7.267860659999999
266,1715673395420,6.043511,1.76712744,1.70806316,-2.951426,-1.73247496,6.752596080000001
267,1715673395430,5.73845695,2.0411739,1.7080204,-2.62530017,-0.9483988799999998,5.88073875
268,1715673395440,5.313932100000001,1.96812704,1.61977736,-1.479210164,-0.582704352,5.14956342
269,1715673395450,5.084748,1.8642551,1.5461267,-0.60048056,-0.46807547999999993,4.828584
270,1715673395460,4.2435707,1.8075446,1.3536154999999999,2.83717887,-0.365083609,4.5472198200000005
271,1715673395470,3.7677807999999997,1.8766644500000003,1.30711895,4.6644143499999995,0.23854287000000002,4.35363685
272,1715673395480,3.5052167400000003,1.9119042700000002,1.2275411960000002,4.96373815,1.1397218,4.091193649999999
273,1715673395490,2.9264105555555555,1.9492872,0.6074880322222223,4.570391866666666,1.7954856333333333,3.858072166666667
274,1715673395500,2.5603566800000004,2.00397052,0.21108549399999998,3.6125350000000003,2.09254942,3.4318103800000004
275,1715673395510,2.0676876500000003,2.03075251,-0.078760694,2.63081329,1.9983998200000002,2.8298942499999997
276,1715673395520,1.3978254444444445,1.8581097333333334,-0.24326622222222222,1.8324260777777779,1.842556188888889,2.2403992111111113
277,1715673395530,1.170739,1.7767500000000003,-0.310262,1.1615603,1.7939585,1.7851009000000002
278,1715673395540,0.836481716,1.72131389,-0.45661201,0.731923447,1.58547025,1.5158621
279,1715673395550,0.44100136,1.6819273,-0.6224753,0.30336247093333335,1.1349197755555556,1.2242927
280,1715673395560,0.07501656999999999,1.69850149,-0.5949249799999999,-0.15201381147999998,0.62213572,0.8621140799999999
281,1715673395570,-0.15019846111111113,1.7532526222222224,-0.5121233866666667,-0.4157277277777778,0.3964685044444444,0.6065891755555555
282,1715673395580,-0.37648537800000004,1.89080544,-0.57094792,-0.77207259,0.104977188,0.11685851600000001
283,1715673395590,-0.52320126,2.02993545,-0.5906137499999999,-1.006553175,-0.27229318,-0.4315762899999999
284,1715673395600,-0.5998927000000001,2.0881909,-0.54159666,-1.1929688999999999,-0.5293147333333333,-0.8828020666666666
285,1715673395610,-0.6393177800000001,2.05613214,-0.43237888799999996,-1.48791506,-0.77824232,-1.4438410400000001
286,1715673395620,-0.664185096,1.97943256,-0.28016269,-1.8142087199999999,-0.9380446600000001,-2.0238576999999998
287,1715673395630,-0.66894144,1.9226122,-0.1803154,-1.9882137,-0.9812023,-2.363896
288,1715673395640,-0.6114855444444445,1.766458111111111,-0.02896510288888889,-2.0102728,-0.9614509855555554,-2.893906211111111
289,1715673395650,-0.49867543599999997,1.64699848,0.06913818000000001,-1.8291443,-0.9354179779999999,-3.1613499000000003
290,1715673395660,-0.26062496,1.57481745,0.24830717,-1.5783231,-0.9196576499999999,-3.3469307
291,1715673395670,-0.10409144000000001,1.58654378,0.35620370799999995,-1.28788716,-0.8306851,-3.5585344
292,1715673395680,0.127354988,1.60917319,0.464899063,-1.0523375700000002,-0.618363608,-3.86080575
293,1715673395690,0.44105555111111117,1.6270325555555556,0.48840246333333337,-0.8510880111111111,-0.25573194666666665,-4.302493777777777
294,1715673395700,0.597498288,1.6514743800000002,0.47843645500000004,-0.5864306349999999,-0.12461651,-4.655175000000001
295,1715673395710,0.8499276400000001,1.61566738,0.45852676,-0.1932472244,-0.0441350142,-5.1255564
296,1715673395720,1.03979236,1.53860194,0.46642964400000003,0.1667662152,0.006444628200000001,-5.56003434
297,1715673395730,1.167751,1.4738665,0.4978949,0.41250373333333334,0.06266459155555555,-5.873995511111111
298,1715673395740,1.3210039400000002,1.33816344,0.604010826,0.579802728,0.19853120400000002,-6.14619
299,1715673395750,1.46289024,1.22376644,0.7068827040000001,0.557506182,0.48078149200000003,-6.23675092
300,1715673395760,1.66232869,1.19960043,0.80748005,0.367343829,0.96092154,-6.17906974
301,1715673395770,1.8560432111111114,1.4028257666666666,0.9130072266666667,0.09492166777777777,1.5125871777777777,-6.195412466666666
302,1715673395780,2.16388242,1.79540966,0.9400792640000001,-0.252898212,2.2204035400000004,-6.59737516
303,1715673395790,2.43166625,2.0824386,1.0145104,-0.68966686,2.6141977,-7.1730852
304,1715673395800,2.7204331,2.3600462500000003,1.2672081,-1.1260537000000002,2.92314285,-7.49027705
305,1715673395810,3.0474096,2.5481608000000002,1.5640547599999999,-1.4059368600000002,3.3231986,-7.52234742
306,1715673395820,3.4886387,2.681985666666667,1.8497827666666664,-1.3986777666666665,3.809406666666667,-7.322441666666667
307,1715673395830,3.9532916800000004,2.70907272,2.05492472,-1.07103004,4.2278596,-6.9982248
308,1715673395840,4.39361,2.5037436,2.1087816,-0.528093,4.558582,-6.688516
309,1715673395850,4.5140682299999995,2.40372558,2.00239124,0.12029461999999999,4.62457062,-6.45339403
310,1715673395860,4.9047375,2.1387224,1.407948,3.5344662222222225,4.3650392,-5.386321377777778
311,1715673395870,5.09215709,2.06507168,1.26100043,5.48498963,3.18854856,-5.0522221
312,1715673395880,4.9333796,1.76795066,1.1938197,5.21715558,2.9629102,-5.20331952
313,1715673395890,4.3531876,1.064716571111111,1.0201069777777778,4.0706871555555555,3.185645277777778,-5.3820621
314,1715673395900,3.68215366,0.33286086400000003,0.74978766,2.78684355,3.5992180499999997,-5.31483315
315,1715673395910,2.85705685,-0.49152255,0.38694333,2.12006886,3.77505568,-4.93988406
316,1715673395920,2.2791776333333336,-1.0528052944444444,0.09950445955555555,2.054543477777778,3.685536666666667,-4.221757666666666
317,1715673395930,1.88230486,-1.38258066,-0.1349712808,2.41945402,3.3958914,-3.58348834
318,1715673395940,1.3813062,-1.70861187,-0.44748949,3.3506722600000005,2.57385005,-2.42160722
319,1715673395950,1.1969601,-1.7934582,-0.54375124,3.7093265,2.1158845,-1.9055941000000003
320,1715673395960,1.02982838,-1.8134594,-0.5668744880000001,3.8121961,1.6342783400000003,-1.3870917
321,1715673395970,0.784838489,-1.79628775,-0.337263567,3.1599906,1.19367651,-0.725646824
322,1715673395980,0.6559041600000001,-1.80382484,-0.203255754,1.80055582,1.033064784,-0.09376781199999999
323,1715673395990,0.6016815,-1.8142523000000002,-0.17812014,1.2258538,1.1058189,0.03726278
324,1715673396000,0.4946833688888888,-1.8721485,-0.1867520911111111,-0.1020145,1.1996885,0.3240640233333333
325,1715673396010,0.426085856,-1.9211792499999998,-0.23051344899999998,-0.7371463799999999,1.105299595,0.535102689
326,1715673396020,0.39413275600000003,-1.93995474,-0.301932248,-1.03062132,0.74809613,0.8487667200000001
327,1715673396030,0.38410777,-1.9447476,-0.33325115,-1.0534371,0.4653265999999999,1.0477866
328,1715673396040,0.399852608,-1.9611753800000002,-0.321750486,-0.8739953999999999,-0.12034045,1.4527903
329,1715673396050,0.41795119999999997,-1.9590777,-0.28233355,-0.70921457,-0.51175237,1.8000672000000002
330,1715673396060,0.4513881388888889,-1.9186687999999998,-0.24367953444444446,-0.6327885522222223,-0.8332032411111111,2.199301511111111
331,1715673396070,0.6013765299999999,-1.81254475,-0.16622922,-0.9710466600000001,-1.20479422,2.9087418
332,1715673396080,0.74114078,-1.7115633,-0.0684491165,-1.44408545,-1.3371840000000002,3.4051156
333,1715673396090,0.8703285222222222,-1.6046803333333335,-0.0030150812222222226,-1.8718947555555556,-1.3272744444444444,3.7377996666666666
334,1715673396100,0.9800267,-1.4848122,-0.023995304000000002,-2.2294749400000002,-1.2841609,3.9818947199999997
335,1715673396110,1.0563963555555556,-1.3754731777777778,-0.10564301999999999,-2.514949266666667,-1.3131396888888889,4.203228122222222
336,1715673396120,1.10833293,-1.28048327,-0.214975953,-2.57766816,-1.4739568200000002,4.36814464
337,1715673396130,1.1608942444444443,-1.1701767555555556,-0.34393606111111114,-2.481182011111111,-1.7067744888888887,4.497681955555556
338,1715673396140,1.20822908,-1.0330968200000001,-0.421500232,-2.22654276,-2.05736362,4.61749996
339,1715673396150,1.2306206,-0.9169437,-0.45496555999999994,-2.0033326,-2.3284657,4.6815186
340,1715673396160,1.2560963333333333,-0.8316271222222222,-0.4833683155555556,-1.8856392666666666,-2.5390105,4.714912377777777
341,1715673396170,1.27925756,-0.764764075,-0.489662706,-1.8743484000000001,-2.76899108,4.752440040000001
342,1715673396180,1.38630035,-0.8072421999999999,-0.414871765,-2.22813105,-3.0837241,4.9380817
343,1715673396190,1.50318522,-0.849634912,-0.35753304799999996,-2.4738821,-3.16156364,5.1130946
344,1715673396200,1.8349444111111113,-0.8477323822222221,-0.22795368000000002,-2.9373115666666667,-3.2235867777777774,5.547962955555556
345,1715673396210,2.19556708,-0.798619756,-0.086773354,-3.2546289200000005,-3.2380438999999996,5.9109764
346,1715673396220,2.6966818,-0.7192493,0.09211919666666667,-3.5310047333333334,-3.228524566666666,6.345108266666667
347,1715673396230,3.16220899,-0.62600602,0.23819072800000002,-3.6404820399999998,-3.21159344,6.718784599999999
348,1715673396240,3.81045386,-0.371875332,0.44894083599999995,-3.4232582000000003,-3.19461144,6.9981944
349,1715673396250,4.3330371,-0.056249896666666674,0.7080358977777776,-3.097714488888889,-3.165452666666667,7.111370977777778
350,1715673396260,4.776254,0.33977592,1.0331091,-2.6177104,-2.973234,7.0403748
351,1715673396270,5.0401964,0.61703601,1.22127864,-2.3305578799999997,-2.67429173,6.973561550000001
352,1715673396280,5.56051926,1.42575392,1.6778662199999999,-1.89991308,-1.7385530599999999,6.87208138
353,1715673396290,5.534604744444445,2.026683244444444,1.7980248777777779,-1.908410911111111,-0.6214705044444444,6.707351166666666
354,1715673396300,5.340238579999999,2.32136712,1.6925621199999998,-1.9544939199999998,0.115850594,6.45165308
355,1715673396310,5.0106706,2.43054416,1.4718419600000001,-1.6021468200000002,0.560743746,6.06531162
356,1715673396320,4.5975427,2.4444109099999998,1.2469751900000001,-0.577130211,0.689483598,5.59942008
357,1715673396330,4.0364244,2.4144091,1.0268281499999998,1.559813898,0.48429398,5.06611936
358,1715673396340,3.7996728,2.414287,0.9448112,2.8725939,0.33750305,4.813771
359,1715673396350,3.4471707,2.4280624,0.8120534599999999,4.13680995,0.306165671,4.455177699999999
360,1715673396360,2.9491963,2.4341056,0.5388729,5.1208835,0.4353942,3.8293613999999994
361,1715673396370,2.53255014,2.4019268,0.271278029,4.865144620000001,0.575297624,3.24897834
362,1715673396380,1.7854578800000003,2.22055644,-0.1416546,3.56632296,0.76596389,2.1538802400000003
363,1715673396390,1.3712386,2.025667,-0.307274,2.3693936,0.83169305,1.587486
364,1715673396400,0.865593213,1.85392522,-0.462344065,0.693332065,0.812435522,1.1031921199999999
365,1715673396410,0.417341415,1.7788537500000001,-0.54292801,-0.954400575,0.51572299,0.6950883
366,1715673396420,0.28910223,1.7704081999999999,-0.53515315,-1.51309792,0.327637562,0.512179994
367,1715673396430,0.16929849,1.7621963999999999,-0.4387654233333333,-2.1273382,0.05467244,0.16142114
368,1715673396440,-0.0404901674,1.7373208999999998,-0.21023177899999998,-2.41714802,-0.161818201,-0.41769438000000003
369,1715673396450,-0.09598121,1.7248566999999997,-0.17061971,-2.3732114,-0.23365596000000002,-0.6910413
370,1715673396460,-0.22758645500000002,1.70098339,-0.158600723,-2.1068438,-0.315435549,-1.04784765
371,1715673396470,-0.3682667466666667,1.6658627888888888,-0.19387987666666665,-1.4564385555555557,-0.7190223377777777,-1.7012088555555556
372,1715673396480,-0.48626007599999993,1.63759554,-0.10204254360000001,-1.14934296,-1.032728756,-2.2044600599999997
373,1715673396490,-0.513176244,1.5672134,0.09666417460000001,-1.2575577199999999,-1.14497522,-2.66462486
374,1715673396500,-0.4993313022222222,1.4572259444444444,0.28687987555555555,-1.7019385555555557,-0.9582100222222222,-3.0435173555555557
375,1715673396510,-0.47058845799999993,1.3937886,0.38370530999999997,-2.08604386,-0.7036251680000001,-3.2534377599999997
376,1715673396520,-0.35892339,1.35944516,0.45348988199999996,-2.44950854,-0.2535396256,-3.52313476
377,1715673396530,-0.20525587333333334,1.3604248666666665,0.47878810000000005,-2.348641111111111,0.035616835555555545,-3.727363922222222
378,1715673396540,-0.0559057033,1.37731198,0.49374830999999997,-2.05745528,0.17525723399999998,-3.8789942600000002
379,1715673396550,0.022806209,1.4008744,0.500578,-1.6050484,0.24648412999999997,-4.0585885
380,1715673396560,0.256261561,1.4349685333333333,0.5005237777777778,-0.8819197244444444,0.2534072766666666,-4.318545744444444
381,1715673396570,0.5568739490000001,1.41275924,0.53120781,0.413891742,0.146668745,-4.86096023
382,1715673396580,0.853287585,1.35184108,0.59347978,1.13889716,0.12786937,-5.29612561
383,1715673396590,1.0285966,1.2951975,0.6415009,1.2748758,0.19532417,-5.5093937
384,1715673396600,1.3040259666666667,1.2392931111111112,0.7402193222222222,0.5935064777777778,0.6639426666666667,-5.679943777777778
385,1715673396610,1.5024840899999998,1.23491961,0.7899241,-0.0865290625,1.15487128,-5.758535
386,1715673396620,1.7365647599999998,1.2913070599999998,0.827194604,-0.64043112,1.7464025800000003,-5.86238208
387,1715673396630,1.96307792,1.35499366,0.874636436,-0.78007491,2.1548424099999997,-5.98095099
388,1715673396640,2.15958941,1.42401601,0.9211025209999999,-0.685009022,2.5019971500000002,-6.11839592
389,1715673396650,2.351214422222222,1.5453070555555555,0.9615533655555555,-0.57543504,2.659249,-6.1981444
390,1715673396660,2.62347631,1.8007575800000002,1.00191214,-0.09343184,3.02023992,-6.52914176
391,1715673396670,2.99447359,2.18267612,1.07735557,0.363235739,3.19771157,-6.9471874499999995
392,1715673396680,3.1860193,2.3625294444444442,1.1660436333333333,0.4897612133333333,3.2413189555555553,-7.185624844444444
393,1715673396690,3.7026018,2.568968375,1.518084,0.189902727,3.6302957,-7.3105298
394,1715673396700,3.9315526500000004,2.55638684,1.6127038500000002,-0.046318857199999994,4.001045169999999,-7.251092700000001
395,1715673396710,4.2318446,2.36427208,1.572543,-0.011636985999999993,4.49972518,-7.03041772
396,1715673396720,4.294410555555555,2.083949555555556,1.3006789222222221,0.8477791611111111,4.685743722222223,-6.671225333333333
397,1715673396730,4.215337180000001,1.8708409499999998,1.01024192,2.1597141,4.315824,-6.28149679
398,1715673396740,4.02455176,1.65990172,0.81362062,3.9871786399999998,3.2885624200000003,-5.67325842
399,1715673396750,3.8924221700000006,1.5549444000000001,0.8162305200000001,4.8479794400000005,2.65353748,-5.27301948
400,1715673396760,3.7431452,1.4756958,0.7972416,5.07461,2.3631322,-5.035515
401,1715673396770,3.19550336,0.983264628,0.597821496,4.16802518,2.3213949099999995,-4.85340066
402,1715673396780,2.58832155,0.316847738,0.41063373,2.85524518,2.51042719,-4.63996436
403,1715673396790,2.1645570333333333,-0.10498580933333332,0.2984117333333333,1.6175711333333334,2.7475701,-4.264195833333334
404,1715673396800,1.68109806,-0.5353849159999999,0.1795592656,0.8181318560000002,2.89134738,-3.74591722
405,1715673396810,1.3307687000000001,-0.8368984666666667,0.07953716293333334,0.5520864555555556,2.9047491333333335,-3.1211479777777775
406,1715673396820,0.9479333640000001,-1.1600312000000002,-0.07308963152,0.69623368,2.7818192799999997,-2.33628456
407,1715673396830,0.728481528,-1.3311753,-0.209487834,1.10229109,2.5264471,-1.56444114
408,1715673396840,0.5562926133333334,-1.4345958666666667,-0.33223482666666665,1.5917112666666666,2.1062634,-0.8450302766666666
409,1715673396850,0.5207499240000001,-1.46041448,-0.334202424,1.98349476,1.6603012199999998,-0.17776178099999998
410,1715673396860,0.5346517977777778,-1.4663592666666667,-0.28270621111111116,2.1102679333333336,1.4097073222222223,0.21135936666666666
411,1715673396870,0.565063422,-1.49129431,-0.219140842,1.9690782800000002,1.20244238,0.61217859
412,1715673396880,0.586522016,-1.535736,-0.19468209,1.6241837700000001,1.12651189,0.7732790209999999
413,1715673396890,0.5940861511111111,-1.5728357111111113,-0.1925925411111111,0.9967963499999999,1.0898345,0.8540065644444444
414,1715673396900,0.584759748,-1.61086838,-0.21048789,0.5815436979999999,1.0595763000000002,0.88633492
415,1715673396910,0.54164748,-1.6591759700000002,-0.26947913,0.22313379820000004,0.9830196000000001,0.9270643809999999
416,1715673396920,0.4531667,-1.7128377000000001,-0.359594149,-0.1279151792,0.7684226599999999,1.054078519
417,1715673396930,0.3400875933333334,-1.7611461444444445,-0.4404051088888889,-0.45906521666666666,0.35654168866666663,1.3640620333333333
418,1715673396940,0.29052913399999997,-1.77339618,-0.44081840000000005,-0.70273937,-0.08918632039999999,1.8379103
419,1715673396950,0.310140032,-1.75043751,-0.404560181,-0.9222538,-0.4611269,2.3779458
420,1715673396960,0.34941062,-1.7160757,-0.37246075,-1.0057896,-0.591623,2.6035078
421,1715673396970,0.4754789710000001,-1.55604809,-0.277107635,-1.21213993,-0.85823512,3.19067132
422,1715673396980,0.5954006,-1.39187995,-0.21736024999999998,-1.5036448,-1.05771315,3.82103835
423,1715673396990,0.67063669,-1.28464198,-0.20770114099999998,-1.66118692,-1.14260813,4.10307481
424,1715673397000,0.7530520666666667,-1.1449448333333332,-0.23659917,-1.8069394,-1.2816462,4.359796033333333
425,1715673397010,0.80966308,-1.02062663,-0.269777945,-1.87699039,-1.47585047,4.48141431
426,1715673397020,0.8662090640000001,-0.91143124,-0.27285738,-1.9218125799999999,-1.71747818,4.51795944
427,1715673397030,0.9280968319999999,-0.85164721,-0.26092985999999996,-1.93803103,-1.88584793,4.5359646
428,1715673397040,0.9881538666666666,-0.8322233666666666,-0.26055721333333337,-1.9142480333333336,-2.0676262333333333,4.5894814
429,1715673397050,1.01647394,-0.79305848,-0.306749598,-1.84835604,-2.17138166,4.6441336
430,1715673397060,1.0287185,-0.758032,-0.35319135,-1.7476854,-2.2687535,4.702288
431,1715673397070,1.0533338333333335,-0.7087337577777778,-0.40995619555555557,-1.5324573333333333,-2.4912101888888887,4.845400266666666
432,1715673397080,1.1620984,-0.70484597,-0.41285947500000003,-1.4058606,-2.7503596200000002,5.0489083
433,1715673397090,1.44151715,-0.73080482,-0.30824971,-1.5788117199999998,-2.9375593600000003,5.32973792
434,1715673397100,1.816671088888889,-0.7204349622222223,-0.1855392888888889,-1.9908945999999998,-2.9892860444444445,5.660345166666667
435,1715673397110,2.14684482,-0.69512591,-0.09120044399,-2.43251113,-3.00024938,5.9547143
436,1715673397120,2.5446120199999998,-0.661215447,0.013208088029999999,-2.85373328,-3.0114129299999997,6.23951485
437,1715673397130,2.8652282,-0.62570727,0.09695688,-3.172155422222222,-3.0486078333333335,6.783437888888889
438,1715673397140,3.54418228,-0.49530329900000003,0.312774363,-3.15166766,-3.08086832,7.2122416000000005
439,1715673397150,4.54747248,-0.22373256000000002,0.650867262,-2.97857896,-3.01373422,7.5352366
440,1715673397160,5.05867344,0.113860311,0.86848968,-2.8080559999999997,-2.8484035,7.7623256
441,1715673397170,5.622239,0.7377463066666666,1.2123471333333333,-2.5820765000000003,-2.3396138666666664,7.964257533333334
442,1715673397180,5.919004200000001,1.42921756,1.4734762,-2.4329999399999998,-1.61700615,7.773794619999999
443,1715673397190,5.85942745,1.8648345,1.4607559499999998,-2.23753838,-0.8810815,7.140128679999999
444,1715673397200,5.56049524,1.95762648,1.33261434,-1.7202271,-0.413616852,6.323066020000001
445,1715673397210,5.128287,1.9135466,1.1418958766666667,-0.7959573977777777,-0.12487103511111111,5.493986222222222
446,1715673397220,4.607647,1.7797013200000003,0.8969303780000001,0.03819435100000003,-0.0914465278,5.12007411
447,1715673397230,4.19237887,1.72622872,0.701553125,1.06229464,-0.10876455199999999,4.78991676
448,1715673397240,3.76459774,1.76157838,0.525981918,2.0854328000000004,-0.12043208399999998,4.40763716
449,1715673397250,3.518491133333333,1.8078629333333334,0.4415162977777778,2.4188735,-0.11484266999999998,4.2174134
450,1715673397260,3.12101125,1.8412233,0.341080873,2.7595531600000003,-0.030527990899999996,3.5522731100000002
451,1715673397270,2.54208727,1.8093738599999998,0.1785043102,2.5935812,0.0642935676,3.0836783599999995
452,1715673397280,2.0035179333333333,1.7889865111111112,0.045144912333333335,2.0866308444444446,0.10522153666666666,2.646522822222222
453,1715673397290,1.8446197999999998,1.7924826,0.017988855,1.397781906,0.125502264,2.28570514
454,1715673397300,1.3591159400000001,1.7451749800000003,-0.110140566,0.51844133,0.145233212,1.87905206
455,1715673397310,1.0905393,1.70966074,-0.150362428,-0.074678269,0.091904678,1.59348776
456,1715673397320,0.8094578333333334,1.6671298333333333,-0.14834199333333334,-0.7638361,0.02275473,1.2371547999999999
457,1715673397330,0.527774712,1.6244118999999997,-0.13952034,-1.28651278,-0.018784106000000002,0.93318832
458,1715673397340,0.293578106,1.6043132,-0.149423362,-1.5424347600000001,-0.098471476,0.641194708
459,1715673397350,0.1407277268,1.59255642,-0.15321626,-1.5882497199999999,-0.19040669600000001,0.407447114
460,1715673397360,-0.0707358382,1.57948243,-0.134544441,-1.44903348,-0.388815736,0.072326446
461,1715673397370,-0.22653762000000002,1.5607008,-0.09177365,-1.3116804,-0.55924714,-0.19120082
462,1715673397380,-0.378156216,1.5899464399999998,0.0180986168,-1.1344684099999998,-0.682244858,-0.600297274
463,1715673397390,-0.491943368,1.6312781400000003,0.12015335,-1.0195341,-0.7212791000000001,-1.12956615
464,1715673397400,-0.51204212,1.6465595499999999,0.22431186999999997,-1.0358747000000001,-0.6797402650000001,-1.4592043000000001
465,1715673397410,-0.49120077777777776,1.6530165777777777,0.2764185722222222,-1.0252693888888889,-0.5797959433333334,-1.7743768555555557
466,1715673397420,-0.45680106700000006,1.6522428200000001,0.28985228999999996,-0.973826096,-0.48881435800000006,-2.03286787
467,1715673397430,-0.348215446,1.60898414,0.305493452,-0.762604188,-0.37953058,-2.49416276
468,1715673397440,-0.25830775,1.5760067,0.35642326,-0.5571091,-0.30085114,-2.8252518
469,1715673397450,-0.1417643653,1.5357847599999999,0.342855388,-0.2801428213,-0.11207850099999998,-3.1734601600000003
470,1715673397460,0.013153207300000002,1.52164978,0.264100787,-0.020448711700000004,0.0166460783,-3.5404222400000003
471,1715673397470,0.19519432,1.5351505,0.19330397,0.1253801,0.035888333,-3.7960693999999995
472,1715673397480,0.456990055,1.54507794,0.11892768000000001,0.275255881,0.0123242067,-4.322512919999999
473,1715673397490,0.7046142444444444,1.4686832222222224,0.04952863555555556,0.3160379266666667,0.017189069333333334,-4.707870488888889
474,1715673397500,0.870550772,1.38819068,0.020220692000000002,0.301462004,0.0075747288,-5.18676518
475,1715673397510,1.078081215,1.28284925,0.034209311,0.249599544,-0.0004886922800000002,-5.51302834
476,1715673397520,1.2621468500000002,1.213455,0.07091876999999999,0.1611157116,0.035735615379999995,-5.76012316
477,1715673397530,1.4258623,1.1653864555555555,0.10703876444444445,0.04199698777777778,0.12015380222222222,-6.015953333333333
478,1715673397540,1.5092343,1.1417739,0.13092227,-0.01985312,0.17012598,-6.144235
479,1715673397550,1.5515112,1.14874383,0.152472308,-0.06172793,0.195919758,-6.2132323
480,1715673397560,1.6871106555555555,1.1758612888888889,0.23386865666666667,-0.2670159888888889,0.32906971111111116,-6.450720044444444
481,1715673397570,2.0051596999999997,1.3591951,0.44106839999999997,-0.7346570699999999,0.707672093,-6.638562760000001
482,1715673397580,2.4228425600000003,1.76436517,0.65269053,-1.15349681,1.169211337,-6.688714709999999
483,1715673397590,3.0180148444444446,2.3065979999999997,0.9066382611111111,-1.5147591555555555,1.743070077777778,-6.700547122222222
484,1715673397600,3.4549698399999995,2.5869558,1.0647206820000001,-1.63232362,2.24419674,-6.73133804
485,1715673397610,3.9178627599999998,2.70525542,1.19766752,-1.4098464800000001,2.8197234,-6.822601199999999
486,1715673397620,4.3503454,2.4992923,1.1610129,-0.5467243798,3.3722817,-6.81565265
487,1715673397630,4.558816244444444,2.3080481555555554,1.0816688,0.24860519808888892,3.5489575555555555,-6.677317111111111
488,1715673397640,4.62630035,2.06524856,0.94414657,1.4813482900000001,3.41401897,-6.253381500000001
489,1715673397650,4.544972400000001,1.8780729399999998,0.7990343799999999,2.4742486599999998,3.10835732,-5.80923676
490,1715673397660,4.281992000000001,1.6105033,0.6968960828571429,2.9126054142857143,2.7065911428571425,-5.471410857142857
491,1715673397670,3.887035666666667,1.2660969555555557,0.6920932355555556,2.7986621222222223,2.4839476333333335,-5.286241066666666
492,1715673397680,3.3988935400000004,0.77505746,0.719444416,1.9502484,2.68405022,-5.07378574
493,1715673397690,2.68893745,0.13665432649999998,0.6722343150000001,0.8153524000000001,3.3063081500000004,-4.634176500000001
494,1715673397700,2.4176412,-0.042014647,0.63741523,0.4491556666666667,3.649224133333333,-4.210286966666667
495,1715673397710,1.8143986,-0.590144198,0.48328426999999996,0.41013493,3.89719818,-3.5955834600000003
496,1715673397720,1.4963800299999999,-0.8638004299999998,0.39084596,0.723325554,4.02102052,-2.89690622
497,1715673397730,1.1953339666666667,-1.0586390333333333,0.25615315000000005,1.3508776333333334,4.023243255555556,-2.148311233333333
498,1715673397740,0.8716158777777777,-1.202346588888889,0.04603249000000001,2.0989839333333333,3.9016471333333334,-1.4272357666666666
499,1715673397750,0.7269936,-1.2582442,-0.07036996,2.6977336,3.73651,-0.8917105
500,1715673397760,0.5900954,-1.3195891,-0.22135438000000002,3.2829425,3.4379497,-0.24602598000000003
501,1715673397770,0.479985322,-1.29913684,-0.34412982799999997,3.58781009,2.95866468,0.505735349
502,1715673397780,0.4584617133333333,-1.2570246555555555,-0.33802109,3.3960375111111114,2.4799261111111113,1.1573859777777775
503,1715673397790,0.511828658,-1.26145773,-0.275680719,2.76367651,2.3551452,1.35413553
504,1715673397800,0.57664953,-1.31019835,-0.22781816,1.63070475,2.3857342,1.41613835
505,1715673397810,0.59637628,-1.36372584,-0.228427946,0.7353901159999999,2.4869546,1.34216254
506,1715673397820,0.5507434666666666,-1.4237009,-0.3099367766666667,-0.14908504555555557,2.566058244444444,1.1781893333333333
507,1715673397830,0.41886587999999997,-1.48230602,-0.46600281,-0.7233560640000001,2.4255932000000002,1.05456716
508,1715673397840,0.32431159200000004,-1.52912578,-0.549605214,-1.04286912,2.1371884700000003,1.03074341
509,1715673397850,0.2482529566666667,-1.5702474666666666,-0.6243317888888889,-1.1574877555555554,1.7825047999999997,1.1022214777777777
510,1715673397860,0.15415533,-1.6432056,-0.7245545,-1.2084441,1.2651019,1.2371548
511,1715673397870,0.145685333,-1.6944768799999999,-0.741970128,-1.129688386,0.513508595,1.55764527
512,1715673397880,0.230476866,-1.6602676199999997,-0.6002544910000001,-0.9533010120000001,-0.603366867,2.27551885
513,1715673397890,0.36150484666666666,-1.5705862000000002,-0.47497350000000005,-0.9275140111111111,-0.9812022866666665,2.6980729777777777
514,1715673397900,0.41441443600000005,-1.5237596100000002,-0.43970249599999994,-1.02307714,-1.164752,3.0279521899999997
515,1715673397910,0.57631414,-1.34948122,-0.379058692,-1.4943291,-1.3254248499999999,3.5589009500000004
516,1715673397920,0.7068095499999999,-1.2077534,-0.368710535,-1.86298626,-1.37731784,3.80309438
517,1715673397930,0.8125677222222222,-1.103018288888889,-0.4112841655555556,-2.1805852999999997,-1.4634295333333334,3.9663479999999995
518,1715673397940,0.8980402,-1.03231634,-0.472832468,-2.3457531,-1.6160746200000002,4.0464018
519,1715673397950,0.98808209,-0.9312068,-0.603492491,-2.31788232,-1.98528156,4.0167445
520,1715673397960,1.06487926,-0.8512447999999999,-0.75632459,-2.13466866,-2.5171009,3.87456548
521,1715673397970,1.0826242,-0.84187835,-0.79803437,-2.0476203,-2.7157543,3.8168387
522,1715673397980,1.2899228,-0.9389815970000001,-0.884143001,-1.83783387,-3.4923167199999994,3.68965658
523,1715673397990,1.52591215,-1.1547930000000002,-0.8107485000000001,-1.9422460000000001,-4.14800415,3.8667008499999995
524,1715673398000,1.8324239500000001,-1.39767305,-0.639092165,-2.0850358,-4.35944,4.04515
525,1715673398010,2.2651050888888893,-1.5415533333333333,-0.41347940555555557,-2.711953288888889,-4.447777555555556,5.128722777777778
526,1715673398020,2.65602706,-1.5743417599999998,-0.21505522708,-3.03383179,-4.36608304,5.8215611
527,1715673398030,3.5735865099999997,-1.31680244,0.042136605439999995,-3.48396304,-3.9989224,7.155095299999999
528,1715673398040,4.681296166666666,-0.6786778055555556,0.2615057722222222,-3.8966586333333333,-3.828055,8.022052111111112
529,1715673398050,5.12861635,-0.353215748,0.38605300899999995,-4.1678879,-3.76764893,8.1855944
530,1715673398060,5.634109075,0.21271057875,0.6589027774999999,-4.2537027625,-3.6385425625,7.952835949999999
531,1715673398070,6.1245646,1.1830568,1.1747028,-4.024533,-3.2863023,7.2663946
532,1715673398080,6.01222882,1.6749148200000001,1.45013346,-3.02925024,-2.69642026,6.21234676
533,1715673398090,5.559301333333334,1.8855097222222221,1.5243233444444444,-1.00244682,-1.9820201666666668,5.379398388888889
534,1715673398100,5.2311712,1.94686968,1.45617032,0.53901224,-1.56816745,5.5449005
535,1715673398110,4.77774825,2.13982,1.40669795,1.71960094,-1.139828712,5.684773300000001
536,1715673398120,4.4009946499999995,2.24753972,1.35265211,3.21858785,-0.346284252,5.586255790000001
537,1715673398130,3.9936679,2.2714334000000003,1.10467828,4.047135000000001,0.48288897999999997,5.294369033333334
538,1715673398140,3.42962682,2.3258918,0.7049557959999999,4.44902321,1.2162327,4.9516430499999995
539,1715673398150,2.96968551,2.36619293,0.381083212,4.25174428,1.7153706899999999,4.486393
540,1715673398160,2.52723899,2.3597291900000004,0.08157182700000001,3.6502405500000004,2.01093791,3.82129811
541,1715673398170,2.2438505,2.3017197,-0.10116444,3.1881058,2.1248949,3.3043227
542,1715673398180,1.75237661,2.08171901,-0.34905085199999997,2.41059646,2.0637471400000003,2.48658802
543,1715673398190,0.90215628,1.6854336499999998,-0.614090725,1.13804195,1.6420821,1.54938335
544,1715673398200,0.47096649600000007,1.60145926,-0.579143564,0.67720522,1.3420709,1.4319597600000002
545,1715673398210,0.10748595377777777,1.646410388888889,-0.46327906,0.05823582,0.9350311222222223,1.3850182222222223
546,1715673398220,-0.11397005639999999,1.77184724,-0.41242648800000004,-0.267131366,0.8206364,1.28849812
547,1715673398230,-0.301907845,1.9682855499999998,-0.454386265,-0.45959973499999995,0.74487383,1.06855605
548,1715673398240,-0.41796475666666666,2.142387822222222,-0.5032136666666667,-0.5370014533333333,0.60480752,0.7911722833333333
549,1715673398250,-0.5086638179999999,2.29420702,-0.512432366,-0.624395908,0.38417315199999996,0.38072176739999997
550,1715673398260,-0.5933408566666666,2.4632602777777777,-0.44714669,-0.7701483444444445,0.12692422222222222,-0.20295998455555553
551,1715673398270,-0.6510136,2.5676498,-0.3608747,-0.9219484,-0.0777326,-0.83260936
552,1715673398280,-0.71400507,2.43208712,-0.265814293,-1.1940888500000002,-0.45990517,-2.0370829
553,1715673398290,-0.70684342,2.314430511111111,-0.1670490477777778,-1.3070988888888888,-0.6524380088888889,-2.5202604
554,1715673398300,-0.6177860479999999,2.13737465,0.014141069000000001,-1.3920244099999999,-0.80206605,-3.0473013399999997
555,1715673398310,-0.42578704,1.9676147499999999,0.175193145,-1.3405133,-0.7476685200000001,-3.4210286400000003
556,1715673398320,-0.21858321111111112,1.9005580222222223,0.2343293877777778,-1.2103107222222222,-0.57752218,-3.704252844444445
557,1715673398330,0.015000877999999999,1.8914274599999998,0.263832466,-1.05190995,-0.431423575,-3.96871505
558,1715673398340,0.24433132999999999,1.9142762999999998,0.30060290199999995,-0.876255668,-0.309372706,-4.28518902
559,1715673398350,0.5486783639999999,1.93502152,0.31301826,-0.65988719,-0.173485736,-4.70259328
560,1715673398360,0.77217925,1.9155995999999997,0.26708874,-0.39477167,-0.04153884,-5.2059464
561,1715673398370,0.9349203859999999,1.8808658399999998,0.20279231599999997,-0.1741271388,-0.05094616240000001,-5.617791680000001
562,1715673398380,1.3049236670000002,1.7121853000000002,0.27035113,0.0918588644,-0.1726915993,-6.340888099999999
563,1715673398390,1.6014958499999998,1.5786592000000002,0.41895736499999997,-0.006918039999999998,-0.07958046599999999,-6.66261566
564,1715673398400,1.8601999500000002,1.48953805,0.50515143,-0.44119739999999996,0.36980254,-6.84856285
565,1715673398410,2.0831906222222223,1.4964083888888888,0.5028206688888889,-0.7200743622222222,0.7544355555555556,-6.943908666666666
566,1715673398420,2.3514664400000003,1.6175578000000002,0.48636984200000005,-0.855852756,1.0733818800000001,-7.1431832
567,1715673398430,2.6532644999999997,1.8413574499999998,0.541952355,-0.689437815,1.2331842,-7.577554449999999
568,1715673398440,2.950219611111111,2.0600456222222223,0.6476123166666666,-0.36780877777777776,1.3098817444444444,-8.077199666666665
569,1715673398450,3.24656752,2.2423259,0.7317866199999999,-0.086559612,1.3717284800000002,-8.4836048
570,1715673398460,3.6142351400000003,2.41912896,0.80264443,0.23744331800000001,1.4949400400000001,-8.9083092
571,1715673398470,3.8188813,2.4463012,0.8103521500000002,0.34300083,1.5792394,-9.18161
572,1715673398480,4.127747622222222,2.3045450444444446,0.9982492988888888,0.43420641666666665,1.9167084777777776,-9.093221333333334
573,1715673398490,4.35177864,2.2115314400000003,1.0287917400000002,0.7067100390000001,2.3822675700000002,-8.446219699999999
574,1715673398500,4.4223924,2.1881156,0.9685321500000001,1.2772683666666667,2.7234917999999997,-7.692371666666667
575,1715673398510,4.396695459999999,1.83944884,0.661441042,1.94178791,2.78114733,-7.006395550000001
576,1715673398520,4.2744687400000005,1.65160852,0.44537965,2.48826804,2.4185071799999998,-6.2122551
577,1715673398530,4.118736066666667,1.5853770666666667,0.43335862,2.5616125666666663,1.980221533333333,-5.532148333333334
578,1715673398540,3.9566576400000004,1.49760575,0.5170423439999999,2.2355071,1.7968600199999998,-5.1491052
579,1715673398550,3.51300976,0.8608917,0.46619790400000005,1.4070823300000002,2.00376018,-4.86001341
580,1715673398560,3.116157266666667,0.28397318977777775,0.37309085999999997,0.7705556,2.2851959666666666,-4.544990033333334
581,1715673398570,2.79539477,-0.1411667814,0.290834047,0.636475773,2.36264355,-4.285158430000001
582,1715673398580,2.090555533333333,-0.980003011111111,0.2555366088888889,0.6701191566666665,2.4447337333333334,-3.369787177777778
583,1715673398590,1.5572859600000002,-1.4685735,0.1582287476,1.07698597,2.60167524,-2.25167982
584,1715673398600,1.3223943,-1.6382663999999998,0.048905294,1.3713925,2.6644416,-1.6178766
585,1715673398610,1.082947378,-1.73871733,-0.16136917979999998,1.65993466,2.4893981199999997,-0.66569039
586,1715673398620,0.8656399166666667,-1.7874011111111112,-0.3645199333333333,1.8241454333333331,2.166331833333333,0.5619451333333333
587,1715673398630,0.809437465,-1.75084616,-0.40945683600000005,1.48290598,1.8728670600000001,1.17771767
588,1715673398640,0.7606541250000001,-1.7401015499999999,-0.40322474999999997,0.70432761,1.63582075,1.5718326
589,1715673398650,0.715371,-1.7874945199999999,-0.407755501,0.113850003,1.51137221,1.78140517
590,1715673398660,0.6286138888888888,-1.8455209111111113,-0.4008363833333333,-0.44788300999999997,1.349927411111111,2.022337277777778
591,1715673398670,0.5874611,-1.8532787599999998,-0.3649603,-0.9280875439999999,1.0964420480000001,2.3761129999999997
592,1715673398680,0.55022722,-1.8336800700000002,-0.28933394399999995,-1.23721593,0.8043262630000001,2.816211
593,1715673398690,0.5556665319999999,-1.83158244,-0.25352698399999996,-1.2583061,0.525115045,3.2687399
594,1715673398700,0.5701823222222222,-1.8394637999999999,-0.32061488444444447,-1.1391788777777778,0.2875648088888889,3.6438621333333336
595,1715673398710,0.59404686,-1.80169052,-0.419073232,-1.00139142,-0.028771750000000006,4.04011008
596,1715673398720,0.65378815,-1.7305582999999998,-0.479387735,-0.9413433299999999,-0.40515637,4.448397
597,1715673398730,0.74762896,-1.6701707,-0.490833512,-1.0195646520000001,-0.622746562,4.731380400000001
598,1715673398740,0.9010484999999999,-1.5724698333333333,-0.50352532,-1.2847005999999999,-0.85719662,5.138954933333333
599,1715673398750,1.0641963,-1.4383888,-0.53445802,-1.5763378,-1.007011348,5.4133961
600,1715673398760,1.22570564,-1.27307428,-0.6043523,-1.8931172,-1.17747338,5.56828097
601,1715673398770,1.3148462888888888,-1.1718028,-0.6252871166666666,-2.1956025111111113,-1.4359066111111112,5.6076239999999995
602,1715673398780,1.45168834,-1.10258877,-0.6073281369999999,-2.37962557,-1.7253583600000002,5.61296588
603,1715673398790,1.5331382599999999,-1.04312185,-0.6124869719999999,-2.3639569000000002,-1.9672609600000002,5.62558022
604,1715673398800,1.62838766,-0.94106711,-0.65875794,-2.26017078,-2.32761028,5.62319794
605,1715673398810,1.6947756200000001,-0.9278224100000001,-0.71466363,-2.2709831100000004,-2.6639833299999998,5.640378549999999
606,1715673398820,1.782990177777778,-0.9367551999999999,-0.6822214,-2.419060211111111,-3.0771657555555554,5.7267599
607,1715673398830,1.9229781400000001,-0.9363716999999999,-0.5556300000000001,-2.68188168,-3.35704054,5.880647000000001
608,1715673398840,2.286684966666667,-0.935488188888889,-0.33673373777777776,-3.1642479555555556,-3.4922317222222223,6.1027984222222225
609,1715673398850,2.6000176,-0.96783696,-0.253905064,-3.5075423799999994,-3.49795182,6.207475270000001
610,1715673398860,2.8243723,-1.0137177,-0.22489116999999997,-3.771482,-3.4790304,6.2937446
611,1715673398870,3.2728676200000004,-0.9821853600000001,-0.258429696,-3.8075230000000007,-3.5662312999999997,6.432411
612,1715673398880,3.953835,-0.7610200155555557,-0.16900036333333335,-3.1105088444444444,-4.0656986222222224,6.5344595000000005
613,1715673398890,4.7699368,-0.260966448,0.345422605,-2.4167356,-4.524221,6.6135325
614,1715673398900,5.36578884,0.334751231,0.9193341400000001,-1.7313143,-4.363395280000001,6.67280195
615,1715673398910,5.67470916,0.9546166599999999,1.3744338200000001,-1.69454016,-3.58125858,6.600429800000001
616,1715673398920,5.698266,1.6298037666666667,1.605913388888889,-2.0367265555555556,-2.4679464444444448,6.395538666666667
617,1715673398930,5.4940156,2.06223014,1.6050814199999999,-2.12321485,-1.5174656499999999,5.9988494
618,1715673398940,5.1182376,2.4393985000000002,1.5374312399999999,-1.74997614,-1.017396084,5.564890780000001
619,1715673398950,4.850181444444444,2.614773111111111,1.5007109222222221,-1.0174469968888888,-0.7561833133333333,5.159537511111111
620,1715673398960,4.41309288,2.8002303,1.45293236,0.3900374712,-0.50995029,4.60430504
621,1715673398970,3.81287489,2.8817657999999997,1.28302001,1.68609501,-0.317741549,4.13929901
622,1715673398980,2.97740538,2.8222011599999997,0.90654072,3.5079241600000004,0.032070424,3.31467706
623,1715673398990,2.4282717555555555,2.7639145555555555,0.642368088888889,3.8485528888888885,0.2698327466666667,2.936989188888889
624,1715673399000,2.16341896,2.7403548800000004,0.475088716,3.5129638799999996,0.5222286840000001,2.66077626
625,1715673399010,1.72513116,2.72331134,0.161235021,2.70726321,0.754097856,2.2922413500000003
626,1715673399020,1.2663056000000001,2.64999612,-0.106323274,1.3040140519999999,0.908051156,1.64622074
627,1715673399030,0.9462476000000001,2.5405345111111113,-0.24576636888888886,0.3041769511111111,0.9194709333333334,1.1288280266666666
628,1715673399040,0.6694353900000001,2.40641476,-0.292395115,-0.5412418880000001,0.745209785,0.556788407
629,1715673399050,0.2500328805,2.16603493,-0.132397963,-0.9761626480000001,0.5123937900000001,0.05748242400000001
630,1715673399060,-0.010872584499999997,1.9911647499999998,0.06157676700000001,-1.03379775,0.33466253100000004,-0.417938713
631,1715673399070,-0.15164299099999998,1.9528333400000002,0.158509251,-0.867749341,0.345047243,-0.667339721
632,1715673399080,-0.2908231955555556,1.9581698111111112,0.22477598444444447,-0.5067636233333332,0.3998452433333333,-1.102934177777778
633,1715673399090,-0.34341027999999996,1.97921294,0.255892988,-0.30647108999999995,0.415571628,-1.4208420199999998
634,1715673399100,-0.312359688,1.9636755399999999,0.29140723199999996,-0.111406552,0.44096835,-2.03861
635,1715673399110,-0.24434354000000003,1.9061478399999998,0.335629326,-0.058429262,0.48322496,-2.48521354
636,1715673399120,-0.10724880555555555,1.7552921666666665,0.4196857233333333,-0.01494922911111111,0.6015495555555556,-3.030960511111111
637,1715673399130,-0.013855823333333331,1.6599342777777777,0.45605641,0.03987592655555555,0.7474445311111111,-3.3783392444444447
638,1715673399140,0.11726903200000001,1.54975507,0.468820059,0.165177964,0.9495289259999999,-3.70685253
639,1715673399150,0.24828887700000002,1.4617315899999999,0.399864799,0.39310705599999995,1.11020173,-3.9779393999999995
640,1715673399160,0.43261671,1.42662598,0.254923402,0.83082256,1.09856479,-4.338594
641,1715673399170,0.55576414,1.4356326,0.19153556,1.0372492,1.0050261,-4.53262
642,1715673399180,0.9977715999999999,1.5429254000000001,0.25285013,1.18316957,0.797606752,-5.1971192
643,1715673399190,1.24363352,1.56360344,0.267625388,1.0132727,0.8157494639999999,-5.75358692
644,1715673399200,1.4907882000000001,1.56466445,0.25916148,0.83329655,0.8439103250000001,-6.3070309
645,1715673399210,1.69738565,1.5336565,0.29949919,0.736566035,0.8483849080000001,-6.65856876
646,1715673399220,1.9363257444444446,1.489992,0.3617555333333333,0.5476576477777777,0.9375424333333332,-7.005708
647,1715673399230,2.23732562,1.57300632,0.363972468,0.2958420384,1.10688784,-7.26902132
648,1715673399240,2.62754346,1.8342411600000001,0.295407484,-0.028099802,1.2678508,-7.79059365
649,1715673399250,2.9117919,2.02614874,0.253411116,-0.178922431,1.3107335699999998,-8.1987739
650,1715673399260,3.1837698222222226,2.1693677555555557,0.22480986,-0.3167336322222222,1.309576311111111,-8.987609333333333
651,1715673399270,3.5261204,2.292573,0.15098442,-0.31306845,1.2255484,-9.951148
652,1715673399280,3.70426488,2.0087879,0.212658748,0.135764792,0.831295956,-10.833237200000001
653,1715673399290,3.6666162900000003,1.86496247,0.36061861,0.47126726,0.73288557,-10.8216461
654,1715673399300,3.6195404666666664,1.8522626,0.38969753333333335,0.6344854,0.8844819333333334,-10.453889666666665
655,1715673399310,3.5991613,1.95430924,0.316811164,0.39782600679999996,1.11081257,-10.114874499999999
656,1715673399320,3.6136257,2.0133796999999998,0.229495095,-0.17081319700000003,1.3359622999999998,-9.8206515
657,1715673399330,3.53073048,1.90305004,0.23744068599999996,-0.45213193,1.47835506,-9.5712506
658,1715673399340,3.4247727,1.7818723000000003,0.27007675,-0.5162320666666668,1.6083233777777777,-9.246531222222224
659,1715673399350,3.11886496,1.54558416,0.25816140600000004,-0.11058187900000002,1.6657684400000001,-8.6252037
660,1715673399360,2.72602484,1.2621834,0.198572564,0.575511421,1.59008228,-7.78781415
661,1715673399370,2.493621,1.0493906,0.17671762,0.95340794,1.5152513,-7.287622500000001
662,1715673399380,2.12037378,0.735103898,0.22757425599999997,1.2794878280000002,1.43852658,-6.42618026
663,1715673399390,1.8611207,0.530091908,0.227818168,1.2420417499999998,1.6223817,-4.717865000000001
664,1715673399400,1.5742450777777777,0.31312802444444443,0.15297640444444446,0.9979841111111111,1.7531831999999998,-4.12894
665,1715673399410,1.3334802600000002,0.07622396000000001,0.0697235853,0.54693817,1.90113482,-3.4203261999999994
666,1715673399420,1.16104335,-0.2803212325,0.0150313651875,-0.03174590125,1.963244525,-2.4838162875
667,1715673399430,1.079575163,-0.499766968,0.0313128037,-0.61590488,1.9537762,-1.5105933500000002
668,1715673399440,0.91987073,-0.8146207,0.14354497,-0.9088147577777776,1.9776424000000001,-1.0202467466666667
669,1715673399450,0.776240418,-1.1963138,0.243538604,-1.10902586,2.2010392,-0.25381449600000006
670,1715673399460,0.748446109,-1.3912763599999998,0.1814252234,-0.9217040299999999,2.4643220599999998,0.60706264
671,1715673399470,0.74525687,-1.50539888,-0.0295139164,-0.34211508,2.5242173899999996,1.51079189
672,1715673399480,0.8849500266666667,-1.4894568333333333,-0.25499455,0.4382958,2.3507621,2.4561365
673,1715673399490,1.0541774,-1.3768791,-0.31666481500000004,1.0748938000000001,1.8256472,3.3739614500000004
674,1715673399500,1.15342095,-1.31620485,-0.31587209,0.923750476,1.6791769600000002,3.47973272
675,1715673399510,1.20144205,-1.3320899000000002,-0.350569235,0.352240173,1.56289875,3.4297793
676,1715673399520,1.2006865777777778,-1.4503894444444443,-0.41062693,-0.2911960744444444,1.461664811111111,3.419267333333333
677,1715673399530,1.21109498,-1.61152078,-0.47234464200000004,-0.87054406,1.28599356,3.62811192
678,1715673399540,1.24009664,-1.71381942,-0.5105541880000001,-1.1875831000000001,1.08037625,3.9577653600000007
679,1715673399550,1.29805736,-1.74976679,-0.55295294,-1.29595058,0.69840223,4.53546096
680,1715673399560,1.3459118666666667,-1.7169702,-0.5993439,-1.2763689555555555,0.36789359777777775,4.941255444444444
681,1715673399570,1.38225142,-1.6524074599999998,-0.63500659,-1.26368166,0.007498375999999996,5.238597329999999
682,1715673399580,1.4524505600000002,-1.5121979799999998,-0.6391104479999999,-1.40205792,-0.6381403480000001,5.58074284
683,1715673399590,1.56267651,-1.34921286,-0.599400818,-1.67714583,-1.1455555780000002,5.74837952
684,1715673399600,1.685721611111111,-1.2204845222222223,-0.5249629133333333,-2.0311778666666664,-1.6218981000000001,5.857841466666667
685,1715673399610,1.7934278,-1.1314685,-0.40048069000000003,-2.30513056,-1.90159294,5.93666336
686,1715673399620,1.91059925,-1.0328346700000002,-0.31087180000000003,-2.51065605,-2.0332649999999997,6.135454
687,1715673399630,2.0091781600000003,-0.9260052719999999,-0.298151544,-2.50492925,-2.0456349499999997,6.430883800000001
688,1715673399640,2.1077653,-0.7900258133333333,-0.30987580666666664,-2.385581566666667,-2.0601939333333332,6.6992064000000004
689,1715673399650,2.21703799,-0.596693359,-0.3301778,-2.12431442,-2.1160678,7.008365360000001
690,1715673399660,2.3246356400000003,-0.35286205400000004,-0.377363477,-1.9088317,-2.18648519,7.176307390000001
691,1715673399670,2.397518,-0.10457927,-0.45167266999999994,-1.64840455,-2.3797936099999997,7.1380978100000005
692,1715673399680,2.4465452,0.040022663333333326,-0.5250509566666666,-1.38025,-2.779895,6.7806044
693,1715673399690,2.4726930400000002,0.11701292799999999,-0.5601912299999999,-1.38025,-2.779895,6.7806044
694,1715673399700,2.63744052,0.19981654399999998,-0.25276475,-1.35975547,-3.51152826,6.32198188
695,1715673399710,2.8168581777777777,0.2947529744444444,0.0035706744444444463,-1.3547124,-3.6785964888888887,6.341375111111111
696,1715673399720,3.00495584,0.441733068,0.21182943,-1.2669955800000001,-3.5235623599999997,6.55882946
697,1715673399730,3.25165325,0.632841785,0.38935199,-1.041983415,-3.2460616,6.788621900000001
698,1715673399740,3.4421115333333336,0.7800658455555555,0.45277711111111113,-0.87158593,-3.0673580444444446,6.895820311111112
699,1715673399750,3.79784348,1.026803776,0.50467577,-0.729525813,-2.88998828,6.89185789
700,1715673399760,4.0216168,1.1720466777777778,0.5762463444444443,-0.7904087333333334,-2.769730866666667,6.7957908555555555
701,1715673399770,4.16006,1.2963561,0.6272317,-0.8987354599999999,-2.6769643,6.7383018
702,1715673399780,4.42345935,1.86002322,0.8951498299999999,-0.9760862859999999,-2.2213503500000003,6.34220148
703,1715673399790,4.46308962,2.20895813,1.01718739,-0.684001117,-1.82706742,5.89205489
704,1715673399800,4.3523405,2.425236388888889,1.0507523222222224,-0.022296569999999998,-1.4833335555555556,5.313848788888889
705,1715673399810,3.9701583799999995,2.58051634,1.0698916600000001,1.221196,-1.1288026,4.469777349999999
706,1715673399820,3.5838677500000005,2.61134135,1.02194985,2.13642475,-0.861854485,3.8871645999999997
707,1715673399830,3.1602182555555554,2.6161418111111114,0.9337536555555555,2.6808159333333332,-0.6084726877777777,3.4692395
708,1715673399840,2.78729669,2.59060849,0.81349864,2.9330389599999998,-0.11959214999999998,2.9094442099999998
709,1715673399850,2.46200945,2.5254829,0.6543064519999999,2.7606834399999998,0.28548786000000004,2.52580556
710,1715673399860,2.2587232999999998,2.48087658,0.5121091179999999,2.2453268399999997,0.66761459,2.20172618
711,1715673399870,2.0680475,2.4629486,0.38051,1.599856,1.014189,1.9042196
712,1715673399880,1.7388697999999998,2.5122503,0.1320259913,0.4449084279999999,1.3078166999999998,1.39576598
713,1715673399890,1.37975126,2.50698772,-0.0486857636,-0.531712368,1.36615434,0.7408115449999999
714,1715673399900,1.1622426333333333,2.3971317333333335,-0.07841920666666667,-1.1332568,1.2553281,-0.07467826666666666
715,1715673399910,0.8555987,2.1230812,-0.08073642,-1.3366494999999998,1.0702359,-0.8437576
716,1715673399920,0.66612422,1.92510016,-0.04236832592,-1.15125193,0.8450557,-1.2881621
717,1715673399930,0.5390558,1.7980318,0.0018293752,-0.97585726,0.7075347,-1.4940237
718,1715673399940,0.48126788333333326,1.7505290333333334,0.0208548758,-0.86717415,0.6709336833333333,-1.5603535
719,1715673399950,0.270912141,1.6099719799999999,0.0852488797,-0.48377473000000004,0.5723196660000001,-1.8283807799999998
720,1715673399960,0.040057212800000006,1.5706587300000001,0.018153498799999997,-0.240543466,0.5520236319999999,-2.3010376900000002
721,1715673399970,-0.0876453611,1.56148744,0.0163972984,-0.253860319,0.429178646,-2.79825159
722,1715673399980,-0.22617173999999998,1.5911498,0.12262910666666668,-0.40851613,0.3721187533333333,-3.3217834666666666
723,1715673399990,-0.335422016,1.61875298,0.244245962,-0.5910732120000001,0.46132544600000003,-3.79643586
724,1715673400000,-0.365106668,1.55717624,0.360996688,-0.813641984,0.90371404,-4.43851634
725,1715673400010,-0.2989673,1.5134962,0.30734856666666666,-0.6819631833333334,1.2601641111111113,-4.757163922222222
726,1715673400020,-0.14405717359999998,1.51345418,0.191511174,-0.38075230299999996,1.43707576,-4.96244005
727,1715673400030,0.11100648760000001,1.56473768,0.10859169999999999,0.289305776,1.4691919599999999,-5.25270808
728,1715673400040,0.4476345333333333,1.6269106,0.06417040833333333,0.7665171000000001,1.3952501777777777,-5.471129722222222
729,1715673400050,0.8224138200000001,1.77448156,0.0343190752,1.16223222,1.1808636,-5.77511978
730,1715673400060,1.17128782,1.96441948,0.026989379599999995,1.2215624999999999,0.9424886579999999,-6.11831918
731,1715673400070,1.4732567,2.1121354,0.063967146,1.0829114,0.77411896,-6.4284406
732,1715673400080,2.03476511,2.31995239,0.22857431460000002,-0.002519815000000003,0.7116427439999999,-7.300969810000001
733,1715673400090,2.3841636,2.4226415,0.37386328,-0.8030128900000001,0.843589643,-7.823305500000001
734,1715673400100,2.8683380400000003,2.31944016,0.54578796,-1.7675385599999998,1.50364486,-8.3977786
735,1715673400110,3.1796501333333334,2.2300758,0.6124137566666668,-1.8094337777777778,2.0651148555555556,-8.547871222222222
736,1715673400120,3.43512717,2.22386142,0.6320429580000001,-1.2702026480000002,2.4448965,-8.57499
737,1715673400130,3.74110862,2.26310774,0.5786678999999999,-0.38429533,2.6714664200000002,-8.713870199999999
738,1715673400140,3.9346319999999997,2.28419426,0.497260714,0.474306318,2.70601088,-9.002199000000001
739,1715673400150,4.045784811111111,2.2865290444444444,0.43543189111111114,0.9944716388888888,2.6144862222222223,-9.219619611111112
740,1715673400160,4.1204233,2.2484238,0.43868414,1.2654073,2.4856107,-9.317375
741,1715673400170,4.169512,2.133905,0.53490925,1.432479,2.4156666,-9.310197
742,1715673400180,4.095349000000001,1.8959948,0.6292867,1.4749494,2.5602125399999998,-9.0364533
743,1715673400190,3.9352026666666666,1.551858777777778,0.6312088966666667,1.5029151333333333,2.728955533333333,-8.564653111111111
744,1715673400200,3.53804776,1.01480312,0.5226158639999999,1.68485802,2.71780058,-7.785660519999999
745,1715673400210,3.25229948,0.725249594,0.47379592,1.9057316100000001,2.6156333,-7.0230260200000005
746,1715673400220,2.9012058,0.46899076999999995,0.43350092,2.1252003,2.5331054,-6.2210517
747,1715673400230,2.54515461,0.38132102900000003,0.32652514200000005,2.19664091,2.41554439,-4.99049408
748,1715673400240,2.2751449399999997,0.32461650000000003,0.18974277,2.0069061599999998,2.25882686,-3.68901524
749,1715673400250,2.220820611111111,0.23512213444444446,0.09726854788888889,1.4994875622222221,2.079911233333333,-3.1069285555555557
750,1715673400260,1.9237402700000001,-0.12058020100000003,0.0101164446,0.874316153,1.8782578399999998,-2.87285344
751,1715673400270,1.5960991100000002,-0.75491599,-0.007646787600000001,0.242757838,1.70898714,-2.78746966
752,1715673400280,1.2940266599999999,-1.4032648,0.063528095,-0.169698362,1.4729487799999998,-2.15626274
753,1715673400290,1.1049695888888889,-1.7507118666666668,0.10250598,-0.12096828222222222,1.3853575333333332,-1.5285884777777778
754,1715673400300,1.0470580875,-1.858805075,0.082230409896,0.281150735,1.3009521125,-0.197595825
755,1715673400310,0.9947938133333333,-1.9428775666666667,-0.038071323888000004,0.5585344733333333,1.1884892,0.6815728666666667
756,1715673400320,1.004265944,-1.93274698,-0.139264218,0.7291135,0.986364081,1.56123408
757,1715673400330,1.0251209,-1.9017574,-0.17665665,0.6987450000000001,0.777512698888889,2.210992844444444
758,1715673400340,1.04097542,-1.90895284,-0.21063425000000002,0.3291036556,0.570181636,2.80970532
759,1715673400350,1.02135228,-1.8963118599999997,-0.23092202,-0.302378293,0.43188171999999997,3.2963816
760,1715673400360,0.994131132,-1.8652795000000002,-0.22912313599999998,-0.64334799,0.39526034499999996,3.48732283
761,1715673400370,0.96481246,-1.8335215000000002,-0.23336728,-1.2437554999999998,0.304940534,3.866251
762,1715673400380,0.9500981599999999,-1.77226808,-0.30308474900000004,-1.83575694,0.0191353552,4.539263350000001
763,1715673400390,0.98217932,-1.7015262,-0.33910515399999996,-1.91692566,-0.252226253,4.9395633000000005
764,1715673400400,1.069486611111111,-1.551865577777778,-0.3939796222222222,-1.6247318444444445,-0.8123489711111112,5.585497222222222
765,1715673400410,1.11685182,-1.48755018,-0.418256104,-1.46280844,-1.01472355,5.8022728599999995
766,1715673400420,1.2846176,-1.33745605,-0.44572722000000004,-1.0697778,-1.47394145,6.241897499999999
767,1715673400430,1.3687993,-1.2815381,-0.44959940000000004,-0.9288206000000001,-1.6548339,6.405533
768,1715673400440,1.55527362,-1.16545822,-0.458160888,-0.9129992,-1.9135964099999998,6.615899799999999
769,1715673400450,1.74538228,-1.0136933,-0.489248072,-1.0854769999999998,-2.1752300399999998,6.744777000000001
770,1715673400460,1.8317668555555555,-0.9279877666666666,-0.49731901,-1.310543533333333,-2.2917459,6.729257444444444
771,1715673400470,1.8762681,-0.8602331,-0.51856685,-1.6032158000000003,-2.4109323,6.688669
772,1715673400480,1.9888720800000002,-0.755788016,-0.43275694800000003,-2.2103853800000004,-2.66395282,6.67910878
773,1715673400490,2.078664688888889,-0.6850332333333333,-0.35018982555555556,-2.4596659,-2.7605340666666667,6.747193044444445
774,1715673400500,2.24231996,-0.51053585,-0.294206192,-2.58350186,-2.90307596,6.89358364
775,1715673400510,2.36945532,-0.3799734,-0.293480542,-2.41542228,-3.0801963999999997,6.907939000000001
776,1715673400520,2.4761627699999997,-0.310091268,-0.244672807,-2.11893875,-3.29974145,6.93102985
777,1715673400530,2.6352147222222224,-0.15719073688888888,-0.09692978155555557,-1.8798529222222224,-3.429821722222222,6.985142277777778
778,1715673400540,2.79468743,-0.014482553099999998,0.0022745242999999984,-1.6998242000000001,-3.50172392,6.99034488
779,1715673400550,3.03632354,0.13120886999999998,0.11545185500000002,-1.65524633,-3.49934156,6.93257229
780,1715673400560,3.2132974,0.22464725,0.20812188,-1.6872098,-3.454443,6.882008
781,1715673400570,3.54084682,0.395291369,0.330854676,-1.6055828900000002,-3.38819462,6.92418823
782,1715673400580,3.9874035,0.630597778,0.5171886889999999,-1.27227954,-3.33243796,7.1513538
783,1715673400590,4.4231728,1.04821363,0.725072775,-0.730655928,-3.1630755400000004,7.489971679999999
784,1715673400600,4.752973911111111,1.6275001444444444,0.8301093755555555,-0.31245756,-2.945745,7.656738
785,1715673400610,4.983552919999999,2.26624814,0.838304996,0.0990823398,-2.28301716,7.1138314
786,1715673400620,4.94002605,2.66025283,0.789857084,0.169545646,-1.790782,6.3100244000000005
787,1715673400630,4.723385322222223,2.8577346555555554,0.74597172,0.1836159111111111,-1.4310366666666665,5.606487533333333
788,1715673400640,4.346814660000001,3.00184588,0.7146392699999999,0.275011524,-1.04690084,4.845871839999999
789,1715673400650,3.93928473,3.08089315,0.65209293,0.469724817,-0.7635815420000001,4.27116994
790,1715673400660,3.4153517,3.122481,0.5272381100000001,0.798248149,-0.44744351700000007,3.58857361
791,1715673400670,3.0697591,3.1322085888888886,0.43350769777777776,0.9855292666666666,-0.2508620088888889,3.1500454444444443
792,1715673400680,2.7172682700000004,3.12958499,0.340416201,1.06728851,-0.037751474,2.67514678
793,1715673400690,2.300994,3.05514785,0.17419919099999998,0.9645256700000001,0.29491047400000003,1.8921245500000001
794,1715673400700,1.9962005777777776,2.9898153333333335,0.039534825777777775,0.7011205777777777,0.4215818666666667,1.2084272111111112
795,1715673400710,1.6584504500000001,2.84239145,-0.0550641885,0.39729147,0.441273775,0.39736784077
796,1715673400720,1.4061247099999998,2.67178398,-0.114640835,0.1817934908,0.37122281,-0.272965131076
797,1715673400730,1.16420814,2.4940114,-0.142459531,-0.0186924751,0.21875084779999998,-0.83158615
798,1715673400740,0.8573670800000001,2.2945240399999998,-0.0546861186,-0.298957456,0.07544185839999999,-1.3052053000000001
799,1715673400750,0.6874520288888889,2.1761024888888887,0.010285152555555557,-0.48994787777777776,0.06050959733333334,-1.5394483444444444
800,1715673400760,0.468441976,2.02944756,0.08604160400000001,-0.8474228079999999,0.121623272,-1.9308534800000001
801,1715673400770,0.3241313855555556,1.998185688888889,0.16978633666666665,-1.0894441888888888,0.19814093777777775,-2.1916149111111114
802,1715673400780,0.19214535,2.023228,0.26800343,-1.3298537,0.3098614,-2.482251
803,1715673400790,0.05789362,2.08128612,0.42912260599999996,-1.43654129,0.525878625,-3.03393863
804,1715673400800,0.00335385416,2.0990798400000004,0.5047123950000001,-1.35752583,0.770026203,-3.6087933
805,1715673400810,0.05757788755555556,1.9976504000000002,0.5668420277777778,-1.0061629222222221,0.9836627333333333,-4.199885311111111
806,1715673400820,0.20787798,1.86471245,0.613023565,-0.54405185,1.1119275,-4.66670515
807,1715673400830,0.42081722,1.77800015,0.6828752149999999,-0.10546587599999999,1.19705158,-5.02958956
808,1715673400840,0.6458506666666667,1.7421952,0.7673415333333333,0.30095294,1.3143784,-5.373272433333333
809,1715673400850,0.8446833999999999,1.73004,0.845842,0.5225952,1.4361442,-5.5946093
810,1715673400860,1.0266452,1.7646761999999998,0.8964548000000001,0.603993,1.6290249000000003,-5.7830615
811,1715673400870,1.45254814,1.859206,0.925163776,0.478582358,2.1360430999999998,-6.2297872000000005
812,1715673400880,1.7812015,1.9224292000000003,0.9143826000000002,0.24083362999999997,2.5593727,-6.551224
813,1715673400890,2.46464997,2.16653491,0.755269661,0.023212878000000003,3.2277356000000004,-7.4333135
814,1715673400900,2.818009888888889,2.238965266666667,0.6567320799999999,0.10941274977777778,3.3498662,-7.776246333333333
815,1715673400910,3.44790872,2.223959,0.480954888,0.712696444,3.4056654,-8.698843
816,1715673400920,3.8985569600000005,2.04943658,0.336361092,1.49455815,3.259577,-9.35349225
817,1715673400930,4.1005686400000005,1.93674706,0.26272263999999995,2.14212116,3.02482148,-9.679984300000001
818,1715673400940,4.243845077777778,1.8537734444444445,0.20900270555555556,2.5948197777777775,2.7747536222222227,-9.827039666666668
819,1715673400950,4.35660798,1.77925011,0.196987112,2.7709151800000003,2.50944972,-9.8739187
820,1715673400960,4.415068639999999,1.7198807199999997,0.183419246,2.6234676,2.40195273,-9.872285
821,1715673400970,4.4018426,1.6619263,0.1542773,2.31520986,2.33975128,-9.8809282
822,1715673400980,4.30519,1.5088686,0.08573671,1.8206838,2.2351558,-9.92656
823,1715673400990,4.060223466666667,1.2087290044444443,0.08846722222222221,1.4247244555555554,1.977964577777778,-9.979960666666667
824,1715673401000,3.74429165,0.919254839,0.16371078099999997,1.57233658,1.58693624,-9.7206072
825,1715673401010,3.1821368,0.496614335,0.258063835,1.8785632499999998,1.2388347,-9.279959999999999
826,1715673401020,2.8277869333333334,0.23409901666666666,0.29778160666666664,2.0871228,1.0242173666666665,-8.795136333333334
827,1715673401030,2.45696656,-0.064814755,0.29398057299999997,2.22472532,0.8209418100000001,-7.9459822
828,1715673401040,1.8181852499999998,-0.64287287,0.250898785,1.97408735,0.65171685,-6.463259599999999
829,1715673401050,1.53734574,-0.8640382200000001,0.30027361999999996,1.4173906200000002,0.59684586,-5.07274712
830,1715673401060,1.4697808333333335,-0.9334826266666667,0.4030655222222222,0.7571505044444444,0.6021773777777778,-3.8381680555555553
831,1715673401070,1.5278331,-0.91212636,0.54399514,0.22204952000000003,0.6647741,-3.057075
832,1715673401080,1.55222478,-0.761971272,0.770154668,-1.073091718,1.25399951,-1.90446408
833,1715673401090,1.5062463777777777,-0.7760276555555555,0.6495636322222222,-1.8097391444444446,2.2199182,-1.3131906444444443
834,1715673401100,1.40764304,-1.07586764,0.0793338976,-1.51803066,2.4689646,-0.6511518119999999
835,1715673401110,1.3734703700000002,-1.24201154,-0.1465390412,-0.812206398,2.02937067,-0.025274555999999993
836,1715673401120,1.35388386,-1.3927520000000002,-0.19475527,0.391075924,1.160644008,0.94137386
837,1715673401130,1.3240067777777778,-1.4530861222222222,-0.12488533666666668,1.1077532,0.6404243455555556,1.6096807888888887
838,1715673401140,1.25956126,-1.4803546600000002,-0.075906865,1.27698324,0.456377432,2.1520477
839,1715673401150,1.12540105,-1.46828685,-0.0446367515,0.8573951990000002,0.457049373,2.84524226
840,1715673401160,1.05963496,-1.41160672,-0.0010732348000000002,-0.019364422000000003,0.615507818,3.4713639
841,1715673401170,1.0387801,-1.3645918,0.03719729,-0.52488595,0.7319693,3.7606392
842,1715673401180,1.0489026,-1.27044,0.08744413,-1.749840511111111,1.0825041111111111,4.455515288888889
843,1715673401190,1.1048571200000001,-1.15198188,0.0025001437999999988,-2.42125609,1.2196993600000001,5.00092459
844,1715673401200,1.1406945800000001,-1.0881915999999998,-0.051667649999999996,-2.61546533,1.15245844,5.3454676999999995
845,1715673401210,1.2358444333333332,-0.9915009333333332,-0.14850460066666668,-2.411136,0.7842491533333332,5.7592375
846,1715673401220,1.29824645,-0.917705975,-0.25031948,-1.9023108,0.278936335,6.0161827500000005
847,1715673401230,1.34902992,-0.87258753,-0.32409207799999995,-1.40682268,-0.181885114,6.1443576
848,1715673401240,1.4235316333333334,-0.8331042222222222,-0.38366059444444445,-0.8816991444444445,-0.6555262666666667,6.256634633333333
849,1715673401250,1.47970838,-0.8079618100000001,-0.40402356400000006,-0.551748785,-0.9180083050000001,6.3427818
850,1715673401260,1.57650662,-0.7764843100000001,-0.45403866600000004,-0.235763446,-1.11394336,6.470315139999999
851,1715673401270,1.6497303,-0.76882535,-0.51204205,-0.13652839,-1.1522446,6.5338144
852,1715673401280,1.73207654,-0.7428726299999999,-0.60282785,-0.1255328065,-1.1948523999999998,6.669747340000001
853,1715673401290,1.9495527400000001,-0.59268091,-0.767752084,-0.488127141,-1.33729095,6.92443243
854,1715673401300,2.0490220399999997,-0.492492132,-0.8485372720000001,-0.79226168,-1.4599069,7.0520420999999995
855,1715673401310,2.16483372,-0.312896308,-0.9557630400000001,-1.30838176,-1.7933170999999999,7.0041503800000005
856,1715673401320,2.2920984888888887,-0.1852750422222222,-0.9928221577777777,-1.8126068444444445,-2.169725422222222,6.846628711111112
857,1715673401330,2.38835894,-0.116238486,-0.965641729,-2.2129661900000004,-2.4764935,6.70030592
858,1715673401340,2.49390164,-0.0561496212,-0.857952476,-2.58139428,-2.8109270200000003,6.5456042
859,1715673401350,2.569214888888889,-0.01455369511111111,-0.7595971755555556,-2.6906407666666663,-3.0001289555555553,6.478615977777777
860,1715673401360,2.73018369,0.044905061499999996,-0.6156151980000001,-2.6499029100000002,-3.244229,6.47222419
861,1715673401370,2.8626791799999998,0.10960396000000001,-0.51489586,-2.54762865,-3.4149047699999997,6.50612716
862,1715673401380,3.0190787,0.20653644,-0.3655701,-2.4103215,-3.7435349999999996,6.5139613
863,1715673401390,3.18891174,0.355721972,-0.0453136138,-2.37683085,-3.9344761900000003,6.40156221
864,1715673401400,3.4012349799999995,0.61191376,0.3925351060000001,-2.3393084,-3.90318458,6.28946848
865,1715673401410,3.6184427999999995,0.94121345,0.6141212,-2.11008125,-3.6156349999999997,6.31756855
866,1715673401420,3.847419777777778,1.2933139,0.7341620888888889,-1.6258008777777777,-3.422440422222222,6.3673368888888895
867,1715673401430,4.060846700000001,1.66573745,0.89325335,-0.9071348279999999,-3.2683123199999997,6.3014414
868,1715673401440,4.170096920000001,1.93435676,1.02115712,-0.06047565000000001,-2.9504180599999996,6.0260941
869,1715673401450,4.19464728,2.18237112,1.0715259,0.498954742,-2.61273184,5.7407435399999995
870,1715673401460,4.112855122222222,2.5328714,1.0390917888888889,1.0487707888888889,-2.1303756,5.258361911111111
871,1715673401470,3.9459741399999997,2.7102923100000003,0.93462157,1.39830108,-1.6910124899999999,4.713787160000001
872,1715673401480,3.7704636999999996,2.7762597,0.819316,1.45743293,-1.27695277,4.17879163
873,1715673401490,3.263984277777778,2.906206111111111,0.70399775,0.8515970500000001,-0.5543941333333334,3.2370598444444445
874,1715673401500,2.8255612500000002,2.9653865,0.715407605,0.426353382,-0.238603956,2.8494726
875,1715673401510,2.5758820499999997,2.9489831,0.6979065799999999,-0.17241672000000002,0.24992022499999997,2.34182825
876,1715673401520,2.3302375222222222,2.901151666666667,0.6017830644444444,-0.6255430111111111,0.7024101577777778,1.8134213222222222
877,1715673401530,2.05344295,2.7956204,0.44222091499999994,-0.80657123,1.0145708150000001,1.1417835
878,1715673401540,1.82519189,2.67118632,0.32631173700000005,-0.706053327,1.09005851,0.5835595362
879,1715673401550,1.4920111666666669,2.4405286888888886,0.19446935444444444,-0.3722035833333333,1.0119322222222222,-0.1784235588888889
880,1715673401560,1.2815381399999999,2.2720108000000003,0.14644757,-0.17143933192,0.8955284499999999,-0.6247929799999999
881,1715673401570,0.9930152700000001,2.0682548,0.14167289300000002,0.00122173046,0.701930005,-1.19528005
882,1715673401580,0.663246,1.89069572,0.203536276,-0.1002124513,0.71407093,-1.54782565
883,1715673401590,0.3925161111111111,1.818453011111111,0.21172645,-0.33653585999999996,0.9058113666666667,-1.8880826333333331
884,1715673401600,0.149734344,1.89712285,0.13098325,-0.49861876,1.16730242,-2.16105802
885,1715673401610,0.0024757547999999983,2.00208022,0.0288187572,-0.5189605820000001,1.3464386400000001,-2.5382366999999997
886,1715673401620,-0.0285260534,2.1068179999999996,-0.0312457242,-0.390251268,1.3311670000000002,-2.9781207600000004
887,1715673401630,0.014492716000000001,2.1658375666666663,-0.007378479999999999,-0.24342980333333333,1.2572625000000002,-3.5208746
888,1715673401640,0.168485438,2.10767162,0.09723738,-0.192544722,1.20651994,-4.33320316
889,1715673401650,0.35566709,1.9870793299999998,0.20131052700000002,-0.355874808,1.2456916599999999,-4.97552788
890,1715673401660,0.587345239,1.8306434299999998,0.30885339,-0.721660908,1.3929712699999999,-5.5116843
891,1715673401670,0.76120293,1.709246,0.35849655,-1.0551509000000001,1.5781873333333334,-5.806121399999999
892,1715673401680,0.9387743000000001,1.6035691,0.40093803,-1.3070989,1.7933476,-5.9637246
893,1715673401690,1.3013320199999998,1.5766529999999999,0.350203352,-1.19775405,2.3138812,-6.23052
894,1715673401700,1.5357480799999998,1.59472718,0.28345555,-0.648891635,2.4675901,-6.49365025
895,1715673401710,1.8714100333333334,1.6231638333333334,0.2082032,0.05194052555555557,2.4462437777777777,-6.823432611111111
896,1715673401720,2.0735357,1.6185701,0.15555786,0.4770857700000001,2.3855815,-7.038084
897,1715673401730,2.42800748,1.6208995000000002,0.163308307,0.982103347,2.18840936,-7.41146
898,1715673401740,2.72790316,1.6362051999999998,0.18138863200000002,1.1038335,2.11626625,-7.714311499999999
899,1715673401750,2.8738873,1.6299121,0.18318142,1.0639745,2.1241312,-7.844272999999999
900,1715673401760,3.0710206799999997,1.5725918,0.19837744000000002,0.84027572,2.22640522,-8.1586248
901,1715673401770,3.28600889,1.50733186,0.25375262000000004,0.683206972,2.3922553,-8.335165049999999
902,1715673401780,3.3997579,1.4418930666666665,0.25525200666666664,0.5949318644444445,2.5932248111111114,-8.475195388888888
903,1715673401790,3.40172272,1.29942944,0.22835478399999998,0.59250878,2.69248012,-8.6241034
904,1715673401800,3.2845453200000003,1.0482684800000002,0.195084548,0.66263606,2.71373828,-8.7508582
905,1715673401810,3.16219667,0.92130376,0.182559426,0.75044793,2.67887306,-8.753973499999999
906,1715673401820,2.895209566666667,0.7700652333333333,0.15911498333333332,1.0744101666666666,2.4815382,-8.464708333333334
907,1715673401830,2.71775623,0.723920284,0.15376507199999997,1.3462554,2.2452351800000003,-8.08202194
908,1715673401840,2.31293984,0.728005884,0.20842678599999998,1.6144862800000002,1.85165474,-7.40915402
909,1715673401850,2.08229228,0.7383967709999999,0.302804245,1.69866356,1.58119416,-6.816858999999999
910,1715673401860,1.9211120799999999,0.751141406,0.4118289,1.5361734,1.4433218399999999,-5.90892996
911,1715673401870,1.7985195999999999,0.75772715,0.5049075,1.4014776,1.4831808,-5.5042014
912,1715673401880,1.74761421,0.72992674,0.449818946,1.1223122,1.7316502,-4.6158504
913,1715673401890,1.68570812,0.6468914,0.252039116,1.11363792,1.8625892,-3.5384674400000002
914,1715673401900,1.6363880599999998,0.5763080300000001,0.1024389036,1.2512047000000002,1.7528625299999998,-2.80623862
915,1715673401910,1.533775111111111,0.4857668288888889,-0.043789817777777774,1.3507588000000001,1.320215511111111,-2.0878864444444445
916,1715673401920,1.4336445899999999,0.378613558,-0.0691808665,1.2707524600000002,1.135415186,-1.92037704
917,1715673401930,1.33589496,0.22564731600000001,-0.0480881726,0.96202118,0.963181792,-1.7663474000000001
918,1715673401940,1.16115308,-0.016025328,-0.0418195122,0.4334394304,0.9295841840000001,-1.59304492
919,1715673401950,1.0116647333333333,-0.19635293,-0.05303154977777777,0.05085453088888889,0.9271916377777778,-1.474357188888889
920,1715673401960,0.8923082000000001,-0.37099725,-0.07628494,-0.25579983,0.93737274,-1.3744467
921,1715673401970,0.7272498,-0.700406735,-0.080510793,-0.7311140810000001,0.965197648,-0.997741457
922,1715673401980,0.5875953,-0.9545678499999999,-0.07500438,-1.1091785,0.9837985,-0.4488332300000001
923,1715673401990,0.5642469622222223,-1.0422220666666666,-0.014953446888888888,-1.174100011111111,0.9037072711111112,0.3915476411111112
924,1715673402000,0.6124869310000001,-1.08603285,0.029507819,-1.13578179,0.8545546829999999,0.9448405400000001
925,1715673402010,0.70086407,-1.17756865,0.024574605,-0.9357845000000001,0.907715252,1.5349211
926,1715673402020,0.75016576,-1.24374328,-0.055673981000000004,-0.724486208,0.899590718,1.8170492
927,1715673402030,0.7853812,-1.32266865,-0.18537667,-0.46914451,0.7535023,2.0660989
928,1715673402040,0.7800658111111112,-1.3596321444444444,-0.2686877655555555,-0.32248593666666664,0.6066231555555556,2.206309444444445
929,1715673402050,0.765495885,-1.41509473,-0.36092959,-0.1719280158,0.281822689,2.4112988599999996
930,1715673402060,0.7666911,-1.472464,-0.4216709,-0.089186326,-0.04230242,2.631302
931,1715673402070,0.797150178,-1.49167234,-0.4376231,-0.068294734,-0.274171589,2.8257863299999997
932,1715673402080,0.83956116,-1.5091734,-0.43325698,-0.07574729,-0.72402805,3.3095152
933,1715673402090,0.9968447680000001,-1.41001516,-0.267722936,-0.305906037,-0.932623285,4.10716776
934,1715673402100,1.0814046,-1.3545302,-0.1832424,-0.5739587955555555,-0.9568186644444445,4.762509111111111
935,1715673402110,1.30187475,-1.0942406,-0.13485543,-1.1211515200000002,-0.64088926,5.4872192
936,1715673402120,1.4223696000000001,-0.8660566199999999,-0.19626145,-1.5368606,-0.40981422,5.8541507500000005
937,1715673402130,1.5302857444444444,-0.5789159133333333,-0.2870763688888889,-1.8052934666666667,-0.3663664222222222,5.951609266666667
938,1715673402140,1.58290334,-0.329086274,-0.352807168,-1.99919394,-0.449184475,5.84315511
939,1715673402150,1.5628960285714286,-0.13721184142857143,-0.39158208857142857,-2.1238039,-0.6277076571428571,5.529508399999999
940,1715673402160,1.49731289,-0.048728453,-0.41484735500000003,-2.2266037400000003,-0.9523389200000001,4.98924168
941,1715673402170,1.4395474199999998,-0.048258914,-0.41347534399999997,-2.2188458,-1.14289834,4.808578280000001
942,1715673402180,1.3910567888888887,-0.04922374022222223,-0.4154375155555556,-2.0610423333333334,-1.4555730777777778,4.686693811111111
943,1715673402190,1.41205797,-0.0384168781,-0.475643587,-1.4003321899999999,-1.87149253,4.85550836
944,1715673402200,1.5149542999999999,-0.035209373599999996,-0.5692527000000001,-0.8516988940000001,-2.1776734,5.1352081599999995
945,1715673402210,1.76911546,0.025989323200000004,-0.621353324,-0.336250774,-2.6278811600000003,5.62408372
946,1715673402220,2.0030843333333332,0.08445615166666667,-0.5900750966666667,-0.2669650833333333,-2.9203431555555555,5.930347944444445
947,1715673402230,2.31942796,0.126604949,-0.49963893000000004,-0.51251595,-3.07228566,6.1136924
948,1715673402240,2.6905593199999998,0.21364661599999998,-0.364374926,-0.86755084,-3.16574804,6.2854064
949,1715673402250,3.1016322,0.43678158,-0.12645860879999998,-1.40247025,-3.2698853,6.715317999999999
950,1715673402260,3.3673308,0.6400983,0.05622279300000001,-1.5563319,-3.2948544,6.934848
951,1715673402270,3.6336388,0.86230638,0.22042748659999994,-1.6017803000000002,-3.257836,7.1956872
952,1715673402280,4.116874279999999,1.32544314,0.5236280799999999,-1.55953895,-3.139771,7.575950799999999
953,1715673402290,4.92453688,2.53500758,0.990978539,-1.2330314999999998,-2.52482823,7.8984722000000005
954,1715673402300,5.025760733333333,3.226367,1.0348164333333334,-1.0330749466666669,-2.095726,7.119583533333333
955,1715673402310,4.733935,3.66423815,1.01801675,-0.84788097,-1.6975945,5.689827800000001
956,1715673402320,4.525569,3.7779032999999997,1.0310968,-0.7611381,-1.5517504,5.053077
957,1715673402330,4.419112999999999,3.765463566666667,1.0293216222222223,-0.5532742277777778,-1.3960646222222222,4.515515888888888
958,1715673402340,3.7551947599999997,3.62194924,0.9725628649999999,-0.154472553,-1.15613885,3.8096611100000004
959,1715673402350,2.69293762,3.31664476,0.74034807,0.592264402,-0.7269601600000001,3.11605416
960,1715673402360,2.3768459555555554,3.2542887555555553,0.6443262111111111,0.738281571111111,-0.5097501066666666,2.8011565444444444
961,1715673402370,2.15721116,3.1937594000000002,0.5783812979999999,0.6177985589999999,-0.335868988,2.52253755
962,1715673402380,1.6926353200000002,3.07978948,0.44405029,0.06362162,-0.054275380000000005,2.0836613
963,1715673402390,1.3025698499999998,2.98588752,0.33942833,-0.6629109559999999,0.201157919,1.57771222
964,1715673402400,0.83821966,2.77323494,0.179108012,-1.2441034,0.328645495,0.872621
965,1715673402410,0.5279712066666666,2.5852321000000003,0.1008459911111111,-1.4295264555555556,0.20869531555555557,0.2536108977777778
966,1715673402420,0.14412426299999997,2.340289,0.12848310999999998,-1.41102235,-0.078725265,-0.4311181575
967,1715673402430,-0.0924566168,2.16901686,0.218781063,-1.32288976,-0.262061198,-0.944641996
968,1715673402440,-0.3021924266666667,1.9766194666666668,0.3551223333333333,-1.2395473888888888,-0.29952759777777777,-1.3073703444444444
969,1715673402450,-0.457551066,1.8265944,0.46295380599999997,-1.15815468,-0.1956143138,-1.54680245
970,1715673402460,-0.601047254,1.73956488,0.5487636979999999,-1.012051,0.1101084572,-1.8453322799999998
971,1715673402470,-0.64711094,1.7288814,0.5827169,-0.9584476,0.25305092,-1.9599611999999997
972,1715673402480,-0.67263071,1.72174692,0.59791907,-0.86319844,0.542509442,-2.23594998
973,1715673402490,-0.661873994,1.7511449,0.592577284,-0.5511989589999999,0.93628843,-2.84377626
974,1715673402500,-0.63650054,1.7663836,0.579668,-0.09600764666666667,1.1854858333333333,-3.396512566666667
975,1715673402510,-0.47171048199999993,1.6693048000000001,0.40249911000000005,0.599319908,1.3517837,-3.9174787800000006
976,1715673402520,-0.31848200000000004,1.608228,0.25833216,1.2621239599999998,1.36442864,-4.2611364
977,1715673402530,-0.192212432,1.57765309,0.177095704,1.7979443699999997,1.31209281,-4.491508829999999
978,1715673402540,0.0840292911111111,1.562896088888889,0.06501734852222223,2.148803366666667,1.2459445111111112,-4.664074866666667
979,1715673402550,0.549910116,1.65556008,-0.01870840864,2.08161498,1.2452182600000001,-4.82788198
980,1715673402560,0.85900131,1.7521936699999998,-0.11014667,1.7888577900000002,1.2782813499999999,-5.12259392
981,1715673402570,1.1645802,1.8324851,-0.19812131,1.4894761666666667,1.2690046444444443,-5.447102211111111
982,1715673402580,1.49011132,1.9038063,-0.21631750199999997,1.0425943,1.2024882,-5.9444823
983,1715673402590,1.9534127900000002,1.99825081,-0.13393464100000002,0.5401576,1.1302534,-6.572146399999999
984,1715673402600,2.40074983,2.09935415,0.08675506259999999,0.3999182,1.15180168,-6.88267974
985,1715673402610,2.6877585333333336,2.1987664333333337,0.23887573333333334,0.48064913333333326,1.244536111111111,-6.991980644444444
986,1715673402620,2.9595386,2.3141471,0.33462929199999997,0.70848152,1.3574036,-7.07714882
987,1715673402630,3.18166128,2.3514785999999996,0.362582124,0.9588751999999999,1.44020644,-7.252894759999999
988,1715673402640,3.365711366666667,2.3172625,0.3600209933333333,1.1356154444444444,1.4836559444444444,-7.465520022222222
989,1715673402650,3.4756297714285713,2.2339194428571427,0.3390093214285714,1.2127638428571428,1.4917765142857142,-7.628659814285714
990,1715673402660,3.52655956,2.1335390399999996,0.306615452,1.2505938799999998,1.4842498,-7.7215810000000005
991,1715673402670,3.5311999800000002,2.01128188,0.263326352,1.31339074,1.4412296,-7.77513857
992,1715673402680,3.4869108,1.8966351999999997,0.2508683,1.4057536,1.3564262,-7.786546699999999
993,1715673402690,3.27949632,1.52474139,0.3117865,1.5662279099999998,1.18703329,-7.525249120000001
994,1715673402700,3.0846313199999997,1.29530726,0.362411376,1.57481054,1.1909427999999997,-7.18664654
995,1715673402710,2.7342652555555556,0.9851116722222222,0.3461313022222222,1.458831022222222,1.3079303333333334,-6.535579422222223
996,1715673402720,2.49599935,0.758367425,0.27102191,1.3692544500000001,1.37505765,-5.990221
997,1715673402730,2.2604164333333334,0.53472631,0.16234687,1.3246103666666666,1.3473650666666666,-5.4257051999999995
998,1715673402740,1.9631389,0.25058779,0.027306471199999998,1.29946314,1.104444336,-4.70048616
999,1715673402750,1.75984658,0.022879387999999997,0.0168058578,1.166829039,0.79152864,-4.0669119600000005
1000,1715673402760,1.665707,-0.08384635,0.07311402,0.9353874300000001,0.54244834,-3.5436291999999994
1001,1715673402770,1.4154282,-0.22869220555555556,0.19684074444444444,0.37688686555555556,0.5182173577777778,-3.0886873444444447
1002,1715673402780,1.1718366,-0.43130565,0.2762356,-0.24587326000000004,0.68462723,-2.8064678
1003,1715673402790,0.969337032,-0.74244569,0.26979623999999996,-0.9129380919999999,1.090486086,-2.50189036
1004,1715673402800,0.560916875,-1.30483225,0.06515624295,-1.18743043,1.50697407,-1.57952957
1005,1715673402810,0.4567949666666667,-1.4353886,-0.05740172273333333,-0.9715132933333334,1.5089559666666665,-0.9777407666666666
1006,1715673402820,0.39834643000000003,-1.58378135,-0.21769561499999995,-0.249920237,1.1624002,0.1337795
1007,1715673402830,0.41143865599999996,-1.6306805,-0.262844602,0.0921795676,0.8654432920000001,0.72531086
1008,1715673402840,0.44913866888888887,-1.6324123666666666,-0.24554957111111111,0.27734979111111113,0.5485739433333333,1.3306851
1009,1715673402850,0.48697962399999994,-1.61344782,-0.19401131,0.22821925199999998,0.412150776,1.66210324
1010,1715673402860,0.53809844,-1.57983608,-0.1123785003,0.053756139999999994,0.34666604,1.9886718
1011,1715673402870,0.60644393,-1.55430408,-0.0429171379,-0.649349743,0.444786269,2.61749644
1012,1715673402880,0.6463114222222222,-1.5572928,-0.06133149066666667,-0.9421069000000001,0.47433685999999997,2.854726
1013,1715673402890,0.762312776,-1.5269305599999998,-0.10256696000000001,-1.6114930600000001,0.30665436,3.6934134
1014,1715673402900,0.855519428,-1.46145721,-0.095725094,-1.7578258000000002,0.10204504379999998,4.18752693
1015,1715673402910,0.9508359800000001,-1.38382468,-0.11092110200000001,-1.63751588,-0.20015000440000003,4.697278819999999
1016,1715673402920,1.1051593222222222,-1.2816398,-0.1753422077777778,-1.483028,-0.37186423,4.929377
1017,1715673402930,1.1669339,-1.2426578799999999,-0.21923230400000002,-1.16162132,-0.664254856,5.24429356
1018,1715673402940,1.2674703,-1.12252893,-0.27600393100000004,-0.92388788,-1.0135476149999998,5.611942600000001
1019,1715673402950,1.39685593,-0.943152625,-0.24772787300000002,-0.9125257399999999,-1.29755415,5.91986451
1020,1715673402960,1.5807764444444445,-0.7426720944444445,-0.16324123333333335,-1.1393484666666667,-1.4309178777777778,6.206798033333333
1021,1715673402970,1.6795857600000001,-0.5973519599999999,-0.12831846900000002,-1.3961019399999999,-1.3971862,6.3256926899999995
1022,1715673402980,1.74703491,-0.453160614,-0.13440419,-1.6944179900000003,-1.31714767,6.355716859999999
1023,1715673402990,1.8428391400000002,-0.23391609400000002,-0.21857373,-2.2170744,-1.20768062,6.21888288
1024,1715673403000,1.8555215111111112,-0.09517493713333333,-0.24520401111111115,-2.4510627666666664,-1.247743211111111,6.043815822222222
1025,1715673403010,1.807142,0.01459841268,-0.256210084,-2.50398254,-1.3356263099999999,5.833503330000001
1026,1715673403020,1.7785671600000001,0.0656989562,-0.30490804000000005,-2.1708013,-1.59060144,5.67127282
1027,1715673403030,1.7786403,0.11659217420000001,-0.348520339,-1.6597819600000001,-1.9456210200000001,5.600855350000001
1028,1715673403040,1.9069770000000001,0.167241472,-0.308213116,-1.0087676,-2.38329065,5.631261
1029,1715673403050,2.0687452222222222,0.21046621555555556,-0.24865273222222223,-0.6398983044444444,-2.5826025555555554,5.714219777777778
1030,1715673403060,2.2018540399999997,0.26355807200000003,-0.203627748,-0.45109344799999995,-2.6717414,5.791521520000001
1031,1715673403070,2.3443991,0.35510610299999995,-0.14904528300000003,-0.49929071300000005,-2.66321972,5.80251721
1032,1715673403080,2.39703,0.39770615,-0.12915388,-0.63056564,-2.6247354,5.770233
