id,timestamp,acc_x,acc_y,acc_z,gyro_x,gyro_y,gyro_z
0,1715673286170,0.19817467875,0.394016875,1.10450035,0.37957639,-0.38618137249999995,-0.4576907875
1,1715673286180,0.184083912,0.388400716,0.989569876,0.366213722,-0.196240462,-0.54247888
2,1715673286190,0.132544315,0.32378720000000005,0.793826804,0.280646772,-0.247751681,-0.584200991
3,1715673286200,0.12750745,0.32001868,0.7490071,0.13729197,-0.4538729000000001,-0.47112983
4,1715673286210,0.1004509804,0.337361158,0.715913686,-0.11301007,-0.6221663,-0.28970283
5,1715673286220,0.08012662,0.34056866,0.6687586,-0.35246924,-0.8576548,-0.14340061
6,1715673286230,0.07128465,0.34691048,0.6760151,-0.52412236,-1.1447614,0.004428773
7,1715673286240,0.0787241,0.36166742,0.7387626,-0.6273586,-1.3148874,0.10888673
8,1715673286250,0.123726728,0.385760312,0.8379879600000001,-0.7319539899999999,-1.3359164399999999,0.20908390100000002
9,1715673286260,0.18132493444444442,0.41494969111111113,0.9215307677777778,-0.7671958333333334,-1.2757412,0.22490022
10,1715673286270,0.25807603300000004,0.456331489,0.987112479,-0.7638564600000001,-1.03495842,0.155892814
11,1715673286280,0.29532973375000005,0.47476091375,1.00158283,-0.72040104,-0.912365385,0.073036579
12,1715673286290,0.3842636088888889,0.5071840688888889,0.8876602411111111,-0.4083803988888889,-0.68403332,-0.3423730008888889
13,1715673286300,0.36819223,0.50972486,0.75931257,-0.19379699,-0.8145887999999999,-0.55665094
14,1715673286310,0.3521547,0.53283596,0.6490623,0.021227567,-1.2597568,-0.6791294
15,1715673286320,0.40221858,0.6041816,0.63393945,0.1919644,-1.8081611,-0.66645396
16,1715673286330,0.493248316,0.69862616,0.6917477059999999,0.279302861,-2.10684361,-0.621234688
17,1715673286340,0.6233534479999999,0.8452809800000001,0.8140962970000001,0.36855029300000003,-2.41476544,-0.581650603
18,1715673286350,0.7395146588888889,0.8885477355555556,0.8451645333333333,0.33225978888888885,-2.4228782444444446,-0.5777427655555556
19,1715673286360,0.773252402,0.8989548840000001,0.8385001799999999,0.2893974,-2.4455990499999998,-0.563446825
20,1715673286370,0.86951414,0.72066402,0.728591298,0.272109932,-2.74244886,-0.40204096
21,1715673286380,1.00878449,0.82216989,0.7294572020000001,0.39034290400000005,-3.13535742,-0.18090774
22,1715673286390,1.4078261,1.5828972,0.95743394,1.1139128,-4.02606,0.07849618
23,1715673286400,1.7133926,1.8554741,1.0725017,1.51340336,-4.0376053800000005,-0.324949786
24,1715673286410,1.94154637,1.89208612,1.10647307,1.9813414999999999,-3.9359574000000004,-1.4366024
25,1715673286420,2.005483,1.8780363999999998,1.1389079,2.2275202,-4.043928,-2.1890357
26,1715673286430,1.9859423444444444,1.872297488888889,1.1763288111111112,2.6555330888888893,-4.334835555555555,-2.6668679666666666
27,1715673286440,2.0035741700000003,1.9449671099999999,1.23586476,3.3522757400000005,-4.71646012,-2.87735844
28,1715673286450,2.1598212444444447,2.0693279666666666,1.3551198111111111,4.1447548,-5.169447144444444,-2.876801966666667
29,1715673286460,2.2759681499999997,2.19149372,1.4263759,4.64614947,-5.43189005,-2.84160775
30,1715673286470,2.43579444,2.56566796,1.52910143,5.232060850000001,-5.78199225,-3.00851135
31,1715673286480,2.555901177777778,2.8372251222222222,1.6674347555555555,6.0796195,-6.405074888888889,-3.474024511111111
32,1715673286490,2.7472032200000003,2.98366183,1.97573114,6.84001086,-6.953937290000001,-4.108114469999999
33,1715673286500,2.8885832,3.018591,2.1056106,7.115969,-7.0609913,-4.6268463
34,1715673286510,3.038226,3.0812774,2.1617115,7.064962,-7.00861,-5.177694
35,1715673286520,3.1517754,3.10564472,2.2359110099999997,7.03698416,-7.12027592,-5.6658972
36,1715673286530,3.2173219000000004,3.0196884,2.3373926,7.03425057,-7.30872801,-6.35669445
37,1715673286540,3.25299457,2.7693749999999997,2.45922884,6.940650719999999,-7.44116346,-6.983472659999999
38,1715673286550,3.1995022888888887,2.3964473777777777,2.5709291333333333,6.5751836,-7.415921000000001,-7.350524522222222
39,1715673286560,3.15672062,2.2420821600000003,2.5826142,6.30025038,-7.3710665,-7.3590018
40,1715673286570,3.082713588888889,2.022584266666667,2.5496746666666663,5.661601022222222,-7.285925611111111,-7.231694055555555
41,1715673286580,2.9605508,1.5869828199999998,2.3220502400000003,4.93841796,-7.2430904,-7.0334718800000005
42,1715673286590,2.947942922222222,1.3515151444444444,1.9674927777777778,4.3069734,-7.492092733333333,-6.958790222222222
43,1715673286600,2.94486699,1.11416865,1.7389734000000001,3.95031291,-7.85088611,-7.0970170999999995
44,1715673286610,2.825043,0.7169931,1.5634449,3.2771394000000003,-8.207128,-7.476074
45,1715673286620,2.5600274,0.31245726,1.3284922,2.6936102,-8.150317,-7.798611
46,1715673286630,2.2989757,0.024513626,1.1879961,2.28141362,-8.0282662,-7.981000499999999
47,1715673286640,2.01524575,-0.22186661020000004,1.1117599400000002,2.06884789,-7.7865771,-8.079303399999999
48,1715673286650,1.65282817,-0.527335684,1.0259074700000002,1.9583423500000001,-7.3831311,-8.1253939
49,1715673286660,1.3730475666666666,-0.7056916066666666,1.0227629333333335,1.9821050000000002,-7.020725266666667,-8.042601666666666
50,1715673286670,1.0497136980000001,-0.9057601680000001,1.0221389,2.06574771,-6.532379199999999,-7.8171664199999995
51,1715673286680,0.691192772,-1.11060135,0.950122511,2.2047043200000003,-6.088249599999999,-7.38755982
52,1715673286690,0.336531818,-1.26570794,0.781240694,2.52375928,-5.7297327199999994,-6.4136573
53,1715673286700,0.13149818555555556,-1.3348949777777779,0.5839636333333333,2.770748944444444,-5.802507177777778,-5.380483844444445
54,1715673286710,0.0439659808,-1.29161202,0.5767043900000001,2.72366478,-5.9434132,-4.502046399999999
55,1715673286720,-0.0037197291,-1.1572627,0.7694961,2.0105102,-5.6747856,-3.2795827
56,1715673286730,0.0061588959900000005,-1.18371541,0.902034276,1.1020009700000002,-4.77287346,-2.75660584
57,1715673286740,-0.0918956,-1.0693307,1.1425056,-0.15424347,-3.213762,-2.2551618
58,1715673286750,-0.12712935799999997,-0.9388230500000001,1.16187873,-0.935204097,-1.9429485899999999,-2.11648017
59,1715673286760,-0.15138686799999998,-0.87046544,1.0779775399999998,-1.4665652599999999,-0.979278092,-2.06380822
60,1715673286770,-0.20786579500000002,-0.804754307,0.8793623150000001,-2.10110157,0.281776858,-1.99580366
61,1715673286780,-0.229159708,-0.727627844,0.689271938,-2.4510357,1.14818236,-1.9133826800000002
62,1715673286790,-0.20314194,-0.6169330111111111,0.4186084366666667,-2.3999877,1.5674462666666666,-1.842081111111111
63,1715673286800,-0.19474307100000002,-0.5738078919999999,0.41704262999999997,-2.189112,1.45514212,-1.8162398200000003
64,1715673286810,-0.03823394,-0.4431356,0.4101459,-1.8498527,1.3573426,-1.8480201
65,1715673286820,-0.0118177634,-0.386424968,0.36126498,-1.7244114799999999,1.31189416,-1.9290208200000003
66,1715673286830,0.08877889122222221,-0.33067647555555557,0.1983720111111111,-1.3258490666666667,0.9972035555555555,-2.1660093000000002
67,1715673286840,0.14861843300000002,-0.342288264,0.129446576,-1.045679112,0.6524346000000001,-2.27574784
68,1715673286850,0.178711644,-0.349703348,0.09148094799999999,-0.725524635,0.22524128499999999,-2.36904228
69,1715673286860,0.184029027,-0.358100155,0.040099904000000006,-0.6262896,0.03268129,-2.39337
70,1715673286870,0.15588985333333336,-0.3928616744444444,0.04336974111111111,-0.5009943377777778,-0.2518461677777778,-2.396627866666667
71,1715673286880,0.09393231,-0.42599436300000004,0.06874181650000001,-0.44748933199999996,-0.394802212,-2.3608414800000004
72,1715673286890,0.016068011,-0.446452877,0.090230875,-0.44921502599999996,-0.487592652,-2.27002114
73,1715673286900,-0.064394,-0.4599049,0.12714157,-0.5366451,-0.46639562,-2.1413882
74,1715673286910,-0.11720196,-0.49076036000000006,0.17324181,-0.62949663,-0.2948952,-2.0653355
75,1715673286920,-0.17197343999999998,-0.530165096,0.101676663,-0.659322153,-0.22686008700000002,-1.9636263200000001
76,1715673286930,-0.198035947,-0.60956605,0.099158226,-0.5548794239999999,-0.190162356,-1.7566041000000001
77,1715673286940,-0.24897793,-0.73754305,0.080065645,-0.354744729,-0.195034004,-1.45859348
78,1715673286950,-0.3153232633333334,-0.7911640633333332,0.06238168833333334,-0.19985475666666666,-0.2460259833333333,-1.1754065666666669
79,1715673286960,-0.43807435000000006,-0.8476714,0.0453685,0.038331795,-0.3013093,-0.65469486
80,1715673286970,-0.46573447,-0.860647752,0.043709868,0.105160455,-0.306074036,-0.47595566799999994
81,1715673286980,-0.6021693100000001,-0.895174184,0.085608656,0.174508926,-0.292970979,-0.16242907099999998
82,1715673286990,-0.7335672040000001,-0.9748800899999999,0.187230439,0.118584215,-0.16050484699999998,-0.06788240129999999
83,1715673287000,-0.9543239499999999,-1.1445789,0.2154394,-0.19730948,0.43569964,0.028863383000000003
84,1715673287010,-1.0948016649999999,-1.28962408,0.156320095,-0.332860469,0.743148082,0.025977044300000002
85,1715673287020,-1.3550485900000002,-1.66685947,-0.0073175,-0.37885862300000006,0.9998489800000001,0.18898644020000002
86,1715673287030,-1.6243631,-1.9979824,-0.12897095,-0.20769419,0.91965765,0.5129741
87,1715673287040,-1.7263811700000002,-2.1931827200000003,-0.13755071000000002,0.018295413000000003,0.715048315,0.9015606900000002
88,1715673287050,-1.82913721,-2.4021218699999998,-0.0649915949,0.49064700000000006,0.40071232000000007,1.68013911
89,1715673287060,-1.9122728777777778,-2.4398781888888887,0.06589815144444444,0.9729556399999999,0.43111816,2.3145685
90,1715673287070,-1.9088918400000001,-2.4450574,0.125043876,1.123457564,0.6305504020000001,2.56732918
91,1715673287080,-1.8509982,-2.4566434,0.122702278,1.22906088,1.0611035359999998,2.9082377999999998
92,1715673287090,-1.8180532666666664,-2.4319102,0.04337651333333334,1.3275628666666668,1.5204436666666665,3.1963524000000003
93,1715673287100,-1.81665476,-2.2561438,-0.302798144,1.52432252,2.1996646,3.3703879999999997
94,1715673287110,-1.7688593099999999,-2.23331333,-0.6813263239999999,1.83138927,2.28926343,3.2288351299999993
95,1715673287120,-1.71062428,-2.27563279,-1.070477026,2.28074169,1.84226274,3.0918791600000004
96,1715673287130,-1.5354555,-2.2937315,-1.2114731,2.9642236,0.88056225,3.1198416
97,1715673287140,-1.2694643,-2.304159,-0.9979850000000001,3.5294266,0.29947668,3.2420146
98,1715673287150,-1.0435487,-2.28942636,-0.812071776,4.06353682,0.095371332,3.4173940000000003
99,1715673287160,-0.62040818,-2.33947194,-0.705717982,4.40522416,0.1550376,3.70639428
100,1715673287170,-0.395523088,-2.37886428,-0.654843105,4.553511519999999,0.35057555199999996,4.12783054
101,1715673287180,0.03170916444444444,-2.3440799333333335,-0.5600055911111111,4.535878066666667,0.7403347444444445,4.765580288888888
102,1715673287190,0.47240559399999993,-2.28602376,-0.567642896,4.28943471,1.36444388,5.80225791
103,1715673287200,1.129102466,-2.13769792,-0.6395495600000001,3.6961166400000005,2.1945486,7.2822315
104,1715673287210,2.0157273,-1.8331557999999997,-0.7057119,3.1236594,2.7609582,8.157342
105,1715673287220,2.4141652333333337,-1.7049776,-0.7756346666666666,2.4316169111111114,3.282501311111111,8.755718
106,1715673287230,3.0049925,-1.5183203,-0.90371126,1.6800169100000002,3.6456742999999996,9.197904900000001
107,1715673287240,3.4191022,-1.4334372,-0.8991988,1.1898128,3.7690387000000003,9.490708
108,1715673287250,3.642908955555556,-1.3669293777777778,-0.8955671555555555,1.0065531911111112,3.6951918555555556,9.687813777777778
109,1715673287260,3.8036974999999997,-1.2803186,-0.94520147,1.010340524,3.56305488,9.7839232
110,1715673287270,4.2714687,-1.0351579699999998,-0.800997955,1.39203968,2.5885873600000004,10.1702494
111,1715673287280,4.493168288888889,-0.9043006999999998,-0.67502582,1.7209091666666667,1.869603988888889,10.395348444444444
112,1715673287290,4.7116527999999995,-0.7012726199999999,-0.511200556,1.56363176,1.62768102,10.3463466
113,1715673287300,4.8024264,-0.518322908,-0.32587268,0.90432492,1.6186706999999998,10.0893864
114,1715673287310,4.755399199999999,-0.41417048666666667,-0.131450764,0.03105233333333335,1.8096882333333335,9.765648333333333
115,1715673287320,4.536267388888889,-0.3650687222222222,0.12384869155555554,-1.0361801333333331,2.1150700000000002,9.428196
116,1715673287330,4.42269705,-0.36898495000000003,0.179797085,-1.7316502,2.27593125,9.220324000000002
117,1715673287340,4.138439744444445,-0.41499031555555554,0.27800404888888886,-2.3130412,2.110692,8.9449
118,1715673287350,3.9759394799999996,-0.419097616,0.315615988,-2.2565972000000003,1.9262108000000002,8.843129600000001
119,1715673287360,3.7397669999999996,-0.44037935600000006,0.397059756,-1.87633364,1.45663866,8.5601462
120,1715673287370,3.5660954888888887,-0.4966956155555555,0.4491522244444444,-1.4437799999999998,1.1246198555555555,8.278276444444446
121,1715673287380,3.4184068400000003,-0.5791191400000001,0.421536782,-1.16070508,0.9675494800000001,8.105540600000001
122,1715673287390,3.284615888888889,-0.6729864111111111,0.3660782588888889,-0.8969877733333332,0.7989438844444444,7.988369711111111
123,1715673287400,3.19732681,-0.77517937,0.33050709,-0.627847316,0.587224756,7.96785116
124,1715673287410,3.1618307,-0.9550557,0.36989963,-0.4382958,0.46868637,8.210029
125,1715673287420,3.2096996,-0.93956697,0.43191543,-0.54626626,0.66248333,8.643896
126,1715673287430,3.402516,-0.8306582600000001,0.32989728,-0.9921368260000001,1.0460914730000002,9.1976606
127,1715673287440,3.5649642399999997,-0.576838532,0.20857315199999998,-1.6951816000000002,1.394025,9.6837412
128,1715673287450,3.7455845000000005,-0.14330104,0.027440626000000003,-2.6010642,1.6737708000000002,9.957104
129,1715673287460,3.7831476111111115,0.3489227822222223,-0.08102098822222223,-3.205820911111111,1.7340428,9.735834666666667
130,1715673287470,3.71227144,0.793028016,-0.14583777599999997,-3.4348647,1.6264897600000001,9.324552
131,1715673287480,3.5946487599999997,1.22965708,-0.169192798,-3.4375831,1.45440908,8.8117312
132,1715673287490,3.5816521000000003,1.6694673333333332,-0.19974743,-3.4687983666666664,1.2507466,8.155153066666665
133,1715673287500,3.8554687999999997,2.4903893,-0.3319706,-4.0736772199999995,1.1643091600000002,7.76962552
134,1715673287510,4.01836236,2.7972728499999997,-0.275009954,-5.04383801,1.11516503,7.53242644
135,1715673287520,4.0156,3.0424945,0.17872995,-7.545713000000001,1.1539245,6.649879
136,1715673287530,3.7660734999999996,2.903584,1.0294503,-9.706496,1.7357736,5.5526123
137,1715673287540,3.45673814,3.1354512,1.68056142,-10.320339800000001,2.31950118,4.87331505
138,1715673287550,3.3706845999999997,3.5528903,2.151345,-9.654267,2.5476136,4.540867
139,1715673287560,3.3706846,3.5528903,2.151345,-9.654267,2.5476136,4.540867
140,1715673287570,4.48526164,3.92424116,2.29440214,-5.3059449,1.6387071,4.50366498
141,1715673287580,5.442671,3.96087756,2.16843132,-2.99375895,1.4332578200000001,3.3276425599999997
142,1715673287590,6.39332409,3.48023362,1.79036659,-1.2233645499999999,1.50627151,0.748294646
143,1715673287600,6.7521895222222215,2.5298358222222226,1.4519952999999999,-0.07839437333333334,1.6377806444444445,-2.407046568888889
144,1715673287610,6.5471866599999995,1.6723598,1.36547611,0.8351749434999999,1.59567172,-4.1716903
145,1715673287620,6.2351196700000004,0.874733984,1.32010141,1.6512603599999998,1.57942268,-5.027970720000001
146,1715673287630,5.8856483,0.1911087,1.185496,3.1025846,1.8025106000000002,-5.669746
147,1715673287640,5.62795,-0.07329696,0.8681604,3.7071884,2.10046,-5.632483
148,1715673287650,5.40790696,-0.10282916899999998,0.5825461890000001,3.89397566,2.25178663,-5.5361344
149,1715673287660,5.1750584,-0.07238227,0.24702659,3.7867537,2.3415992,-5.53001
150,1715673287670,5.0878174666666665,-0.051242828,0.14384985,3.685655433333333,2.307492466666667,-5.5873298
151,1715673287680,4.8859434,-0.0148179382,-0.0151594216,3.41666094,2.0865323,-5.8431095399999995
152,1715673287690,4.71261618,-0.0387583576,-0.011427496,3.20957766,1.88418322,-6.1658905
153,1715673287700,4.375783766666666,-0.211557048,0.14235925533333332,2.8034473,1.7099645666666665,-6.826758633333333
154,1715673287710,4.17792661,-0.326451968,0.222848372,2.5484076399999998,1.7642094399999997,-7.109677359999999
155,1715673287720,3.9406810500000007,-0.445702836,0.277223486,2.33510876,1.92028544,-7.25836197
156,1715673287730,3.5281934999999995,-0.61534077,0.30971318,1.9898935999999998,2.316401,-7.441713300000001
157,1715673287740,3.3058026,-0.6540625,0.25690526,1.9361374000000002,2.6314547,-7.5034103000000005
158,1715673287750,3.16262372,-0.6653802839999999,0.194169868,1.9909777300000002,2.8380341299999996,-7.590962930000001
159,1715673287760,3.0299084499999998,-0.698229743,0.10834778249999999,2.08366136,3.0127261400000003,-7.72425353
160,1715673287770,3.0070519444444446,-0.7164713444444444,0.023531183666666664,2.1088426444444446,3.0316054999999995,-7.845003055555556
161,1715673287780,3.0225665999999998,-0.718090712,-0.09546898179999999,2.11316616,2.8781220999999997,-8.095613660000001
162,1715673287790,3.02492655,-0.728188851,-0.136215263,2.14086872,2.60259124,-8.4707156
163,1715673287800,3.0063949,-0.80486405,-0.17122951,2.1849971111111106,2.353018811111111,-8.861059
164,1715673287810,3.00801687,-0.952171385,-0.189968405,2.21508905,2.09361838,-9.1594048
165,1715673287820,2.9896804,-1.13512725,-0.13277604199999998,2.1878138799999998,1.76688191,-9.3470631
166,1715673287830,2.9451718,-1.1965941,-0.06658925,2.111761,1.5969545,-9.407172
167,1715673287840,2.8900467599999997,-1.2922582599999999,-0.053271402,1.91040463,1.7661488300000001,-9.3712989
168,1715673287850,2.792175,-1.4127043,-0.12982465,1.5909985,1.9561433,-9.252317
169,1715673287860,2.6919741999999998,-1.44719414,-0.179388514,1.1947913,2.15296402,-9.064904199999999
170,1715673287870,2.6420444666666665,-1.4626463,-0.21704518,0.9913324666666666,2.2649356,-8.962716666666667
171,1715673287880,2.50426195,-1.4676771,-0.35386212499999997,0.529742356,2.46566588,-8.7069676
172,1715673287890,2.3305749000000002,-1.43577882,-0.482833054,-0.219942042,2.60123219,-8.2767206
173,1715673287900,2.269238066666667,-1.4551661333333332,-0.48517056000000003,-0.7283550033333334,2.6319638,-8.003352999999999
174,1715673287910,2.17914551,-1.5221925200000002,-0.41607912999999996,-1.280633201,2.7517035,-7.7389449
175,1715673287920,2.02675847,-1.55171855,-0.326293408,-1.89418625,3.0582968999999998,-7.4340468
176,1715673287930,1.8789511,-1.527711,-0.30379823,-2.2884538,3.3400583,-7.1196346
177,1715673287940,1.6296682,-1.5080148,-0.29032183,-2.378404,3.3980906,-6.792669
178,1715673287950,1.4369131,-1.4938067,-0.26233238,-2.213623,3.3139438999999995,-6.457762
179,1715673287960,1.24038325,-1.47119555,-0.286809428,-1.7654158,3.0275092700000004,-5.97258235
180,1715673287970,1.1318478666666667,-1.4638455777777777,-0.3128163422222222,-1.4547755333333334,2.7621290666666667,-5.6399151666666665
181,1715673287980,1.00594896,-1.39130064,-0.271613402,-0.84302455,2.09511504,-4.9437936
182,1715673287990,0.95005545,-1.2667202,-0.165223055,-0.256792468,1.41896355,-4.234518
183,1715673288000,1.0796056799999998,-1.04492072,0.0146106081,0.16206254520000002,0.92865261,-3.6310746000000003
184,1715673288010,1.1021102999999999,-0.7746184,0.15906076255555554,-0.0054977855555555545,1.0264741333333331,-3.5719326666666666
185,1715673288020,0.9796913,-0.6084501,0.16037522,-0.58276546,1.5900823,-3.9164097
186,1715673288030,0.81208394,-0.6485682930000001,0.027233297,-0.9287137060000001,1.9992550599999999,-4.23459417
187,1715673288040,0.5871684,-0.7702888,-0.16988796,-0.8894198000000001,2.1604776,-4.524221
188,1715673288050,0.23190375999999996,-0.8705996,-0.49197996,-0.40162862,1.8196149299999997,-4.6952021
189,1715673288060,0.08619743444444444,-0.8917729333333333,-0.5731161211111111,-0.07550972777777777,1.5547878555555554,-4.7739288888888884
190,1715673288070,-0.3412150464,-1.01122976,-0.703699616,0.724425106,0.942091649,-4.94817652
191,1715673288080,-0.911699578,-1.2966732,-0.8372927579999999,1.476675085,0.5188231209999999,-5.04438778
192,1715673288090,-1.3135658444444447,-1.6416268666666667,-1.0708823,1.973858311111111,0.19890451222222222,-4.896016888888889
193,1715673288100,-1.73235715,-2.03350275,-1.3749888000000001,2.2866213,-0.328492779,-4.3960151000000005
194,1715673288110,-2.2593878599999995,-2.4660097,-1.48276946,2.24532678,-0.78146462,-3.80168915
195,1715673288120,-2.541286433333333,-2.6998054000000002,-1.3581212444444444,1.4664669111111113,-0.9083566222222222,-2.707541511111111
196,1715673288130,-2.72263427,-2.94512324,-1.17138545,0.602068766,-0.42262712599999996,-1.55268207
197,1715673288140,-2.7473981,-3.063636,-1.0688793699999999,-0.17122553499999998,0.325377364,-0.40028474
198,1715673288150,-2.68876053,-3.06483733,-1.0327187800000002,-0.8803942599999999,1.28678761,0.7448585449999999
199,1715673288160,-2.5830777,-2.9496233,-1.185557,-1.1194105,1.767844,1.2690725
200,1715673288170,-2.5588322900000002,-2.86766737,-1.35826212,-1.08037624,1.9407494799999998,1.69872467
201,1715673288180,-2.54405092,-2.79819988,-1.6135575600000003,-0.89697924,1.82034795,1.88158711
202,1715673288190,-2.5034387000000002,-2.8185588,-1.7931941,-0.8202393,1.7605137,1.9394971
203,1715673288200,-2.41749468,-2.8669295200000002,-1.80210519,-0.256502323,0.78496185,2.27863426
204,1715673288210,-1.9960514444444446,-2.905318577777778,-1.2258980888888888,0.5716850211111111,-0.9212526777777776,3.3693460222222225
205,1715673288220,-1.6325952999999997,-2.8359582,-0.7748013,0.9477574000000001,-1.1672108,4.268879
206,1715673288230,-1.3595610399999998,-2.73958665,-0.615810315,1.21385032,-1.0140974,4.931225
207,1715673288240,-0.8404149000000001,-2.5343552,-0.5138105,1.64107424,-0.63934682,6.094510789999999
208,1715673288250,-0.24123359000000003,-2.438618,-0.39179114,1.8278615,-0.2744312,6.9183545
209,1715673288260,0.317512411,-2.4088172900000004,-0.282522581,1.7183945399999998,0.23112088000000003,7.53972634
210,1715673288270,0.9448722499999999,-2.5002312800000004,-0.395401107,1.38180772,0.89678074,8.29090746
211,1715673288280,1.27557444,-2.58195547,-0.552202977,1.10833862,1.14598325,8.7907175
212,1715673288290,1.8891143555555554,-2.558645311111111,-0.7197438833333334,0.5718207444444444,0.9551387111111111,9.640318444444443
213,1715673288300,1.9514554,-2.5519173,-0.73303056,0.5152648,0.9251553999999999,9.727723
214,1715673288310,2.6888886,-2.41353115,-0.557123976,0.12154690199999998,0.228051265,10.5277733
215,1715673288320,3.325166777777778,-2.2271692,-0.31847386666666666,-0.094531395,-0.3755294,11.183721
216,1715673288330,3.69832526,-2.07013285,-0.002201347200000001,-0.4272849795,-0.46019531599999997,11.3441181
217,1715673288340,3.8796775000000006,-1.9943846,0.2566613,-0.95722586,-0.19226983,11.226024
218,1715673288350,3.8903244100000003,-1.9899940399999998,0.22428137,-1.637302166,0.192712712,10.937664
219,1715673288360,3.846566,-1.9032819,0.09683492,-2.431702,0.22296582000000004,10.451904
220,1715673288370,3.752563,-1.8190018222222224,0.04286158022222222,-2.8095389777777777,-0.11674312999999999,9.995435555555556
221,1715673288380,3.6637990800000004,-1.7620417199999998,0.058076557200000004,-3.01672748,-0.524015469,9.5073848
222,1715673288390,3.5766538700000003,-1.74916901,0.19208437799999997,-2.91262082,-1.057927002,9.000916
223,1715673288400,3.535504588888889,-1.7748528888888888,0.3813027411111111,-2.702824288888889,-1.478853888888889,8.697583999999999
224,1715673288410,3.4824285600000002,-1.8078615299999998,0.653891753,-2.1673804199999998,-1.8681787,8.593010799999998
225,1715673288420,3.4423653,-1.7965073,0.70671805,-1.8651243000000002,-1.8341229,8.735526
226,1715673288430,3.2701909999999996,-1.7322353,0.63942754,-1.7234036,-1.687668,8.901834
227,1715673288440,3.292143266666667,-1.7192806333333333,0.58235106,-1.669240133333333,-1.6879394666666667,8.931290888888888
228,1715673288450,3.33181642,-1.65434042,0.5587764679999999,-1.7660725,-1.6358054800000001,8.775537799999999
229,1715673288460,3.3852950199999996,-1.57957996,0.48846751600000005,-1.99380304,-1.5953967800000002,8.501594999999998
230,1715673288470,3.4992759666666666,-1.5343984888888889,0.48979823,-2.192853466666667,-1.7041273555555554,8.177958333333333
231,1715673288480,3.58414814,-1.5185764,0.575936026,-2.12494043,-1.98922162,7.9629801
232,1715673288490,3.63099839,-1.50263643,0.6685999650000001,-2.01751979,-2.06441914,7.96015479
233,1715673288500,3.7314737,-1.36090862,0.9661417699999999,-1.2829696800000001,-2.16365424,8.09301746
234,1715673288510,3.692322511111111,-1.1246726722222222,1.0523040222222224,-0.49822846888888894,-1.9869071000000003,8.235057000000001
235,1715673288520,3.7179608,-0.80102235,1.0123152,0.12980886,-1.5760323,8.273101
236,1715673288530,3.742555933333333,-0.54182025,0.9934522666666668,0.18773924666666666,-1.1269445666666666,8.052782133333332
237,1715673288540,3.7858918000000004,0.07043094,0.9079798,-0.15653422,-0.15760323,7.5315104
238,1715673288550,3.9204726,0.57344806,0.7774844,-1.1209377,0.8535315000000001,7.177514
239,1715673288560,4.1077462888888885,1.1581434733333333,0.6504851111111111,-2.0011266777777776,1.4071111444444446,6.872895688888889
240,1715673288570,4.28032285,1.76121853,0.71857849,-2.5724147,1.7604067399999999,6.3449655
241,1715673288580,4.38934156,1.9859694600000002,0.838695228,-2.77907038,1.94517824,6.016625879999999
242,1715673288590,4.607145255555555,2.212026,1.2018994244444443,-3.282586222222222,2.5962622222222222,5.4085330111111105
243,1715673288600,4.7017010599999995,2.5341966,1.50908806,-3.95999512,3.67860004,4.6001207399999995
244,1715673288610,4.59074348,2.5677962,1.54343152,-4.506780600000001,4.71248926,3.59320112
245,1715673288620,4.428449333333334,2.2798350333333333,1.4489328000000001,-4.384637966666666,5.0584224,2.9059877333333333
246,1715673288630,4.3602727,1.80518475,1.22157126,-2.8347049699999998,4.2089379000000005,2.76731113
247,1715673288640,4.7563753,1.7472971999999998,1.1769589,-0.31642818,2.2708917,3.3253977
248,1715673288650,5.061860533333334,1.8139880666666666,1.2883881666666666,1.2952888266666667,1.2193379722222222,3.3408390000000003
249,1715673288660,6.26154206,2.0709074000000003,1.7723168100000002,3.0886874,0.5190827,2.460718
250,1715673288670,6.57394496,2.08599964,1.85503516,3.4245411600000004,0.613522516,1.72401448
251,1715673288680,6.752690866666666,1.9835709666666663,1.8160613333333333,3.6126571333333337,0.83769989,0.5024875806666667
252,1715673288690,6.5404789999999995,1.6303573100000002,1.5520174,3.59875996,1.03706592,-1.9830519858000002
253,1715673288700,6.06977465,1.24827405,1.3775499,3.7078758,0.9131672,-3.1858150000000003
254,1715673288710,5.34525085,0.74467759,1.24790815,4.07108104,0.44241917199999997,-4.3825002
255,1715673288720,4.4647787800000005,0.2713694914,1.117181,4.35656902,0.04912883674,-4.8648394
256,1715673288730,3.7832086,0.072443254,0.9488968999999999,4.429231,-0.19730948,-5.043151
257,1715673288740,3.3418415,0.066040434,0.8016321699999999,4.29439804,-0.452544242,-5.159841129999999
258,1715673288750,3.0622518,0.0693943,0.75223905,4.1242566,-0.82695884,-5.3145275
259,1715673288760,2.8477136666666665,0.061859976444444444,0.7635134055555555,4.009142644444444,-1.0364177377777777,-5.460049277777777
260,1715673288770,2.7085972000000003,0.0665770612,0.761898108,3.92780236,-1.1293065800000002,-5.6509923
261,1715673288780,2.6310560799999996,0.074333604,0.7440678000000001,3.7670225200000003,-1.1679743999999999,-6.03418786
262,1715673288790,2.5918403000000003,0.0342154092,0.745262998,3.53443576,-1.14512804,-6.430242419999999
263,1715673288800,2.5696011666666667,-0.089558068,0.7489868,3.2031906111111113,-1.0394551666666665,-6.851752888888889
264,1715673288810,2.55667365,-0.253642855,0.7279998,2.95784002,-0.9539883,-7.1268730399999995
265,1715673288820,2.5678937900000003,-0.49330321,0.6609897699999999,2.59975088,-0.88696106,-7.609457000000001
266,1715673288830,2.570272,-0.68973535,0.6041816,2.5763241333333333,-1.0157161666666665,-7.860563333333333
267,1715673288840,2.57625394,-0.764209189,0.5927113700000001,2.8126984,-1.47119265,-8.33018605
268,1715673288850,2.59023648,-0.793387756,0.62882936,2.91694262,-1.6522531,-8.5408887
269,1715673288860,2.63112318,-0.89971105,0.8418234649999998,2.90654273,-1.7308255899999998,-8.9900121
270,1715673288870,2.678876,-1.0017658,0.8974303999999999,2.558032222222222,-1.4660087,-9.256203111111112
271,1715673288880,2.71345105,-1.07853855,0.904077135,2.2931117999999997,-1.25448815,-9.333868
272,1715673288890,2.8036393,-1.23926738,0.8502813339999999,1.62227484,-0.7376808880000001,-9.4478866
273,1715673288900,2.87033825,-1.30402126,0.790887608,1.32188187,-0.50779701,-9.5522528
274,1715673288910,2.9463913,-1.3444687,0.7769356,1.1016954,-0.33582318,-9.781021
275,1715673288920,2.958424433333333,-1.3953253,0.8051486,1.1968886666666667,-0.3558799266666667,-9.913579
276,1715673288930,2.95456248,-1.46460984,0.8318412000000001,1.3033115800000001,-0.317772112,-10.047786400000001
277,1715673288940,2.9070904,-1.5674025,0.8557999350000001,1.41656592,-0.11172725319999999,-10.2008847
278,1715673288950,2.7814901888888888,-1.6476029333333333,0.7810076555555555,1.3942659666666666,0.14898323977777778,-10.207150777777777
279,1715673288960,2.68977878,-1.7021846799999998,0.685039972,1.34720222,0.29578095800000004,-10.116295000000001
280,1715673288970,2.4282025099999998,-1.78028063,0.45106291600000004,1.33901666,0.20286835399999997,-9.8100378
281,1715673288980,2.31473254,-1.7650298,0.374851148,1.3590530600000001,0.03555235999999999,-9.5719834
282,1715673288990,2.1290266666666664,-1.7028093666666666,0.27099820222222226,1.4053464777777778,-0.2828306088888889,-9.20931961111111
283,1715673289000,1.93611905,-1.58661685,0.188090245,1.4453072,-0.700662435,-8.830973499999999
284,1715673289010,1.6817241333333335,-1.4148589666666667,0.14586216999999999,1.3820317,-1.2445870666666667,-8.333321666666667
285,1715673289020,1.46664654,-1.31477184,0.19427963,1.10701,-1.5261552,-7.8968076
286,1715673289030,1.1547625,-1.2429384,0.2646496,0.65179324,-1.4019357,-7.486458999999999
287,1715673289040,0.877998411111111,-1.1629336888888888,0.2768996266666666,0.2831021022222222,-1.0650096555555555,-7.347181666666667
288,1715673289050,0.47816206,-1.11502846,0.283455552,-0.32876768199999995,-0.47225992399999994,-7.3922023999999995
289,1715673289060,0.050874922,-1.2459018800000001,0.15379555,-0.886166949,0.132878457,-7.261141100000001
290,1715673289070,-0.44130009699999995,-1.4689820199999999,-0.037282664,-1.1359955400000001,0.517219632,-6.7908056000000006
291,1715673289080,-0.83551212,-1.63979082,-0.306505684,-0.9830959719999999,0.46053132,-5.72356312
292,1715673289090,-1.0014405333333334,-1.7162586,-0.3805303233333333,-0.7834855844444445,0.2772310088888889,-5.246518022222222
293,1715673289100,-1.1936551,-1.76996906,-0.365838428,-0.09673051400000002,-0.188513008,-4.1405973000000005
294,1715673289110,-1.3369195699999998,-1.79076909,-0.297803975,0.459630282,-0.441655572,-3.20426309
295,1715673289120,-1.4445965,-1.8095568000000002,-0.125861,0.9636399,-0.41462478,-1.9486601
296,1715673289130,-1.4389985600000001,-1.82763096,-0.1207753376,0.966572064,-0.1481653638,-1.52074904
297,1715673289140,-1.38428196,-1.93242972,-0.1508075786,0.751226844,0.5318345847,-0.7133226300000001
298,1715673289150,-1.5100272,-1.9348689999999997,-0.29270002,0.23182335000000004,1.2385293,-0.44837508000000004
299,1715673289160,-1.6034472000000002,-1.9662123,-0.39727926,-0.163467531,1.62447396,-0.4434270779999999
300,1715673289170,-1.6904645,-2.1146355,-0.6147919,-0.45188757999999996,1.9025398,-0.5737552
301,1715673289180,-1.7931655599999998,-2.26945555,-0.715614909,-0.269116684,1.8763947600000002,-0.7177971999999999
302,1715673289190,-1.8945278555555558,-2.447900333333333,-0.8183946633333333,0.21533,1.6821702,-0.79733187
303,1715673289200,-1.9951162199999999,-2.7064627999999997,-0.92770046,0.82692832,1.36134372,-0.6802900940000001
304,1715673289210,-2.10139702,-3.03684801,-1.0287368650000002,1.67254899,0.73781835,-0.29999591800000003
305,1715673289220,-2.10126278,-3.19230212,-0.9247002950000001,2.18787488,0.1758070264,0.24993551000000003
306,1715673289230,-1.91315423,-3.35443978,-0.592699207,2.48463322,-0.1603521234,1.204290286
307,1715673289240,-1.4583168,-3.3794653,0.032623854,2.3596196,0.22953261,2.6882653
308,1715673289250,-1.0052416,-3.2392742999999995,0.35800868,1.7547104,1.3775011,3.9939897
309,1715673289260,-0.66689866,-3.09586965,0.421177007,1.16411069,2.41177237,4.8814698
310,1715673289270,-0.18944194222222221,-2.9384641555555557,0.3423912566666667,0.120289556,3.926523044444444,6.186334255555555
311,1715673289280,0.170534344,-2.85927648,0.208768282,-0.4249484048,4.522540960000001,6.84501992
312,1715673289290,0.708468176,-2.7649540000000004,0.033562934,-1.24191956,5.093761120000001,7.84751088
313,1715673289300,1.0846499555555555,-2.7078206666666667,-0.07041738888888889,-1.8497678333333332,5.182682722222222,8.569625222222221
314,1715673289310,1.6256313599999999,-2.62706796,-0.11100647700000002,-2.58298262,4.9905247,9.4527126
315,1715673289320,2.3052564,-2.4952066,-0.03000175,-3.5678805600000003,4.0238608,10.8778306
316,1715673289330,2.8326044,-2.4200194,0.21434177,-3.986676277777778,2.9815314,11.738217222222223
317,1715673289340,3.3918443,-2.2972074,0.5711309,-4.329049,2.0595322,12.270451
318,1715673289350,3.7297664599999996,-2.11285508,0.92876154,-4.704487,1.68837044,12.2521238
319,1715673289360,4.0472484,-1.7858358999999997,1.3853858,-5.342695388888889,1.6050824,11.734415777777777
320,1715673289370,4.134015870000001,-1.6708047400000001,1.49630081,-5.78912393,1.7237853599999997,11.0025686
321,1715673289380,4.07615247,-1.56280467,1.51740555,-5.985792009999999,1.6809025600000003,10.16240025
322,1715673289390,3.9562335555555554,-1.5395953333333334,1.5053181777777778,-5.853480433333334,1.3916528333333333,9.560855666666667
323,1715673289400,3.68677005,-1.6065266999999999,1.49270905,-5.38729685,0.7931321849999999,8.893816
324,1715673289410,3.4713204444444443,-1.7723391666666666,1.5164028333333333,-4.705885222222222,0.12022167,8.572390333333333
325,1715673289420,3.3234255,-1.9412413499999999,1.63079645,-3.971174,-0.6703329659999999,8.692001600000001
326,1715673289430,3.3278162,-2.0617666,1.876573,-4.0291142,-0.9060659,9.205281
327,1715673289440,3.40416204,-2.00400716,2.1435642,-4.414326040000001,-0.8057618200000001,9.6735706
328,1715673289450,3.5657568,-1.8181547999999998,2.6033225,-5.04199017,-0.1649336154,10.118861299999999
329,1715673289460,3.761195,-1.5453341,2.8968763,-5.743202,1.1687379,9.969779
330,1715673289470,3.6307265555555555,-1.1263394333333332,2.964739411111111,-6.371850266666666,2.691013988888889,9.152170111111111
331,1715673289480,3.43655416,-1.0105467799999999,2.79272398,-6.660171919999999,3.40881124,8.6512876
332,1715673289490,3.1682825,-1.1381518400000001,2.4158970799999997,-6.84553918,4.20708992,7.89143222
333,1715673289500,2.73901955,-1.3825075100000002,1.6470229799999998,-6.451332669999999,4.09180426,7.46639207
334,1715673289510,2.487685766666667,-1.4602071555555556,0.9828080533333333,-5.585598988888888,2.8540471666666662,7.53169688888889
335,1715673289520,2.49577375,-1.2429017900000001,0.36927154500000003,-3.00454062,-0.82987573,7.78188854
336,1715673289530,2.7127192,-0.9006623,0.44923353,-1.7661642,-2.410627,7.7976947
337,1715673289540,3.0433726400000003,-0.47380814000000004,0.7009067539999999,-0.8286081599999999,-3.4840394000000003,7.73330934
338,1715673289550,3.57447074,0.313396335,1.1492377,-0.20738874,-3.7647624,7.5660243
339,1715673289560,3.8998616,0.924993,1.2943438,-0.57848936,-2.6563475,7.3030467
340,1715673289570,4.215002,1.6111915,1.2093998,-1.4213307,-1.0601566,6.7700667
341,1715673289580,4.406449377777778,2.174910166666667,0.9690606,-2.312922522222222,0.22361060000000002,5.907932477777778
342,1715673289590,4.462394577777778,2.3960613333333334,0.8357601444444445,-2.7469083,0.7315620333333334,5.2822539
343,1715673289600,4.5055494,2.66566784,0.58078997,-3.1626631,1.02967446,3.96833336
344,1715673289610,4.545488777777778,2.6462452666666665,0.42202324444444445,-2.991305188888889,0.7258775977777778,3.1607185111111114
345,1715673289620,4.69767668,2.3542713999999996,0.369911824,-2.0345478399999997,-0.465112796,1.89126928
346,1715673289630,4.8836752500000005,2.10465935,0.518822955,-1.41137366,-1.11388222,1.35315812
347,1715673289640,5.154264,1.8157156999999997,0.7700449,-0.66798115,-1.7235562999999998,0.5670357
348,1715673289650,5.4058642,1.510515,0.9457869000000001,-0.3411003766666667,-1.7319726555555557,0.039519590666666674
349,1715673289660,5.576301,1.3259311,1.0026805,-0.10247264999999998,-1.4631749,-0.54443365
350,1715673289670,5.664220469999999,1.2959658699999999,0.910040953,-0.051648658,-1.16947098,-1.02677289
351,1715673289680,5.606072588888889,1.2700334666666666,0.8106909855555555,0.030848695,-0.9457721,-1.9839376
352,1715673289690,5.488747,1.16690954,0.793509724,0.0364686542,-0.8527984200000001,-2.73432456
353,1715673289700,5.461538,1.1418349,0.79199743,0.037873644,-0.829555,-2.9219213
354,1715673289710,5.058533511111111,0.7601866511111112,0.8231374433333333,-0.12244454622222221,-0.5381044222222222,-3.8293954777777777
355,1715673289720,4.4619064,0.36788732,0.8488909999999998,-0.3474296,-0.0759,-4.649906
356,1715673289730,4.1352415,0.23666015,0.8465128,-0.38110355,0.058795782000000005,-4.9088522
357,1715673289740,3.8358335000000006,0.13238578,0.8325486,-0.3315471,0.016493361,-5.2369475
358,1715673289750,3.5993564,0.05921077,0.8738315,-0.21639901,-0.13881913,-5.4589972
359,1715673289760,3.342756,0.05847902000000001,1.0254257,0.0062613689,-0.35556937899999996,-5.71395712
360,1715673289770,3.170368,0.10811607,1.109577,0.17027868,-0.41599923,-5.944788
361,1715673289780,3.082948,0.14636219,1.16616564,0.211512084,-0.370184328,-6.1411506
362,1715673289790,3.033067,0.157899454,1.22015658,0.24129177200000002,-0.236374298,-6.454219
363,1715673289800,2.96927086,0.0687723034,1.2871665399999999,0.250790717,0.09196576100000001,-6.9376885
364,1715673289810,2.9227011,-0.020092636999999997,1.31635725,0.30757065,0.28840475,-7.127576
365,1715673289820,2.8537166000000003,-0.2501907611111111,1.2987207333333335,0.5806613366666666,0.7632082333333333,-7.419230000000001
366,1715673289830,2.83590313,-0.368856869,1.23857829,0.859884435,0.9599289299999999,-7.4545105000000005
367,1715673289840,2.8551848900000003,-0.44556256000000005,1.135633336,1.2416294300000001,1.1097130700000002,-7.4736154
368,1715673289850,2.922,-0.4855771,0.97591066,1.7105755000000002,1.165989,-7.564955
369,1715673289860,3.0644472,-0.5192986,0.8045591,1.8965839,0.93309665,-7.8157153
370,1715673289870,3.22918832,-0.53603124,0.778362484,1.9726366,0.6252206,-8.158411
371,1715673289880,3.3575943,-0.626676121111111,0.8984467288888889,2.029379177777778,0.4034086177777778,-8.604885666666668
372,1715673289890,3.4454451400000004,-0.7857775739999999,0.99014314,2.1107532,0.395718504,-9.001435
373,1715673289900,3.5182175799999995,-0.9923627400000001,1.0010584200000001,2.24550998,0.465723648,-9.258396
374,1715673289910,3.5658908699999996,-1.28090402,0.9566533549999999,2.4306328,0.545579028,-9.3875023
375,1715673289920,3.5436822666666665,-1.4271767666666666,0.9249997277777777,2.5708264666666665,0.6215723666666667,-9.444655222222222
376,1715673289930,3.4702023999999994,-1.6111305999999999,0.8099863,2.731484,0.9245446000000002,-9.48689
377,1715673289940,3.4239191999999994,-1.6935744,0.5919248,2.6844473,1.0743593,-9.517738
378,1715673289950,3.3810981333333334,-1.7511929777777777,0.45560247111111113,2.501866588888889,1.0326847222222222,-9.60869
379,1715673289960,3.2553362100000003,-1.80301379,0.331104682,2.2064911499999997,0.96974859,-9.7683619
380,1715673289970,3.12487748,-1.8850978,0.242867832,1.86736917,0.8323497599999999,-9.961868200000001
381,1715673289980,2.9602945,-1.9970678,0.24190436000000004,1.5575536,0.7246389,-10.1389885
382,1715673289990,2.84867229,-2.07402958,0.22999512700000002,1.36513108,0.74291907,-10.20482485
383,1715673290000,2.668468733333333,-2.1827899333333334,0.16277372333333334,1.281391611111111,0.7651426566666667,-10.130063444444444
384,1715673290010,2.3995547,-2.24317968,0.0461368374,1.22958008,0.681206392,-9.9379224
385,1715673290020,2.02455103,-2.1984636,-0.054881251799999996,1.15539049,0.348697155,-9.5381113
386,1715673290030,1.7040628333333334,-2.053493688888889,-0.07026154888888889,1.0895969444444444,0.017206036666666667,-9.186497000000001
387,1715673290040,1.43065058,-1.93462502,-0.064711091,1.01504424,-0.12104295299999998,-8.9455414
388,1715673290050,0.9822523999999999,-1.7538217,-0.05110053999999999,0.740887912,-0.251768114,-8.5041294
389,1715673290060,0.64379975,-1.6537732899999997,-0.0031892101,0.216964061,-0.144927776,-8.1119548
390,1715673290070,0.306487402,-1.74896174,-0.017568097900000003,-0.343733872,0.14326317,-7.6327614
391,1715673290080,0.10285153266666668,-1.8776095333333334,-0.06085721000000001,-0.66497773,0.29749136666666665,-7.144222000000001
392,1715673290090,-0.2726927421,-2.09029876,-0.0022684251,-1.2559389,0.64965516,-5.875302
393,1715673290100,-0.49204703099999997,-2.1604979,0.046905173300000005,-1.43392979,0.9368992780000001,-5.25933588
394,1715673290110,-0.7318110449999999,-2.2531192,0.09302371499999999,-1.4910457000000001,1.3535246500000002,-4.42564225
395,1715673290120,-1.1803941133333333,-2.3882491333333333,0.052198164666666665,-1.0835731333333334,2.0533726000000003,-2.821230233333333
396,1715673290130,-1.4764276,-2.573443,-0.16787565,-0.16065755,2.4329236,-1.1646146
397,1715673290140,-1.6785735,-2.8260186,-0.31251824,0.322002355,2.36589636,-0.3390149426
398,1715673290150,-1.91373972,-2.90795622,-0.34511769800000003,0.53669092,2.50334091,0.5518098382
399,1715673290160,-2.0923579,-2.9050272666666666,-0.46496618,0.3285097444444445,2.878261177777778,0.9176893111111111
400,1715673290170,-2.33094087,-2.95487982,-0.887545671,0.23208297500000002,3.11658866,1.21753083
401,1715673290180,-2.50588387,-3.1155232699999997,-1.268744823,0.515142644,2.860239,1.4965281999999998
402,1715673290190,-2.5501487,-3.232079,-1.5083808,0.88193667,2.470339,1.7817412999999998
403,1715673290200,-2.516711877777778,-3.1899151999999997,-1.5394462555555557,1.2759278822222222,2.1303924777777774,1.9956627777777776
404,1715673290210,-2.43963027,-3.1943023,-1.59284294,1.83064095,1.8440494399999998,2.26417199
405,1715673290220,-2.3157815399999997,-3.25415329,-1.79068373,2.23998174,1.466672204,2.7417158699999997
406,1715673290230,-2.098537,-3.1354878,-1.8552301,2.5240953,0.62964934,3.7082574
407,1715673290240,-1.8069957000000003,-3.0519462,-1.4681954,2.4329236,0.34193182,4.5034513
408,1715673290250,-1.32947397,-3.1194502500000003,-1.13418812,2.2010542600000003,0.543700642,5.22091267
409,1715673290260,-0.6222314,-3.0656056,-0.7666911,1.5894713,1.0410671,6.433021999999999
410,1715673290270,0.018564768888888892,-2.925326488888889,-0.4288936066666667,0.9226779666666667,1.6808466555555555,7.3941167555555545
411,1715673290280,0.8909056,-2.8031514,-0.1890964,0.021838432,2.6314547,8.49011
412,1715673290290,1.358792,-2.6433048222222224,-0.028111395555555554,-0.64568454,3.2183435,9.187108
413,1715673290300,1.6423213999999997,-2.5113052500000004,0.0471368975,-0.99250332,3.60028695,9.480552
414,1715673290310,2.18659098,-2.2932924800000003,0.130580784,-1.9035324599999999,4.38398131,10.1560928
415,1715673290320,2.75781938,-2.1910912799999998,0.27447942799999997,-2.2405010499999998,4.463897650000001,10.4088385
416,1715673290330,3.3800889,-2.0560210666666667,0.56477552,-2.8076893333333333,4.409988666666667,10.815623666666667
417,1715673290340,3.5864894,-1.8624867999999999,0.73394525,-3.2420146,4.147317,10.897836
418,1715673290350,3.66601863,-1.71150842,0.8536168749999999,-3.4561840600000004,3.5886043200000004,10.3450332
419,1715673290360,3.8293087,-1.4942335,1.1315295,-3.4471125999999996,3.1838295,9.891741
420,1715673290370,3.845244633333333,-1.4016264999999999,1.3048729000000001,-3.4247142,2.848159166666667,9.416488333333334
421,1715673290380,3.7247293,-1.2273887,1.6341197,-3.4151643399999996,2.41052002,8.525861599999999
422,1715673290390,3.4961185,-1.2068387,1.7894336,-3.3895556,2.279138244444445,7.995564133333334
423,1715673290400,3.3784533000000003,-1.24045038,1.85236416,-3.39952624,2.2768475199999996,7.774634879999999
424,1715673290410,3.0989736399999996,-1.3088568999999999,1.91595328,-3.4184630599999997,2.36630874,7.71391476
425,1715673290420,2.83981815,-1.28598958,1.84285147,-3.38265101,2.44698877,7.76504417
426,1715673290430,2.6542036199999997,-1.2754890399999999,1.6796834600000001,-3.37064754,2.3140339400000003,7.804734999999999
427,1715673290440,2.4910397111111116,-1.2924128333333333,1.6084339666666667,-3.445738,1.8715383999999997,7.841066399999999
428,1715673290450,2.38131568,-1.21202805,1.66656075,-3.5310913,1.6256499400000002,7.696199609999999
429,1715673290460,2.29065804,-1.14128616,1.71499032,-3.5898107599999998,1.5012013200000003,7.347670259999999
430,1715673290470,2.20750692,-1.17186105,1.7215455599999998,-3.6445900700000005,1.44736889,6.94417847
431,1715673290480,2.1323805,-1.3586159,1.6397299,-3.7315722,1.4252165222222222,6.623374433333333
432,1715673290490,2.09725037,-1.48210479,1.52315596,-3.7887847800000003,1.2996005700000002,6.544963009999999
433,1715673290500,2.09426852,-1.57216488,1.4246806600000002,-3.7620747000000003,1.0441825200000001,6.637509199999999
434,1715673290510,2.2048726199999997,-1.56600596,1.3989230799999999,-3.6593883000000007,0.73453492,6.87043216
435,1715673290520,2.4110248,-1.4347788,1.45819485,-3.51936263,0.31925344899999997,7.31986077
436,1715673290530,2.7803452,-0.9691418999999999,1.6599139,-3.7134497,0.3914119,7.3736014
437,1715673290540,2.7986816400000003,-0.93230439,1.67227438,-3.7134496999999995,0.3914119,7.3736014
438,1715673290550,3.0266279799999998,-0.308969259,1.7713106299999999,-4.09860037,0.88882419,7.0602278499999995
439,1715673290560,3.0971726444444445,0.27947428777777783,1.526173,-4.3521094,1.8293887,6.3766694
440,1715673290570,3.13966491,0.665916908,1.2278155099999999,-4.15877056,1.82256229,6.251732179999999
441,1715673290580,3.2313714599999996,0.921139116,1.0694648199999999,-3.11083132,1.6878817600000002,5.72319624
442,1715673290590,3.6849103,1.3781292,0.6667462,-2.1397083,1.42973,5.224425
443,1715673290600,3.8726447666666663,1.5742381333333333,0.5147861333333332,-1.8585066333333333,1.2295698666666666,4.776457
444,1715673290610,4.1679873999999995,1.9549981000000003,0.312286525,-1.7471967400000001,0.8877857499999999,4.0811448
445,1715673290620,4.3828048,2.13764908,0.295553838,-1.8935294800000002,0.6757697,3.5686442
446,1715673290630,4.913416777777778,2.141859366666667,0.5087627577777778,-2.272164122222222,0.5774713066666667,2.5776816444444446
447,1715673290640,5.359642,2.0361555,0.61399925,-2.1701599600000003,0.830471274,2.1929146000000004
448,1715673290650,5.7593603,2.0443265,0.5302139,-1.6404786000000002,1.0813842,1.7698293
449,1715673290660,6.1369433,2.1173186,0.27117437,-0.8704829999999999,0.86422163,1.1534663
450,1715673290670,6.292507955555555,2.0644362444444444,0.14093641444444444,-0.2725477133333334,0.38150232222222225,0.20928922
451,1715673290680,6.294697,1.8309605000000002,0.11951916999999998,0.394603671,-0.378767003,-1.510379656
452,1715673290690,6.047182,1.3099544,0.31221333,0.75151694,-0.8743009,-3.0980031
453,1715673290700,5.714859333333333,0.7630932888888888,0.4762879344444444,0.8379883355555555,-0.9763832555555556,-3.774027277777778
454,1715673290710,5.4263408,0.40729206700000004,0.583534078,0.802615852,-0.86684831,-4.2078232600000005
455,1715673290720,5.084077,0.16900377,0.64220212,0.67546425,-0.5949827400000001,-4.40693475
456,1715673290730,4.75317992,0.056893559999999996,0.644025372,0.504101275,-0.241413947,-4.562674759999999
457,1715673290740,4.173685466666667,0.09768185088888888,0.5162970666666666,0.26984972,0.2527455,-4.8134656
458,1715673290750,3.8175395199999995,0.1609667094,0.509419934,0.517662497,0.11021536200000001,-5.03763796
459,1715673290760,3.5107536,0.24227023,0.5735091,1.0424415,-0.20295998,-5.3565245
460,1715673290770,3.3227751111111115,0.32330476333333336,0.6576874377777777,1.399492288888889,-0.3947886333333333,-5.641238766666667
461,1715673290780,3.16673975,0.39731587300000004,0.713596523,1.8347337,-0.5731443,-6.1468315
462,1715673290790,3.0846434599999997,0.383778482,0.715956428,1.9430401500000003,-0.5930737739999999,-6.50569948
463,1715673290800,2.969746333333333,0.2703206533333333,0.7199471622222222,1.9378342,-0.5678671288888889,-6.960419033333333
464,1715673290810,2.91577982,0.15643595999999999,0.70633389,1.8480812,-0.5178915399999999,-7.255398940000001
465,1715673290820,2.8651428599999997,-0.011348222,0.71546246,1.7370259000000001,-0.47904051799999997,-7.49357558
466,1715673290830,2.8538725555555557,-0.18017988333333335,0.7666436555555556,1.5765414222222223,-0.3780916466666666,-7.730958022222222
467,1715673290840,2.8856684599999998,-0.42795180200000005,0.86187956,1.42076573,-0.176723313,-7.88825571
468,1715673290850,2.93059783,-0.576362892,0.887185931,1.34620955,0.098837997,-8.06630774
469,1715673290860,3.0449946,-0.82852393,0.88956416,1.3422236,0.38896844,-8.350528
470,1715673290870,3.0972538,-0.9928627999999999,0.8765145499999999,1.3662001,0.5271767,-8.661153
471,1715673290880,3.11706586,-1.09263689,0.930572555,1.42612597,0.56071322,-8.9042925
472,1715673290890,3.1425208,-1.2429180111111109,0.9654695777777778,1.537853288888889,0.6188743444444444,-9.058503555555555
473,1715673290900,3.15960505,-1.3544693,0.97203845,1.59533572,0.62920646,-9.0807255
474,1715673290910,3.19313758,-1.5315284200000001,0.9661052,1.73501005,0.6195701,-9.082421
475,1715673290920,3.2222184599999997,-1.6698656799999998,0.979770622,1.81915675,0.55649825,-8.9972055
476,1715673290930,3.2572427,-1.7072133666666667,1.02467362,1.9290107,0.49429178666666673,-8.877501
477,1715673290940,3.331414,-1.7018676,1.0953687,2.05108692,0.518777308,-8.902658299999999
478,1715673290950,3.37647142,-1.6621884900000001,1.09635663,2.1563544,0.8402451,-9.27324
479,1715673290960,3.3571044299999997,-1.72150903,0.981045052,2.15934767,1.0317056,-9.5719223
480,1715673290970,3.27416055,-1.8595169200000001,0.776978263,2.12129066,1.1913400199999997,-9.8971162
481,1715673290980,3.1339564,-1.9702504444444442,0.5720388033333333,2.0373373666666668,1.1771203777777777,-10.097381222222221
482,1715673290990,2.9623068399999997,-2.0436802199999997,0.36289923999999996,1.96008334,0.986577936,-10.1893846
483,1715673291000,2.83217739,-2.05652847,0.22965975200000002,1.90840416,0.785939218,-10.1986698
484,1715673291010,2.59320621,-2.06942571,0.0747299693,1.75354982,0.235778716,-10.1421498
485,1715673291020,2.325298233333333,-2.0422735333333333,0.09933506566666667,1.5359188666666668,-0.14105897,-10.032952333333334
486,1715673291030,1.9953603000000002,-1.95865084,0.217890774,1.16128535,-0.31760410499999997,-9.8661454
487,1715673291040,1.7092460800000002,-1.9182400099999999,0.27538803,0.7461260820000001,-0.0663705052,-9.6635676
488,1715673291050,1.2691594666666668,-1.8928543000000002,0.27654054,0.1385137,0.7060075,-9.311725
489,1715673291060,0.700949426,-1.90580009,0.1258000275,-0.23448061999999997,1.21143742,-9.059192200000002
490,1715673291070,0.12572684424,-2.0138614,-0.225183875,-0.7588626300000001,1.70564266,-8.3970907
491,1715673291080,-0.1693527048333333,-2.104695911111111,-0.3816889277777778,-1.0261009,1.7813679222222223,-7.624887688888888
492,1715673291090,-0.5227622160000001,-2.22404442,-0.53093338,-1.08355278,1.56992376,-6.65852292
493,1715673291100,-0.62308514,-2.2499485,-0.5697893,-1.0531317,1.4972308,-6.443865
494,1715673291110,-1.293530771111111,-2.098584477777778,-0.706843411111111,0.06553226888888887,0.6849496533333334,-4.482681933333334
495,1715673291120,-1.6099476,-2.0544857,-0.80031502,0.738047374,0.264962796,-3.28633288
496,1715673291130,-1.7551633800000002,-2.07068194,-0.84580544,0.747928131,0.142652306,-2.63501315
497,1715673291140,-1.82589303,-2.1529000799999998,-0.74176887,0.376827502,0.211115026,-1.82631914
498,1715673291150,-1.8599866999999999,-2.2754376,-0.45539245,-0.12965615,0.57360244,-0.86132
499,1715673291160,-1.8903542999999998,-2.2520216,-0.3568501,-0.2585487,1.024421,-0.28405234
500,1715673291170,-1.86779805,-2.34976511,-0.40750551999999995,0.0221133237,1.5003919399999999,0.37252091600000004
501,1715673291180,-1.8557788999999998,-2.6321049,-0.5652159,0.6052147,1.7397442,0.87109387
502,1715673291190,-1.8839513,-2.8201034,-0.73303056,1.1026118,1.7478380999999998,1.104139
503,1715673291200,-1.89312258,-2.9743075599999997,-0.8917227520000001,1.6060868400000001,1.58156066,1.38306004
504,1715673291210,-1.9000227333333335,-3.0393371777777776,-0.9444859777777778,1.8725904444444446,1.4615290333333335,1.5782212777777778
505,1715673291220,-1.91178226,-3.06155672,-0.9718493799999999,2.18445416,1.33353406,1.90209692
506,1715673291230,-1.89538495,-3.06816685,-1.07088565,2.60022425,1.28739845,2.5501333500000003
507,1715673291240,-1.6481205500000002,-3.15783066,-1.175202674,2.6958247,1.20823033,3.38225396
508,1715673291250,-1.2460483,-3.138232,-0.9405426399999999,2.505820155555556,1.1285226666666666,4.425718822222223
509,1715673291260,-0.80590069,-3.04767787,-0.6035169039999999,2.0249572799999997,1.54359538,5.5910818
510,1715673291270,-0.304822664,-2.96829526,-0.35215468000000005,1.45572248,2.26756228,6.4816771200000005
511,1715673291280,0.25473437600000004,-2.8542762,-0.20486560599999998,0.61346143,3.3733506000000006,7.5681624
512,1715673291290,0.6365412133333334,-2.7563600666666668,-0.1817382466666667,0.2570215566666667,3.7918950666666666,7.988640800000001
513,1715673291300,1.00759536,-2.6552402600000002,-0.21970794,-0.310808236,4.293283059999999,8.6698576
514,1715673291310,1.35928665,-2.58569955,-0.29556602,-0.72906765,4.3747878,9.112124
515,1715673291320,1.9361088999999998,-2.4853076,-0.3445729633333333,-1.6183347333333333,4.1332162,9.792474666666667
516,1715673291330,2.30175628,-2.3985912,-0.23342826,-2.5656645399999998,3.68776298,10.1949744
517,1715673291340,2.6855531000000004,-2.31931215,0.036221635,-3.9878197999999996,2.92274581,10.582660200000001
518,1715673291350,3.3158643,-2.2589731,0.6255243,-4.956611566666666,2.294359,10.855686
519,1715673291360,3.60552759,-2.18009045,1.02194382,-5.753633,1.59652692,11.070878500000001
520,1715673291370,3.8814460999999993,-1.9489551999999999,1.8462664,-6.29954781,1.02028237,10.800982600000001
521,1715673291380,3.8851655000000003,-1.7654688,2.300683,-6.2349486,1.158964,10.131352
522,1715673291390,3.5913681999999993,-1.6410104,2.716134,-6.03785301,1.6007112700000001,9.2100616
523,1715673291400,3.4886859777777777,-1.7498920666666669,2.789851055555556,-5.852105944444444,2.008983011111111,8.507282666666667
524,1715673291410,3.2866369200000003,-2.11590386,2.78872375,-5.7013123,2.37736532,8.1785545
525,1715673291420,3.1383659600000002,-2.38866384,2.5305134000000002,-5.48627248,2.3488684799999997,8.150836000000002
526,1715673291430,3.0785061111111114,-2.4457253999999997,2.382449222222222,-4.9892418,1.6532559,8.345080666666668
527,1715673291440,3.05243414,-2.4053598999999997,2.2753889000000003,-4.08623032,0.5504201440000001,8.550555200000002
528,1715673291450,3.188498922222222,-2.212351388888889,2.5439222333333333,-2.742225088888889,-0.597460148888889,8.664580444444445
529,1715673291460,3.25742184,-2.05458342,2.66730194,-2.01139598,-0.667950608,8.6296934
530,1715673291470,3.2949788,-1.78396386,2.50624989,-1.33753527,0.103831819,8.4368434
531,1715673291480,3.3109860000000007,-1.6065571000000003,2.0920124,-1.225243,0.81214535,8.352361
532,1715673291490,3.34060355,-1.34654197,1.6007031399999998,-1.3489432,1.2302825,8.3377
533,1715673291500,3.4068449,-1.1341516,1.3153207,-1.5002681111111111,1.3310074444444444,8.311093777777778
534,1715673291510,3.4215287400000003,-0.77998456,1.0621351799999998,-1.74582236,1.3844650399999998,8.2125944
535,1715673291520,3.431013233333333,-0.40211696,0.8284629666666667,-1.8926132666666666,1.3721052,8.066781333333333
536,1715673291530,3.4339199999999996,-0.25745404,0.74327505,-1.9407188999999998,1.3628404,8.005237
537,1715673291540,3.4192666899999997,0.40923729,0.433811885,-2.45436499,1.014524986,7.0464222
538,1715673291550,3.4182143444444444,0.9311857777777779,0.35101640666666667,-2.773837288888889,0.9199630155555556,6.453400666666667
539,1715673291560,3.48273375,1.12635839,0.37246684,-3.03745105,0.95951655,6.0668845
540,1715673291570,3.6636286,1.2837335,0.25660032,-3.6019669,1.1672108,5.3782105
541,1715673291580,3.8068346444444447,1.4858590999999999,0.09469386666666667,-3.8289372999999998,1.1973467999999998,5.014134500000001
542,1715673291590,4.007917000000001,1.6193748799999998,-0.032428723199999995,-3.9631409700000004,1.06994577,4.68512255
543,1715673291600,4.31702,1.7947998000000003,-0.046588086,-4.0175690699999995,0.719049507,4.17918875
544,1715673291610,4.626935,1.85182155,0.0282150594,-3.944204,0.48747048,3.8606684000000002
545,1715673291620,5.00972528,1.9634621500000002,0.174485796,-3.6940548499999997,0.331470762,3.4084754599999996
546,1715673291630,5.4708274,2.1106990222222226,0.30698945,-3.4060997444444445,0.2790466422222222,3.0382062444444444
547,1715673291640,5.9785318,2.3507833600000003,0.40818236199999997,-2.43130488,-0.010751232000000005,2.00702838
548,1715673291650,6.2558831999999995,2.42162292,0.471131164,-1.25868781,-0.531712396,0.9041722400000001
549,1715673291660,6.2986603,2.2954388,0.53911686,-0.25717425,-0.9421069000000001,-0.19761491
550,1715673291670,6.17836063,1.96225475,0.594656616,0.705625725,-1.34990527,-1.5749479910000002
551,1715673291680,5.96127448,1.5593105399999998,0.70254102,1.27757887,-1.58846348,-2.4704611499999998
552,1715673291690,5.65103081,1.052573554,0.8678493809999999,1.6503135700000002,-1.5692518000000002,-3.21984023
553,1715673291700,5.3836675,0.75595874,0.9159680600000001,1.7005979555555557,-1.2472341111111112,-3.7063400888888887
554,1715673291710,5.1250671,0.651220948,0.832304652,1.58968516,-0.750295208,-4.20143968
555,1715673291720,4.91704292,0.5840585,0.7452873839999999,1.50767651,-0.506666888,-4.49491437
556,1715673291730,4.610905755555556,0.4974070711111111,0.6941394311111111,1.4683673666666666,-0.37878735333333335,-4.942510733333333
557,1715673291740,4.4465780125,0.4521605375,0.7088523375,1.4993497125000002,-0.35416822,-5.289195875
558,1715673291750,4.16732865,0.364807889,0.82758491,1.6386613100000003,-0.322384139,-5.92157487
559,1715673291760,4.0216374,0.29318783,0.9010892,1.6818647,-0.19364429,-6.4282875
560,1715673291770,3.93377828,0.20274353399999998,0.9017721200000001,1.6524210199999998,-0.05558873799999999,-6.851495099999999
561,1715673291780,3.8282843200000003,0.0328311835,0.863086925,1.65152003,0.052045718399999996,-7.42763277
562,1715673291790,3.6472859999999994,-0.19970676,0.834378,1.8205650888888887,0.005328102355555555,-7.879533811111112
563,1715673291800,3.5776418399999996,-0.368850816,0.83382909,2.06275445,-0.10254900131,-8.170292100000001
564,1715673291810,3.52204712,-0.52384764,0.82357242,2.23271251,-0.20880901000000002,-8.346176
565,1715673291820,3.47333062,-0.729536468,0.837969625,2.3708139299999997,-0.371299166,-8.5739671
566,1715673291830,3.460886088888889,-0.8710128799999999,0.8758302544444444,2.3239520777777773,-0.44201190333333334,-8.706916999999999
567,1715673291840,3.4561468,-1.032285815,0.97694723,2.057776,-0.38117989999999996,-8.8588445
568,1715673291850,3.3769655,-1.2959293,1.0860391,1.517542,0.096516706,-9.0934925
569,1715673291860,3.3475327666666663,-1.3415417,1.0879903000000002,1.3382530666666668,0.306247102,-9.136966166666666
570,1715673291870,3.2406159199999998,-1.4486943,1.02023022,1.18236032,0.63803344,-9.2580747
571,1715673291880,3.190796,-1.5406387,0.9535922400000001,1.4656185,0.64721173,-9.478032
572,1715673291890,3.1685140699999996,-1.6302598,0.906504078,1.7902322600000002,0.47397034599999993,-9.7088176
573,1715673291900,3.1458203444444446,-1.7728540555555554,0.8796989933333333,2.1780400111111113,0.19296554666666668,-9.939864222222221
574,1715673291910,3.11704766,-1.8647551199999999,0.8697824239999999,2.4648718799999996,-0.05201517600000001,-10.067945
575,1715673291920,3.02940846,-1.9798839000000001,0.8441711679999999,2.7271161800000003,-0.37143660900000003,-10.1524584
576,1715673291930,2.936905688888889,-2.0240679444444445,0.8177780677777777,2.8159020888888886,-0.5863457844444445,-10.161166444444444
577,1715673291940,2.796017,-2.0173738,0.77126455,2.8370109,-1.042747,-10.104933
578,1715673291950,2.7291348199999996,-2.00310472,0.7488729700000001,2.70103234,-1.18458988,-10.0861178
579,1715673291960,2.63614164,-2.0088488,0.687241325,2.3417061500000003,-1.23860563,-10.076741199999999
580,1715673291970,2.600510744444444,-2.0294815,0.62788215,1.9951029111111112,-1.2718893444444446,-10.019479777777779
581,1715673291980,2.4761078999999997,-2.05111974,0.511127366,1.4772248,-1.4115568,-9.8323345
582,1715673291990,2.3516006,-2.0303624,0.47844255,1.104139,-1.5604553,-9.574855
583,1715673292000,2.281027266666667,-1.9994662222222221,0.5345433944444444,0.7737286888888888,-1.6382387666666665,-9.238878111111111
584,1715673292010,2.16090644,-1.93091754,0.57799712,0.475543325,-1.6013679800000002,-8.9101725
585,1715673292020,2.0221301333333335,-1.8690115,0.5738952333333334,0.30823242333333334,-1.5504778333333333,-8.733031333333335
586,1715673292030,1.7479678799999998,-1.7876409,0.4784425280000001,0.243002194,-1.55834782,-8.613047
587,1715673292040,1.3661528600000001,-1.6690974400000003,0.36996061,0.4753295059999999,-1.7651104199999998,-8.5371165
588,1715673292050,0.755190428,-1.56072522,0.17499801399999998,0.8884424299999999,-2.13660806,-8.6002189
589,1715673292060,0.3260894866666667,-1.6070381666666664,0.13584803333333334,1.3573765555555555,-2.6633894333333337,-8.520551888888889
590,1715673292070,-0.156643284,-1.7429918999999998,0.210061028,1.7105755000000002,-2.948952,-7.965529999999999
591,1715673292080,-0.48330259,-1.9358262500000003,0.285242243,1.6849190999999997,-2.8261222999999998,-7.4824425
592,1715673292090,-0.930908,-2.3197694,0.39423034,1.1318416199999999,-2.1076988,-5.7687365999999995
593,1715673292100,-1.2025498,-2.4582736,0.3425606466666667,0.4280638,-1.4662292666666668,-4.499022533333333
594,1715673292110,-1.4560361400000001,-2.59831026,0.27155244,-0.656389979,-0.5454263100000001,-2.74509103
595,1715673292120,-1.5603837,-2.6264947199999997,0.27543070000000003,-1.344789332,0.034819316,-1.621725
596,1715673292130,-1.5682486777777778,-2.6396864888888887,0.27654052444444444,-1.958349077777778,0.7571504822222223,-0.42382168
597,1715673292140,-1.54377915,-2.6125304,0.207542595,-2.04129778,1.1328801,0.219025728
598,1715673292150,-1.56581098,-2.51404909,0.021769560200000003,-1.25639708,1.3200492799999999,1.054139672
599,1715673292160,-1.5714670222222222,-2.5631915333333333,0.016708291888888886,-0.21772255333333332,0.9887362999999999,1.2922855
600,1715673292170,-1.5824704,-2.639727,0.088419795,1.2508993,0.6038403,1.5754215
601,1715673292180,-1.5976541,-2.6446054,0.112201676,2.1453588,0.65011334,1.7498235000000002
602,1715673292190,-1.56554867,-2.72215264,0.06494891480000001,2.45941992,0.913182494,1.8336648
603,1715673292200,-1.49167844,-2.8083712299999997,0.0819803922,2.4370010800000004,1.25578619,2.00227897
604,1715673292210,-1.3273064777777777,-2.821878688888889,0.09944347577777778,2.1367726444444446,1.885808888888889,2.328211044444444
605,1715673292220,-1.2121622300000001,-2.82953084,0.07041264600000001,1.76362901,2.59423782,2.6080128599999997
606,1715673292230,-1.1716538,-2.82245115,-0.031739655,1.6052774499999998,2.9316187,2.7792077999999996
607,1715673292240,-1.0433671944444445,-2.8260929666666663,-0.26939241444444445,1.5325930111111112,3.2864720444444444,3.218326522222222
608,1715673292250,-0.7743317729999999,-2.81217621,-0.40901167000000005,1.76314036,3.2077296599999996,4.03157341
609,1715673292260,-0.41441444,-2.6939986,-0.30312744,2.0856466,3.103959,5.0034447
610,1715673292270,-0.015061853999999998,-2.5081341,-0.16519257,2.231338,3.4376442,6.04161
611,1715673292280,0.43075684000000003,-2.4117262,-0.08848077,2.1136854099999995,3.7893651,6.600735
612,1715673292290,0.6432082800000001,-2.3554627333333333,-0.09587957666666666,1.8445245888888888,4.179794488888889,7.102343722222222
613,1715673292300,1.1817335199999999,-2.22541635,-0.187718266,1.1777176999999999,4.729532799999999,7.8572237000000005
614,1715673292310,1.5633839,-2.1652484,-0.25367334,0.42852196,5.0353622,8.5492115
615,1715673292320,1.9833542111111113,-2.057220222222222,-0.32430077111111116,-0.4264518255555555,4.969795922222222,9.172328555555557
616,1715673292330,2.2720594600000004,-1.96800502,-0.28415071999999997,-1.16470624,4.79813272,9.640003
617,1715673292340,2.5439899,-1.9617303499999998,-0.189004925,-2.15220036,4.46114896,10.186971600000001
618,1715673292350,3.01856019,-1.99929351,0.06136943100000001,-3.37454171,3.97512921,10.997360800000001
619,1715673292360,3.8193693,-1.9454184,0.5458245,-4.2397103,3.5382843,11.801458
620,1715673292370,4.12926552,-1.72779594,0.7657885799999999,-4.50598628,3.3104926800000003,12.033281800000001
621,1715673292380,4.546363,-1.174032,1.1339077,-4.788267,2.9535334,11.799015
622,1715673292390,4.5879262,-0.9407987999999999,1.15995794,-4.7100766,2.73020116,11.020161400000001
623,1715673292400,4.55426572,-0.8479579599999999,1.15310995,-4.64734068,2.35280854,10.2241277
624,1715673292410,4.42328252,-0.9111140599999998,1.23041328,-4.63941477,1.41410719,9.0947447
625,1715673292420,4.116812055555556,-1.0031276222222223,1.411288288888889,-4.5642325,1.0032952333333334,8.639008666666667
626,1715673292430,3.8590787500000006,-1.03431034,1.44886497,-4.30797444,0.60402355,8.1912758
627,1715673292440,3.64730428,-1.1287548,1.4402303399999998,-3.80372045,0.270872922,7.94899118
628,1715673292450,3.3576775600000004,-1.26844599,1.37093364,-2.9726688300000004,-0.13521501900000002,7.88138354
629,1715673292460,3.2098823,-1.3183696,1.2506827,-1.7189748,-0.66920286,8.196589
630,1715673292470,3.25016513,-1.2955389400000001,1.1666595100000001,-0.9484599149999999,-1.0132269059999999,8.5599928
631,1715673292480,3.4384933,-1.0472562,1.0945151,-0.38973203,-1.1797335,8.617782
632,1715673292490,3.39963733,-0.7529829749999999,1.04605496,-0.46010371,-0.9590889880000001,8.1698948
633,1715673292500,3.3021032,-0.6701610499999999,1.0006275,-0.67643145,-0.7462227933333333,7.7406806
634,1715673292510,3.1101326800000004,-0.6995774,1.00566848,-1.2635900379999998,-0.37125334800000004,7.13638732
635,1715673292520,2.8435501299999997,-0.63430532,1.09588107,-1.68687385,0.13141238800000002,6.9035866
636,1715673292530,2.7012551599999997,-0.469112752,1.10971105,-1.8384447800000001,0.600220922,6.9693769
637,1715673292540,2.646448388888889,-0.32789176888888893,1.0623112444444445,-1.9046439,0.9313319333333333,7.084866111111111
638,1715673292550,2.5710647,0.4753936,0.65296495,-2.1673498,2.2267566,7.543575
639,1715673292560,2.7792292099999996,0.7603370469999999,0.36939349899999996,-2.0906557599999998,2.50315776,7.54481205
640,1715673292570,3.10744366,1.1427435129999999,0.020836581299999997,-1.76230048,2.46281022,7.261950710000001
641,1715673292580,3.36105,1.6897938,-0.28410196,-1.0581713,2.173764,6.5038824
642,1715673292590,3.6890566,2.007861,-0.626378,-0.18799378,1.8978056000000003,5.760154
643,1715673292600,4.0732865,2.1187212,-0.9673125,0.60231316,1.5234979,5.4534993
644,1715673292610,4.25140675,2.3081529,-1.2003444,1.01434178,1.3102296,5.30208115
645,1715673292620,4.7221726,2.724264688888889,-1.825214877777778,1.5509869333333333,0.7195822777777778,4.767582555555555
646,1715673292630,5.141312259999999,2.7378183399999996,-2.06732774,1.1468689900000002,0.138437328,4.21480227
647,1715673292640,5.5010406199999995,2.6831199999999997,-1.9718222600000002,0.129961589,-0.385028358,3.3365918399999996
648,1715673292650,6.060536411111111,2.450895066666667,-1.506185411111111,-1.7843034033333334,-0.3561344488888889,1.7758362444444444
649,1715673292660,6.2280464,2.116099,-1.1267121,-2.9063592700000003,-0.010995576099999996,0.72349355
650,1715673292670,6.165848,1.7711399999999997,-0.77931374,-3.9408443000000006,0.42241332,-0.56673026
651,1715673292680,6.005188,1.2991340444444444,-0.44059479777777777,-4.259037277777778,0.6041796399999999,-1.4469191844444445
652,1715673292690,5.77338558,0.8526961,-0.11340905400000001,-4.144629,0.6593984620000001,-2.1065993599999997
653,1715673292700,5.51637064,0.63765918,0.12101926,-3.6673599799999996,0.634627892,-2.598804
654,1715673292710,5.33829928,0.55236152,0.249368216,-3.17274241,0.577008037,-2.9466153999999998
655,1715673292720,4.967078344444444,0.5126925333333333,0.3875158311111111,-1.9902837888888891,0.3271013633333333,-3.5883242777777777
656,1715673292730,4.60813475,0.46478322999999994,0.44761757499999993,-0.8348236950000001,0.091477066,-4.27468225
657,1715673292740,4.16241354,0.36593598,0.40710912,0.13614660499999998,-0.0357356175,-5.0245957
658,1715673292750,3.6385658,0.16781467,0.2532465,0.8659184555555556,-0.08940691655555556,-5.923339933333334
659,1715673292760,3.46611688,-0.025635643000000003,0.17449189399999998,0.96434244,-0.1945300388,-6.28238248
660,1715673292770,3.201955177777778,-0.22616496444444445,0.16849221333333333,0.8462011022222222,-0.25004751666666664,-6.389938955555555
661,1715673292780,2.9990957099999997,-0.247727871,0.262954382,0.5364007639999999,-0.115545162,-6.37306553
662,1715673292790,2.93886056,-0.212213612,0.327836219,0.05416847700000001,0.269009787,-6.47911158
663,1715673292800,2.906680555555555,-0.1858509611111111,0.31766081111111105,-0.1853976,0.5143485,-6.7482285
664,1715673292810,2.8901930200000003,-0.233794134,0.300212642,-0.25934285999999995,0.6505562100000001,-7.12482702
665,1715673292820,2.899539088888889,-0.28970524444444445,0.29771383777777777,-0.23559037777777775,0.6740388888888889,-7.3245458333333335
666,1715673292830,2.91946304,-0.385022464,0.298541808,-0.07770206126,0.64754768,-7.7477566
667,1715673292840,2.91646296,-0.558136222,0.31561598599999996,0.31819969937,0.52896348,-8.2569891
668,1715673292850,2.8945591,-0.7908998,0.29495624,0.81413066,0.3472769,-8.744689
669,1715673292860,2.9226096,-0.98853326,0.28727287,0.9434813577777779,0.23550552,-8.903852666666666
670,1715673292870,2.9642584,-1.0939662,0.3108718,0.9350819400000001,0.1631621,-9.0404539
671,1715673292880,2.9957845,-1.1750076,0.38447365,0.6718499444444445,0.24324315555555553,-9.12374788888889
672,1715673292890,3.01384048,-1.25678061,0.426567541,0.28799242999999997,0.522244002,-9.2405124
673,1715673292900,3.0606297099999997,-1.40109393,0.42685416099999995,-0.0842994,0.9512699,-9.382737
674,1715673292910,3.09721729,-1.5612252100000001,0.34832520600000005,-0.22586742,1.2081540199999998,-9.4463742
675,1715673292920,3.0944692111111114,-1.6396213444444445,0.2732544277777778,-0.18142697,1.319469,-9.492235
676,1715673292930,3.1110717,-1.6811713000000001,0.189840338,-0.0925918978,1.27179088,-9.507842900000002
677,1715673292940,3.16433084,-1.6767380299999999,0.125921978,0.1525635884,1.0558195000000001,-9.550359199999999
678,1715673292950,3.21650474,-1.69322068,0.099481412,0.5019479499999999,0.61868433,-9.6477766
679,1715673292960,3.1750089999999997,-1.7039544666666666,0.10757402644444444,0.66782844,0.3378085,-9.768652
680,1715673292970,3.09884543,-1.7488276499999997,0.0974142204,0.659994084,0.29465086300000004,-9.8475451
681,1715673292980,2.9536478199999996,-1.82808234,0.0405633436,0.490066646,0.258930517,-9.8605716
682,1715673292990,2.757491622222222,-1.8805161333333333,-0.043376515888888884,0.32467487777777776,0.24490606222222222,-9.819641444444445
683,1715673293000,2.4968408,-1.88567088,-0.090968718,0.156809112,0.226111776,-9.73933
684,1715673293010,2.15891865,-1.8821707500000002,-0.17026603099999998,-0.010735955900000002,0.223393421,-9.64014045
685,1715673293020,1.7583953,-1.8681577,-0.24751443999999997,0.019870088999999997,0.08715010222222222,-9.586410500000001
686,1715673293030,1.6867386500000001,-1.86239518,-0.25410019,0.08335256640000001,0.009743295999999995,-9.5643176
687,1715673293040,1.1886790760000001,-1.8568155999999998,-0.309676594,0.42485677199999994,-0.354943232,-9.4960532
688,1715673293050,0.5132277844444445,-1.9263997999999998,-0.40559276333333333,0.9439564644444444,-1.0550491222222222,-9.322600555555557
689,1715673293060,0.1037865469,-1.9891221000000001,-0.43860486400000004,1.197356968,-1.69227995,-9.0186919
690,1715673293070,-0.42307347,-2.08128,-0.2499536,1.35480749,-2.5065939100000003,-8.369907600000001
691,1715673293080,-0.6505562370000001,-2.1108062100000002,0.045527047,1.41991037,-3.1770491499999998,-7.25674293
692,1715673293090,-0.8746242,-2.0910976,0.39203507,1.3917037,-3.2556064,-6.3348255
693,1715673293100,-1.0557934,-2.1521988,0.7510804,1.25425903,-2.69758102,-5.33010465
694,1715673293110,-1.1723312666666668,-2.2414722222222223,0.7931966666666667,1.0839803333333333,-1.7082676666666667,-4.294009333333333
695,1715673293120,-1.2395540500000002,-2.2712301,0.7636421,0.9465967620000001,-0.9909455900000002,-3.6267986
696,1715673293130,-1.4150155,-2.24436884,0.5707588699999999,0.551855651,0.19161315499999998,-2.4957052500000003
697,1715673293140,-1.52772328,-2.2245200400000003,0.43798894,0.23848178280000001,0.87527826,-1.8059620200000002
698,1715673293150,-1.7515045,-2.2400696,0.18488884,-0.2002280476666667,1.749738588888889,-0.8845837933333334
699,1715673293160,-1.84520518,-2.26414424,0.0570521116,-0.24388795000000002,2.2041545,-0.35246924
700,1715673293170,-2.048778,-2.3773339,-0.28032124,0.22800545,2.094504,-0.07666359
701,1715673293180,-2.1619005200000005,-2.5175615000000002,-0.39083379900000004,0.9082344299999999,1.66920458,0.19416351299999998
702,1715673293190,-2.2146416,-2.6726558,-0.44697732,1.6410894,1.1814134,0.52458054
703,1715673293200,-2.1998419,-2.88445491,-0.434879048,2.28034464,0.66297209,1.0145708340000001
704,1715673293210,-2.154455,-3.0651789,-0.3342878,2.4884052,0.41280745999999996,1.49976581
705,1715673293220,-2.154455,-3.0651789,-0.3342878,2.503631,0.3914119,1.5476271
706,1715673293230,-1.9823040222222221,-3.2002545444444443,-0.12121303733333333,2.1637186444444447,0.6323643,2.4299201666666668
707,1715673293240,-1.58825733,-3.40058886,0.13421514559999997,1.43956502,1.4550505,3.8455801000000003
708,1715673293250,-1.2132416,-3.4583116000000005,0.20001167,0.9839512000000001,2.2058344,4.9944344
709,1715673293260,-0.7759260444444444,-3.476036133333333,0.19491652333333334,0.7457137244444445,2.7655227555555557,6.0836749333333335
710,1715673293270,-0.15177715,-3.4564211,0.17080265,0.48243082,3.3018794,7.565108
711,1715673293280,0.49527280000000007,-3.3734282999999996,0.10567689,0.22235495,3.6357172000000006,8.929781
712,1715673293290,1.35380457,-3.319084,0.067528334,-0.24617868999999998,3.8541017,10.250777
713,1715673293300,1.9235268,-3.207565,0.04634417,-0.9637926000000001,3.9173262,11.435245
714,1715673293310,2.46405222,-3.06690445,-0.02900779,-1.45468396,3.7541029200000002,12.026928600000002
715,1715673293320,3.3707088300000003,-2.88783928,0.013220283699999998,-2.35616825,3.00793101,12.84200645
716,1715673293330,3.97676253,-2.7094812299999997,0.1440815833,-2.7513981100000002,2.5291807499999996,13.017981700000002
717,1715673293340,4.2941835,-2.5688084499999997,0.31312803499999997,-3.01413128,2.0902282199999997,12.9275884
718,1715673293350,4.706975222222223,-2.4020304333333335,0.6374016888888889,-3.158105388888889,1.497298588888889,12.657178666666667
719,1715673293360,4.993889,-2.1441495,1.0051196,-2.7844765,0.9844093299999999,12.252735
720,1715673293370,4.93732478,-1.9827620400000001,1.03852394,-2.28894262,0.8451320499999999,11.959886399999998
721,1715673293380,4.83546515,-1.8027576499999998,1.025029235,-1.4830280999999998,0.686459815,11.439826499999999
722,1715673293390,4.599705844444444,-1.6946247222222222,0.8854649077777778,-0.2995445577777778,0.48557000666666666,10.500061222222222
723,1715673293400,4.4021473,-1.6454010000000001,0.77876496,0.26175576,0.31871894,9.956035
724,1715673293410,4.21061173,-1.61713704,0.729262062,0.500497176,0.16381877900000003,9.5836969
725,1715673293420,4.093050444444445,-1.6508009666666668,0.7316822477777778,0.4191044711111111,0.1438926988888889,9.358795333333333
726,1715673293430,4.02214916,-1.7013065,0.723627578,0.276340165,0.18157969499999999,9.3240945
727,1715673293440,3.9752623999999996,-1.76092585,0.7226336,0.015806133,0.23945917999999997,9.385257
728,1715673293450,4.0007215,-1.650767,0.81577927,-0.22348504959999999,0.334448716,9.636490599999998
729,1715673293460,4.008004888888888,-1.4867669444444445,0.8237404533333333,-0.39282029333333335,0.5560061266666667,9.790405
730,1715673293470,4.0012091,-1.1497072899999998,0.769081435,-0.692095035,1.03596635,9.661063
731,1715673293480,3.9641947999999996,-0.9351765,0.47783275999999997,-1.1882856,1.4869987,9.239642
732,1715673293490,3.8998981600000002,-0.7373113,0.21010982400000003,-1.39878976,1.35334142,8.751316399999999
733,1715673293500,3.7514504700000004,-0.454599695,0.051472515399999995,-1.208597,0.6724099,7.985994
734,1715673293510,3.6436881899999998,-0.08646846100000001,0.1288184866,-0.659429043,0.1014188992,7.50858745
735,1715673293520,3.6067348,0.25721014,0.22489117,-0.23243423000000002,-0.1469131,7.204544500000001
736,1715673293530,3.6061129000000003,0.45452653600000004,0.27278420800000003,-0.20402899400000002,-0.0791986816,7.038786400000001
737,1715673293540,3.62438206,0.90613824,0.332568196,-0.9121439539999999,0.5402797648,6.5306078
738,1715673293550,3.5860687999999996,1.30275285,0.395449917,-1.9978348000000001,1.2957673760000001,6.138707200000001
739,1715673293560,3.4942894,1.8102887,0.50155365,-4.2493315,2.9735394,5.4087534
740,1715673293570,3.3605007999999996,2.0764627,0.46496618000000006,-5.01624226,3.6662605200000002,5.06153772
741,1715673293580,3.24898225,2.3061954399999998,0.337037975,-6.086814,4.7358856,4.355622
742,1715673293590,3.3150713000000005,2.4902062,-0.023598937,-5.7378573,4.666705,4.070348
743,1715673293600,3.7129604999999994,2.6449714,-0.39587677,-4.052938,3.40985,4.065919
744,1715673293610,4.41443436,2.91562753,-0.5600021909999999,-1.89010872,1.6710830399999999,4.038796840000001
745,1715673293620,5.2797594,3.2710445,-0.57088697,0.6006162533333332,-0.5714983888888888,3.559749366666667
746,1715673293630,5.74054236,3.3984422000000003,-0.557020304,1.806847744,-1.32234,3.01425352
747,1715673293640,6.46207822,3.34153041,-0.409987349,2.7525588,-2.08740295,1.415145745
748,1715673293650,6.584205366666667,2.769084311111111,-0.1553816988888889,2.421096548888889,-2.2525657111111115,-0.9528479600000002
749,1715673293660,6.310429,1.5284429,0.2821506,0.26542094,-1.1792754,-3.1175508
750,1715673293670,5.87894068,0.8801123719999999,0.62099964,-1.5377005,0.33582318,-3.695124
751,1715673293680,5.398363711111111,0.3834844422222222,0.8283207,-2.514406188888889,1.583617242222222,-3.7834955555555556
752,1715673293690,4.91958552,0.158637312,0.710834133,-3.1699324,3.0822732,-3.9235876
753,1715673293700,4.470711870000001,-0.0031282307000000003,0.436653547,-2.63609722,3.2751081899999996,-4.1169718600000005
754,1715673293710,4.0287714,-0.14439867,0.22434235,-1.2052372,2.5517368,-4.3913574
755,1715673293720,3.7077165,-0.15811898,0.2775162,0.21759018800000002,1.5115555,-4.64920344
756,1715673293730,3.5853784555555555,-0.13258904222222223,0.36668126666666667,1.3146499244444445,0.6530319244444445,-4.929122333333333
757,1715673293740,3.46227525,-0.10460976500000001,0.5073162,1.91610096,0.15937474399999998,-5.23422916
758,1715673293750,3.2868687999999997,-0.09091994,0.744311735,2.3170728400000002,-0.205433984,-5.60221436
759,1715673293760,3.1194842555555553,-0.20982254444444445,1.0012643377777777,2.2289624888888886,-0.17606493777777776,-6.150954944444445
760,1715673293770,3.0100536,-0.40301131999999995,1.1323222,1.76847012,0.394496772,-6.38290061
761,1715673293780,2.9845643,-0.4908213,1.1253096,1.3723087,1.0173961,-6.488916000000001
762,1715673293790,2.9536682111111108,-0.5206333888888889,1.0096930666666666,1.1533136,1.7559321,-6.6335382
763,1715673293800,2.99129656,-0.518707126,0.86264787,1.23633014,2.01570261,-6.783627780000001
764,1715673293810,3.04425676,-0.522963448,0.67910059,1.4880678,2.04334424,-7.07751528
765,1715673293820,3.0893266,-0.55228835,0.5545445,2.019673,1.7573066,-7.623597999999999
766,1715673293830,3.13030468,-0.6381957500000001,0.53415314,2.3122775599999996,1.52578868,-7.9412476
767,1715673293840,3.19501571,-0.78935089,0.50749915,2.5776375,1.2352917099999998,-8.3006355
768,1715673293850,3.2533361,-0.94444534,0.47290566399999995,2.68108758,0.9653503600000001,-8.5752042
769,1715673293860,3.3046498800000004,-1.14879267,0.481430542,2.5068383,0.70234233,-8.80211
770,1715673293870,3.3036075,-1.1916549,0.5324701,2.1111842333333333,0.8304034311111111,-8.900187333333333
771,1715673293880,3.351171,-1.2088511,0.58588785,1.7669277,1.1108584,-8.984758
772,1715673293890,3.4321513,-1.2746475,0.6144261,1.50798186,1.5400981,-9.1150564
773,1715673293900,3.470202588888889,-1.3642462555555557,0.5220087666666667,1.317262988888889,2.0824565555555554,-9.345508222222223
774,1715673293910,3.4753005999999997,-1.4650001099999999,0.381674709,1.21524002,2.41835437,-9.5760616
775,1715673293920,3.3802583,-1.6898545999999999,0.10964054600000002,1.2123842,2.43023568,-9.640583799999998
776,1715673293930,3.26923349,-1.8071359399999998,0.019196243,1.25283882,2.18066665,-9.516776400000001
777,1715673293940,3.1588428222222222,-1.8232024888888887,0.033267522222222214,1.2589423555555557,1.9642371555555558,-9.351956444444445
778,1715673293950,3.11784651,-1.8129166900000002,0.0423378351,1.2636664,1.8212947200000003,-9.2193308
779,1715673293960,2.9846864,-1.7420528,0.08506594,1.2733486,1.6022996,-9.035766
780,1715673293970,2.9298356599999997,-1.74154068,0.125958568,1.23315362,1.61373802,-9.080344100000001
781,1715673293980,2.75952056,-1.72798491,0.182449669,1.067746675,1.88317542,-9.323041100000001
782,1715673293990,2.537126288888889,-1.7571281666666667,0.09653001666666666,0.97387195,2.134974,-9.483989
783,1715673294000,2.2749132000000003,-1.8176427,-0.0074882436,0.93269959,2.1638068,-9.5437306
784,1715673294010,2.020941,-1.86323072,-0.0722481176,0.92570522,2.0418782,-9.4892724
785,1715673294020,1.55433456,-1.8429368199999998,-0.162655822,0.94949842,1.851502,-9.3487736
786,1715673294030,0.9219440000000001,-1.7423579,-0.2579419,0.9823901055555555,1.5711623777777777,-9.086943333333334
787,1715673294040,0.63556756,-1.74526045,-0.309420509,0.99329742,1.41433634,-8.874436600000001
788,1715673294050,0.30163345500000005,-1.8136119499999999,-0.363618775,0.9930378,1.09360155,-8.3449538
789,1715673294060,-0.22689128100000003,-2.005617,-0.328610619,1.03138486,0.548740248,-7.08951852
790,1715673294070,-0.58960754,-2.0487373666666664,-0.21458568333333333,1.0570514,0.4799364533333333,-6.2894684000000005
791,1715673294080,-1.09020999,-2.15955289,-0.22020188000000002,1.039998,0.8390234,-4.974123
792,1715673294090,-1.4229001,-2.28555419,-0.381918608,1.0211682000000002,1.14305096,-3.9595063799999997
793,1715673294100,-1.6473888899999998,-2.3527836800000004,-0.5062551209999999,1.0458777300000002,1.2349709899999999,-2.72536004
794,1715673294110,-1.767969,-2.4639852,-0.500761,0.9909761500000001,1.2568552,-1.5633569
795,1715673294120,-1.77927453,-2.5061340899999998,-0.48791872,0.9052259250000001,1.30007395,-1.34039105
796,1715673294130,-1.8346802199999999,-2.50891466,-0.5697649680000001,0.523694764,1.51885534,-0.69666128
797,1715673294140,-1.9267588444444443,-2.5449723333333334,-0.7103734288888889,0.42830138333333334,1.552904311111111,-0.5254289666666667
798,1715673294150,-1.9746518299999998,-2.69431556,-0.7891741000000001,0.70095257,1.29150657,-0.0768163034
799,1715673294160,-2.0224352,-2.8960226,-0.8557816,1.260215,1.0329732,0.30940324
800,1715673294170,-2.02490471,-3.00304124,-0.9061078,1.7449823600000003,0.8701011900000001,0.611644084
801,1715673294180,-2.0001166,-3.0976198,-0.8985281,2.054187,0.74204856,0.9818132
802,1715673294190,-1.9706514800000001,-3.1106450800000003,-0.861696628,2.10342276,0.7579310720000001,1.3533414400000001
803,1715673294200,-1.9489551999999999,-3.0898755,-0.80669343,1.9507981888888888,0.9431250155555555,1.924734522222222
804,1715673294210,-1.8305764,-3.07390491,-0.801699213,1.6496569,1.210841783,2.6347993
805,1715673294220,-1.55563948,-2.99880911,-0.7333110749999999,1.28147305,1.44520025,3.5839463100000004
806,1715673294230,-1.33810248,-2.89763246,-0.65728225,0.997588766,1.67534366,4.462477600000001
807,1715673294240,-0.99437508,-2.77712544,-0.5377142979999999,0.732778682,1.9207130700000001,5.2816478799999995
808,1715673294250,-0.2393635511111111,-2.645459333333333,-0.26859290999999996,0.26776259999999996,2.403025077777778,6.413677966666667
809,1715673294260,0.33421462799999996,-2.60198117,-0.143276656,-0.21788036500000002,2.8574137100000003,7.2659826999999995
810,1715673294270,0.84334192,-2.51236623,-0.0513017746664,-0.694401072,3.2189697600000002,7.984726449999999
811,1715673294280,1.2898923,-2.4422767,0.000121958336,-1.1038336,3.500258,8.5689125
812,1715673294290,1.6993065299999999,-2.42608669,0.0612047978336,-1.5422820099999999,3.57131678,9.119928050000002
813,1715673294300,2.12452032,-2.4059576799999998,0.189443972,-2.2278256,3.51049,9.799806
814,1715673294310,2.3931884666666665,-2.3519259333333333,0.30046468666666665,-2.7207599222222223,3.4531194000000003,10.148541333333334
815,1715673294320,2.82346976,-2.1550403200000003,0.460990316,-3.9145772,3.1089988,10.633331
816,1715673294330,2.99225992,-2.05677852,0.561666918,-4.22831768,2.92280692,10.6763054
817,1715673294340,3.22094382,-1.9384179799999999,0.839268444,-5.08305559,2.32414368,10.68389585
818,1715673294350,3.3544773666666665,-1.8409000777777775,1.0525274977777777,-5.527040899999999,1.879004511111111,10.5057965
819,1715673294360,3.37385524,-1.5537003200000001,1.43327874,-5.61608108,1.15847534,9.6603756
820,1715673294370,3.24104885,-1.54142525,1.5430412,-5.18154219,0.77905168,8.875307
821,1715673294380,3.02186544,-1.86652956,1.41413738,-4.153807240000001,0.050900339,7.9642930000000005
822,1715673294390,3.0123708,-2.1262827,1.3013564,-3.552487,-0.6042985,7.877565399999999
823,1715673294400,3.11510841,-2.2907068500000003,1.46396966,-3.0006312399999997,-1.44741466,8.222949080000001
824,1715673294410,3.26217195,-2.3297091,1.7410163,-2.78097931,-1.7790533499999999,8.5324134
825,1715673294420,3.5988503199999995,-2.23782563,2.39728018,-2.7003297,-1.73998852,9.694477299999999
826,1715673294430,3.7501576300000004,-2.0316917400000003,2.72263457,-2.8303371999999998,-0.9541409599999999,10.1729982
827,1715673294440,3.807295233333333,-1.8504534333333333,2.7930289,-2.7106635333333333,-0.3117448953333333,10.274346000000001
828,1715673294450,3.7937918,-1.610202288888889,2.6831105777777773,-2.3778438,0.2619593713333333,10.159452666666667
829,1715673294460,3.5058753,-1.1968992,1.8722434,-0.42745295,1.1870639,9.021564
830,1715673294470,3.2947898600000003,-1.17928832,1.240987,0.94711605,0.91241886,8.345823999999999
831,1715673294480,3.0383482,-1.1157968,0.40880433,2.9654453,0.011911872,7.528761399999999
832,1715673294490,2.92353637,-0.9615804500000001,-0.026458863000000006,4.19488823,-0.7544796827999999,7.179651940000001
833,1715673294500,2.932671,-0.78138703,-0.4279518,5.075985,-1.4332426,7.0910764
834,1715673294510,3.0632885,-0.506493,-0.6679658,4.9870578000000005,-1.6025743599999998,7.3133247400000005
835,1715673294520,3.28398434,-0.08622454959999999,-0.69889444,3.87789477,-1.1441811000000002,7.6817677
836,1715673294530,3.523512011111111,0.641338234,-0.5417185933333334,1.3904821,0.46731192,7.624973000000001
837,1715673294540,3.70812491,1.1851788920000002,-0.564307306,-0.6236627800000001,1.876577984,7.2002994000000005
838,1715673294550,3.8389741,1.6240276999999999,-0.66513025,-2.79959525,3.2040645,6.5186195
839,1715673294560,3.9626024666666666,2.083868388888889,-0.8587425222222221,-6.736401366666667,5.1146728999999995,4.55807288888889
840,1715673294570,3.8801286599999996,2.0176055,-0.9185169999999999,-7.180262999999999,4.8047605,3.4684927
841,1715673294580,3.8607129999999996,1.6433275999999999,-0.9499334699999998,-5.486028,3.1919236,2.5572345
842,1715673294590,3.8792505,1.2798308,-0.8279142,-2.377793,0.8103127499999999,2.1653645
843,1715673294600,4.086214,1.1765321,-0.6304636,0.35414913,-1.1119275,2.1484132
844,1715673294610,4.549656,1.0518296,-0.3398369,1.7162259,-1.905136,2.2950208
845,1715673294620,4.950533,0.9102970000000001,-0.28367507,1.9601139,-1.6239853,2.4349089
846,1715673294630,5.271689666666666,0.8935074,-0.40144615666666666,1.6085269999999998,-0.9059640644444443,2.5286257555555554
847,1715673294640,5.62475484,0.9913627,-0.575362836,1.237887904,-0.380905016,2.5007905999999998
848,1715673294650,5.96255508,1.34967626,-0.828938612,0.266703778,0.5821240480000001,1.96695548
849,1715673294660,6.0534088,1.6211245222222221,-0.9746842199999999,-0.8499850900000001,1.1659550777777778,0.4788335111111111
850,1715673294670,5.757348,1.4764276,-0.76498365,-1.5483906,1.1904236,-1.539075
851,1715673294680,5.2698197,1.2025092,-0.6229632,-1.5784758,1.1665999,-2.553875
852,1715673294690,4.75711913,0.9288164099999999,-0.5091394979999999,-1.1999531700000001,0.96771745,-3.3833534300000006
853,1715673294700,4.22833811,0.65555658,-0.403139362,-0.44806966,0.53801954,-4.0190353
854,1715673294710,3.8247839799999994,0.47929626699999994,-0.284650736,0.10047206,0.19908098,-4.27853068
855,1715673294720,3.5787657666666663,0.4397275477777778,-0.20146838222222221,0.3985726155555555,0.004496646666666665,-4.4432472333333335
856,1715673294730,3.43467596,0.46147811999999994,-0.150459988,0.468075498,-0.056627206,-4.58274172
857,1715673294740,3.2785856000000004,0.5103346333333333,-0.09185494666666666,0.42796201666666667,-0.05121086666666666,-4.812651
858,1715673294750,3.15047664,0.54484886,-0.058100952399999996,0.242605138,0.06365216,-5.12674752
859,1715673294760,3.03424419,0.5004621300000001,-0.0886088329,-0.10320568199999999,0.217284768,-5.79692788
860,1715673294770,2.94449498,0.41827440400000004,-0.094773826,-0.189368227,0.13817772,-6.230229899999999
861,1715673294780,2.8232136,0.24111164,-0.01841571,-0.12767084,-0.15317446,-6.847036
862,1715673294790,2.7779364,0.10698185359999998,0.0814132845,0.123440599,-0.42462769,-7.211264470000001
863,1715673294800,2.72137223,-0.1204765476,0.2544050855,0.46105054,-0.60048056,-7.5518217
864,1715673294810,2.6997856,-0.28074808800000006,0.366295746,0.631619377,-0.543441026,-7.773519869999999
865,1715673294820,2.7099752,-0.43270817,0.41051176,0.66645396,-0.3707952,-8.032114
866,1715673294830,2.7327692600000004,-0.508554068,0.4045846,0.556406604,-0.257174262,-8.193657400000001
867,1715673294840,2.74911162,-0.61075516,0.398925736,0.383959356,-0.12315042999999999,-8.3965262
868,1715673294850,2.73983664,-0.741866455,0.408950704,0.1463633151,0.006688973000000001,-8.605625900000001
869,1715673294860,2.6762131,-0.9587347833333334,0.4819793399999999,-0.16630806766666667,0.19313523,-8.835045666666666
870,1715673294870,2.63356836,-1.08994168,0.530543126,-0.20222694400000002,0.311510728,-8.881155799999998
871,1715673294880,2.62853144,-1.2032653899999999,0.5859061440000001,-0.0299782123,0.32577442300000004,-8.8088602
872,1715673294890,2.6363122,-1.2245836,0.6254633,0.22510384,0.24404067000000002,-8.724835
873,1715673294900,2.68504693,-1.21497934,0.691924475,0.5358662439999999,0.09298896300000001,-8.652264400000002
874,1715673294910,2.80521856,-1.2074363399999999,0.8051201600000001,0.818208186,-0.0538172306,-8.6275708
875,1715673294920,2.950416,-1.2136074,0.9443234,0.9138544,-0.04046982,-8.649699
876,1715673294930,2.9959064666666664,-1.2054768,0.9968062,0.8754717333333333,0.04301509333333334,-8.677697
877,1715673294940,3.03277444,-1.18461786,1.05550064,0.7616268,0.299995928,-8.8079742
878,1715673294950,3.0392626666666667,-1.2129095222222221,1.0420120000000002,0.6292930044444445,0.6789427933333333,-9.027485444444444
879,1715673294960,3.0426288,-1.4085699200000001,0.872197208,0.503780568,1.124511252,-9.2112064
880,1715673294970,2.96528885,-1.45521897,0.770758358,0.5019785,1.0769554,-9.115178
881,1715673294980,2.8409787,-1.4119725666666667,0.7218306999999999,0.5634722666666667,1.0507900000000001,-9.131060666666666
882,1715673294990,2.740038,-1.4036795,0.65808713,0.68111473,1.0571023,-9.221316
883,1715673295000,2.622897,-1.4507554,0.5402144,0.7609854,1.0580186,-9.342573
884,1715673295010,2.4263003,-1.5203327,0.33873928,0.7620544,0.9990701,-9.427789
885,1715673295020,2.22858131,-1.55226131,0.19625535099999997,0.68797172,0.8371144600000001,-9.4245816
886,1715673295030,1.8744996888888887,-1.5591154111111112,0.07822949533333333,0.5259040866666667,0.6224207666666666,-9.386453
887,1715673295040,1.68326895,-1.5538407,0.054454396,0.39608885625,0.5466862025,-9.336922125
888,1715673295050,1.2674858444444443,-1.5965226333333333,-0.016057846444444444,0.17192463333333333,0.6542875733333333,-9.210761777777778
889,1715673295060,1.0262794,-1.6333269,-0.06646729,0.07880162,0.744492,-9.151372
890,1715673295070,0.6485866288,-1.77500596,-0.218171274,-3.054000000000112e-05,0.76654424,-8.9333542
891,1715673295080,-0.3838760516,-2.06551062,-0.492992207,-0.501734168,0.9271865229999999,-7.320318760000001
892,1715673295090,-0.9238344,-2.0621936,-0.6902842,-0.7093673,1.1001683,-6.502355
893,1715673295100,-1.2590247199999998,-2.09185392,-0.852683912,-0.789634948,1.1625987,-5.947445159999999
894,1715673295110,-1.8296800000000002,-2.2603757,-1.0931736,-0.68951416,1.0874928,-5.289024
895,1715673295120,-2.08498141,-2.49040753,-1.2572563300000001,-0.282861158,0.8109389,-4.721912
896,1715673295130,-2.4346203555555554,-2.7388656333333334,-1.4131854,0.5186924333333333,0.08782885977777778,-3.726990733333333
897,1715673295140,-2.59984684,-2.9074989,-1.38466624,1.15384807,-0.5040707308,-3.04180354
898,1715673295150,-2.7321106100000003,-3.1701667700000002,-1.20101524,1.9838308599999999,-1.075290823,-2.15519371
899,1715673295160,-2.8088468200000003,-3.3976738400000004,-1.1029424,2.18417928,-1.1399662,-1.66830358
900,1715673295170,-2.9256585444444445,-3.797220333333333,-0.8901739022222223,2.1215859000000004,-1.0557787799999998,-1.1563170333333332
901,1715673295180,-2.947062,-3.9363272,-0.7149198,1.35430355,-0.487592638,-0.08214608999999999
902,1715673295190,-2.900779,-3.9237656999999997,-0.63387847,0.77274454,0.19547687,1.1371256
903,1715673295200,-2.7413185,-3.887422,-0.6642461,0.9126327000000001,0.5795584,2.2676845
904,1715673295210,-2.45949706,-3.7425843999999997,-0.853330236,1.4266147,0.50943108,3.28807386
905,1715673295220,-1.9620656999999997,-3.5597197999999994,-0.97755706,2.0913142000000002,0.15972429533333335,4.439921511111111
906,1715673295230,-1.4464258600000002,-3.3543908399999998,-0.8919910919999999,2.58093626,-0.1891849548,5.467946660000001
907,1715673295240,-0.93270686,-3.1495192,-0.75210486,2.7873935199999997,-0.296498726,6.25506176
908,1715673295250,-0.3397881164,-2.95361134,-0.5751677159999999,2.74629748,-0.125563358,7.02855452
909,1715673295260,0.6354029,-2.6980233,-0.3328243,2.31762263,0.5328577250000001,8.1009736
910,1715673295270,1.2081191666666666,-2.570807211111111,-0.29184628222222225,1.7946033444444442,1.1875049933333335,8.893773555555557
911,1715673295280,1.9043183,-2.3955054,-0.31385976,1.2330315,1.8157970000000003,9.808816
912,1715673295290,2.2892982799999997,-2.31034802,-0.312280413,1.01903013,2.0073947599999995,10.181154099999999
913,1715673295300,2.8997424,-2.1006713,-0.29556602,0.75670934,2.1641428,10.497414
914,1715673295310,3.17030688,-1.9173678500000002,-0.30176761399999996,0.635269308,2.1860117600000004,10.48593
915,1715673295320,3.308553511111111,-1.7680910555555558,-0.3281627644444444,0.5986649088888889,2.059532155555556,10.301291888888889
916,1715673295330,3.40976607,-1.6171065800000002,-0.42106724599999995,0.7877107,1.5456418,9.872346
917,1715673295340,3.4271267699999997,-1.56145078,-0.44122085499999997,1.02494026,0.97785781,9.5586978
918,1715673295350,3.4291389199999998,-1.5290525799999999,-0.361289364,1.22466262,0.43206498800000004,9.300362400000001
919,1715673295360,3.3751968888888886,-1.4564331777777777,-0.11926169833333332,1.3589206,-0.042607846666666664,9.032711333333333
920,1715673295370,3.2937045300000003,-1.3798793,0.2223849275,1.096671155,-0.20877846499999997,8.7096401
921,1715673295380,3.2514093,-1.3394684,0.54448295,0.59696805,0.17821993,8.72789
922,1715673295390,3.2466528000000006,-1.2573295,0.7344941,-0.25488353,0.9309586,8.87068
923,1715673295400,3.2519648,-1.1048001666666667,0.7844699222222222,-1.1479684811111113,1.6133629555555558,8.937060444444446
924,1715673295410,3.2266150199999997,-0.91406548,0.788027655,-2.2305744,2.1911736,8.833112
925,1715673295420,3.12021866,-0.73424409,0.766215439,-2.8804129200000004,2.2833990299999996,8.5091543
926,1715673295430,2.9743537,-0.6507900333333334,0.7464188599999999,-3.2038863555555555,2.0438703,7.996684066666666
927,1715673295440,2.82160987,-0.6394336450000001,0.7506657029999999,-3.1292489199999998,1.7026341200000001,7.634593730000001
928,1715673295450,2.67370498,-0.67285636,0.77667942,-2.83136044,1.26803408,7.283926460000001
929,1715673295460,2.481073022222222,-0.7471981111111111,0.8127641888888889,-2.112473866666667,0.63163468,6.8975339
930,1715673295470,2.2361672,-0.9159071400000001,0.8602331,-1.2373075,0.074067414,6.640563500000001
931,1715673295480,2.2024334,-0.9937652539999998,0.8678128380000001,-0.94337444,-0.030543261999999998,6.66791475
932,1715673295490,2.1973844,-1.0193278,0.8804172,-0.8013025,-0.04596761,6.771136
933,1715673295500,2.2269225799999997,-1.01535803,0.90410765,-0.9617157000000001,0.08512407,6.878281599999999
934,1715673295510,2.3205013,-0.9305421,0.8710264000000001,-1.3629931,0.36163223,6.928128200000001
935,1715673295520,2.41621423,-0.82544451,0.8009979399999999,-1.7208074,0.5697846,6.8320694
936,1715673295530,2.4909176666666664,-0.7252252266666667,0.7292702,-1.9341350444444443,0.6458033322222223,6.703787866666667
937,1715673295540,2.55031944,-0.619780044,0.6469524000000001,-2.04942228,0.693179348,6.594382039999999
938,1715673295550,2.6034080200000003,-0.452380038,0.5793874999999999,-2.06915324,0.75536544,6.43201428
939,1715673295560,2.74537361,-0.1447950311,0.516469179,-1.8822285600000002,0.8432383800000001,6.468055079999999
940,1715673295570,3.0130755555555555,0.26331481711111115,0.41623701999999996,-1.7263561333333335,1.0310387,6.523277266666666
941,1715673295580,3.456604,0.7185785,0.204829,-2.0917554,1.3865114,6.2222733
942,1715673295590,3.6943496199999997,0.8617088299999999,0.1328797024,-2.74324317,1.56890045,5.76444519
943,1715673295600,3.9623652,0.8555377,0.18190086,-4.2084036,2.0923662,5.011691
944,1715673295610,4.1414548,0.8010629888888889,0.19236217555555557,-5.391988844444445,2.528795533333333,4.636212511111111
945,1715673295620,4.4955674000000005,0.69707729,0.045856334400000004,-5.69204236,2.4347868,4.74052834
946,1715673295630,5.1314824,0.8248591340000001,-0.0710041432,-4.82843142,1.72732836,5.2789144299999995
947,1715673295640,5.6603181199999995,1.3292483320000001,-0.047295442,-2.85556595,0.575832109,6.01433502
948,1715673295650,6.181688444444444,1.9872229444444445,-0.002777938333333332,-1.8448130666666667,0.12907921444444445,6.160457388888889
949,1715673295660,7.048155199999999,3.2176266500000006,-0.03704484,-0.1350623,-0.5085453280000001,5.8029449
950,1715673295670,7.654824790000001,4.13380811,-0.174315051,1.562914,-1.34320105,2.9437137489999996
951,1715673295680,7.479705,3.9268146,-0.12189734999999999,1.7792976999999999,-1.8316795,-0.03848451
952,1715673295690,6.992920379999999,3.3874842700000003,0.10049366500000001,1.29466777,-1.5390597099999999,-1.926012381
953,1715673295700,5.90193,2.4844131,0.3211163,0.61126232,-0.98547832,-3.07158322
954,1715673295710,5.2336593,2.0018241,0.32270175,-0.15102115,-0.266810659,-3.7812405900000003
955,1715673295720,4.61936838888889,1.673193777777778,0.24662685444444443,-0.7612229333333334,0.43155934111111116,-4.240796055555555
956,1715673295730,3.99224505,1.3842271099999999,0.11570187300000001,-0.937601785,0.71112353,-4.51505764
957,1715673295740,3.4749709600000003,1.1558845400000002,0.009537141600000002,-0.876469468,0.670943852,-4.73371688
958,1715673295750,3.0408482,0.9534566555555555,0.02190507066666667,-0.5188791177777777,0.21059578666666667,-4.907114155555555
959,1715673295760,2.728147,0.77967966,0.18946227,-0.258701428,-0.11010845999999999,-5.023832
960,1715673295770,2.60094454,0.698193178,0.34278827500000003,0.1827097932,-0.610147454,-5.3053035799999995
961,1715673295780,2.481262666666667,0.5937135,0.5376126733333334,0.39334631999999997,-0.7454082999999999,-5.5891118
962,1715673295790,2.4150372200000003,0.443684425,0.729548667,0.507461058,-0.610834697,-5.9898701
963,1715673295800,2.3993350500000004,0.31310362999999997,0.830524093,0.516624,-0.312289591,-6.27216587
964,1715673295810,2.414775,0.19446257,0.86797744,0.5160284,0.13469578,-6.5634418
965,1715673295820,2.519621,-0.0010900022500000004,0.85074323,0.5503704875,0.45713717375,-6.779916975
966,1715673295830,2.59273659,-0.14500236119999999,0.8351768079999999,0.6096435400000001,0.659459566,-6.956960959999999
967,1715673295840,2.69970012,-0.321427272,0.8262677469999999,0.67381494,0.82566074,-7.13368442
968,1715673295850,2.7816188333333334,-0.40197466,0.8217688477777778,0.6925684599999999,0.9368127533333332,-7.281615566666667
969,1715673295860,2.9453791,-0.4821135200000001,0.8002418280000001,0.7299076,1.013043665,-7.4877573
970,1715673295870,3.07801496,-0.530915161,0.781746832,0.809839352,1.01661725,-7.7585691
971,1715673295880,3.3051866600000004,-0.6709659809999999,0.761257839,0.9867612300000002,0.9043707380000001,-8.2526669
972,1715673295890,3.46963537,-0.797570922,0.805693333,1.06217252,0.8181929099999999,-8.5601009
973,1715673295900,3.5763469666666663,-0.9003777066666666,0.85185862,1.0840143222222223,0.7968906755555555,-8.714264777777778
974,1715673295910,3.74063899,-1.08895989,0.940810982,1.07932251,0.86600838,-8.980757500000001
975,1715673295920,3.84272408,-1.1897889799999999,1.0079978,1.10630752,1.0640051199999998,-9.115514000000001
976,1715673295930,3.9648044,-1.3842272,0.9891431,1.2528846,1.4865406,-9.380446
977,1715673295940,4.0195026,-1.6087524,0.8322436,1.3701198222222222,1.6516439222222223,-9.522981555555555
978,1715673295950,4.0186794599999995,-1.74584589,0.66633769,1.47096351,1.6645008999999997,-9.620470399999999
979,1715673295960,3.9792565600000005,-1.8426686,0.562142556,1.5179085,1.4032491,-9.7008756
980,1715673295970,3.899488866666667,-2.0038702555555554,0.44871861444444444,1.399950388888889,1.0329901144444444,-9.742350666666667
981,1715673295980,3.7987702,-2.10073226,0.40513339000000004,1.2484559,0.79336125,-9.732916
982,1715673295990,3.62476632,-2.16437631,0.3887117,1.1321777,0.835144416,-9.759214
983,1715673296000,3.296412,-2.2784257,0.19062088,1.0161743,1.0178542,-9.824698
984,1715673296010,2.9667402,-2.3320994500000003,0.02059876303,0.9901514520000001,1.0537730799999998,-9.7750956
985,1715673296020,2.5462339999999997,-2.3092323200000004,-0.21069522066,0.949559464,1.02289378,-9.6193412
986,1715673296030,2.1128305999999997,-2.26831532,-0.484101416,0.8624959000000001,0.9421374199999999,-9.5022833
987,1715673296040,1.5997207555555555,-2.223368222222222,-0.7157531111111112,0.5216789133333334,0.7588473333333333,-9.262448
988,1715673296050,1.32584568,-2.19273776,-0.80869348,-0.008857548000000003,0.66120052,-8.9814908
989,1715673296060,0.71508441,-2.09529912,-0.9527629299999999,-0.865870904,0.7135516799999999,-8.6214468
990,1715673296070,0.204639998,-2.0693341,-0.99849733,-1.73841553,0.9889754999999999,-8.226904000000001
991,1715673296080,-0.2856874,-2.113294,-1.0932955,-2.144747855555556,1.3227777555555555,-7.7624852
992,1715673296090,-0.75903817,-2.2031347,-1.21315615,-1.91984249,1.38568672,-6.64567936
993,1715673296100,-1.1280780099999999,-2.1419909,-1.24886555,-1.52502505,1.2082609100000001,-5.6002598
994,1715673296110,-1.4971198666666665,-2.092744,-1.3210730333333334,-1.1684324666666666,1.0618874333333332,-4.792899666666667
995,1715673296120,-1.9738143888888888,-2.1291282222222225,-1.469665688888889,-0.8827172244444443,0.8017097222222223,-3.690355777777778
996,1715673296130,-2.280343022222222,-2.2015376444444446,-1.5365462777777779,-0.907609991111111,0.5066618044444444,-2.7958454222222224
997,1715673296140,-2.440203322222222,-2.2019848444444445,-1.4961645333333333,-1.0426451333333333,0.34763324,-2.2367341333333335
998,1715673296150,-2.61270729,-2.20076863,-1.35046299,-1.22771696,0.296116928,-1.7373007999999999
999,1715673296160,-2.6833881600000002,-2.22986176,-1.2244373,-1.23129051,0.318642586,-1.2367425
1000,1715673296170,-2.69786482,-2.2761572,-1.0221206500000002,-0.8012414190000001,0.302317213,-0.5142416428
1001,1715673296180,-2.605579,-2.4116042,-0.9554215999999999,-0.29840767,0.22876902999999998,0.007788531999999999
1002,1715673296190,-2.534233,-2.5514295,-0.9100531000000001,0.050701816,0.12873985,0.4288274
1003,1715673296200,-2.4451609000000003,-2.7682653299999997,-0.85731229,0.3211929496,0.065790187,0.8975137400000002
1004,1715673296210,-2.2764472000000002,-2.9680864666666666,-0.7825592222222222,0.6200282,-0.022449298,1.5554156
1005,1715673296220,-2.12109317,-3.0672704299999998,-0.711876877,0.9152593760000001,-0.0805883998,2.1612716599999997
1006,1715673296230,-2.0310818900000003,-3.00413863,-0.664642427,1.236375942,-0.118477313,2.75550616
1007,1715673296240,-1.8733681444444445,-2.873128388888889,-0.6111468044444445,1.7620238555555556,-0.10601905888888889,3.6851804222222224
1008,1715673296250,-1.72108828,-2.8026026,-0.5902661499999999,1.9424903800000002,-0.058795780199999995,4.0625288
1009,1715673296260,-1.39498995,-2.71860375,-0.527286845,2.10313265,0.12202034149999999,4.7319149000000005
1010,1715673296270,-0.9272492,-2.65963685,-0.46243552,2.12148918,0.415220401,5.43883876
1011,1715673296280,-0.34320431333333334,-2.6276532222222224,-0.5021634722222222,1.6927075555555555,1.0017171999999999,6.609171777777778
1012,1715673296290,0.05632035399999998,-2.60250538,-0.51163961,1.32441696,1.1466550999999998,7.263279200000001
1013,1715673296300,0.658636,-2.5729551,-0.4681371,0.7866417,1.190729,8.160243
1014,1715673296310,1.0534286888888889,-2.562947666666667,-0.41425860555555555,0.4616613955555555,1.0702867666666664,8.796900777777777
1015,1715673296320,1.6351869,-2.58379701,-0.286413053,0.161955653,0.8951313859999999,9.4645321
1016,1715673296330,2.09742108,-2.61222557,-0.157405527,-0.054672438000000004,0.7532884639999999,9.9667548
1017,1715673296340,2.706722966666667,-2.6046099555555555,0.07816851333333334,-0.49933143666666663,0.6060461933333333,10.708468
1018,1715673296350,2.97211856,-2.5799371399999997,0.198999412,-0.717140541,0.5842162500000001,10.9845792
1019,1715673296360,3.5759891699999997,-2.34209408,0.51922543,-1.61917473,0.8606632949999999,11.3320088
1020,1715673296370,3.85403575,-2.1345453500000002,0.6147615,-2.37496775,1.097877525,11.215486
1021,1715673296380,3.9849140888888885,-1.801175577777778,0.6252058788888889,-3.3740124555555555,1.1374480222222223,10.516639277777777
1022,1715673296390,3.82729663,-1.5918672900000002,0.614261443,-3.487277,0.5664248,9.589057
1023,1715673296400,3.67884896,-1.5669572999999999,0.60654754,-2.81874611,-0.21316143699999998,9.032680599999999
1024,1715673296410,3.4876425000000006,-1.5582616,0.6257682,-1.8026938300000002,-1.117165613,8.687999999999999
1025,1715673296420,3.4255047,-1.4897211,0.7093097,-0.9822713,-1.7310394,8.529817
1026,1715673296430,3.3491648999999994,-1.40136225,0.81583424,-0.533163188,-1.87996836,8.4078882
1027,1715673296440,3.2546410000000003,-1.3189183,0.83120704,-0.39568797,-1.6381878999999997,8.22133
1028,1715673296450,3.1841221555555554,-1.2860709222222222,0.7882235022222221,-0.6768387,-1.3151928,8.140085
1029,1715673296460,3.1161086,-1.26422006,0.736823504,-0.9491624399999999,-1.10517738,8.100959
1030,1715673296470,3.0356039000000004,-1.2254068,0.66464245,-1.32220258,-0.85930415,8.0209202
1031,1715673296480,2.9494038,-1.1595798,0.5558738599999999,-1.6485726,-0.7153232,7.826711
1032,1715673296490,2.8939493,-1.1135406,0.42685416,-1.6287194,-0.7654142,7.6197805
