id,timestamp,acc_x,acc_y,acc_z,gyro_x,gyro_y,gyro_z
0,1715673406670,1.2606087944444444,0.21545970933333336,0.07743676333333332,-1.536495808888889,-1.2529694166666667,3.012091665555556
1,1715673406680,2.8091884,0.014391083000000002,-0.19653587,-2.47930354,-2.63800622,5.75986346
2,1715673406690,3.39032614,-0.0341239417,-0.0438562187,-2.6622575299999998,-2.7858967,5.6748924
3,1715673406700,3.9487548000000006,0.1111345319,0.3014139161,-2.90820727,-2.85110666,6.00582858
4,1715673406710,4.4144242333333334,0.34810974333333333,0.7182532866666667,-3.1190100555555555,-2.865008977777778,6.432970744444445
5,1715673406720,4.6597963,0.5590814,1.085002368,-3.2234899599999998,-2.80133625,6.726282790000001
6,1715673406730,4.9992551800000005,0.93463988,1.61103304,-3.15252282,-2.2107519,7.24043298
7,1715673406740,5.142454388888889,1.3668751666666665,1.8263464,-2.749232977777778,-1.396845211111111,7.448229111111112
8,1715673406750,5.1277503,1.7953852399999999,1.75410841,-2.2577427400000003,-0.81435976,7.29774745
9,1715673406760,4.8918586,2.2490031200000002,1.5260646100000002,-1.6392569300000002,-0.474367405,6.6488558
10,1715673406770,4.4593028,2.3887979400000003,1.3286628600000001,-0.8642216149999999,-0.353767335,5.5138988499999995
11,1715673406780,4.100788,2.376846,1.1867765,-0.48792863,-0.33429602,4.9753447
12,1715673406790,3.681617,2.3312335,1.100735,0.22052236,-0.42852196,4.3789873
13,1715673406800,3.180131288888889,2.257096388888889,1.0360563666666667,1.2039645244444444,-0.4700268577777778,3.961919277777778
14,1715673406810,2.584047,2.1955548,0.854635212,2.20226084,-0.377484166,3.5464698400000003
15,1715673406820,2.1049277799999997,2.2619489600000002,0.6457206,2.5437193000000002,-0.18142698,3.11526015
16,1715673406830,1.8040686999999997,2.30354905,0.47627778000000004,2.2984569,0.008170325,2.72560445
17,1715673406840,1.4738258333333334,2.325318588888889,0.27545644888888887,1.7478042444444446,0.18556728666666666,2.2724526444444444
18,1715673406850,1.168153568,2.3506126800000002,0.11987284999999999,1.03309532,0.24755313400000004,1.78714734
19,1715673406860,0.8839845050000001,2.3901394999999996,0.050887115000000004,0.29626964,0.175471036,1.27939616
20,1715673406870,0.6928859733333333,2.3944284000000002,0.07957781,-0.24118995666666665,0.04693481133333333,0.79926625
21,1715673406880,0.448666437,2.3474053,0.161070371,-0.6295729889999999,-0.056382861400000005,0.186374981
22,1715673406890,0.27446723,2.272023,0.23226966,-0.742354,-0.06108652400000001,-0.27137688
23,1715673406900,0.073004259,2.1747245,0.264552033,-0.519693596,0.08674286319999999,-0.9342267919999999
24,1715673406910,-0.11354321166666666,2.078000688888889,0.26641799777777775,-0.2186727777777778,0.21707774777777777,-1.4155105888888888
25,1715673406920,-0.241940942,2.01656894,0.2107562,0.24037547000000004,0.27320947999999995,-1.9291888
26,1715673406930,-0.321030912,1.9895429400000002,0.176315154,0.414869124,0.298957448,-2.3811833
27,1715673406940,-0.36550911999999997,1.9296552999999999,0.14110578999999998,0.23510676,0.32734741,-2.97124865
28,1715673406950,-0.38269848444444443,1.8618837,0.14872819444444443,-0.1431800311111111,0.33763880222222226,-3.489075722222222
29,1715673406960,-0.359685634,1.7068373600000002,0.212658748,-0.49556443899999997,0.388342316,-3.9348122500000002
30,1715673406970,-0.293358582,1.56580482,0.263320247,-0.73451965,0.504895391,-4.27900423
31,1715673406980,-0.17797785777777778,1.4623819777777778,0.31773534555555555,-0.7842322077777778,0.6618555466666667,-4.508219266666667
32,1715673406990,-0.09531044,1.4083139,0.34837398,-0.60246587,0.8608618399999999,-4.689307
33,1715673407000,0.08987109600000001,1.32079662,0.34091014,-0.30754011,0.9967182080000001,-4.81441204
34,1715673407010,0.588058696,1.2244983,0.377461058,0.5912411759999999,1.3292580200000002,-5.12740421
35,1715673407020,0.7160241666666667,1.2328836333333333,0.36756211111111114,1.0428487555555557,1.4879998222222222,-5.294385855555555
36,1715673407030,1.1165895799999999,1.31213758,0.22561072000000001,1.66295848,1.5125634399999999,-5.68932402
37,1715673407040,1.43398615,1.38572115,0.156320105,1.8502344999999998,1.2502120499999998,-6.1175863
38,1715673407050,1.657664422222222,1.4541160222222222,0.20710558555555558,1.6956091777777778,0.9822373222222223,-6.521207066666666
39,1715673407060,1.91657525,1.4931054,0.410969095,1.29133856,0.8984911199999999,-6.90027264
40,1715673407070,2.15532095,1.50619151,0.595034712,0.819720104,1.04835162,-7.1480397
41,1715673407080,2.3364778,1.5274062,0.7183956,0.48747048,1.2460123,-7.238906
42,1715673407090,2.427025,1.5727746444444444,0.7711087111111111,0.32939211999999995,1.421262788888889,-7.238906
43,1715673407100,2.78492476,1.9456012900000001,0.9124068700000001,0.0474031437,2.05224762,-7.22681063
44,1715673407110,3.17264242,2.31817177,1.06153148,0.5632483063,2.3777165699999996,-7.49169735
45,1715673407120,3.4670789777777777,2.5166508888888885,1.1770944666666667,0.8978361388888888,2.489903722222222,-7.639633777777778
46,1715673407130,3.6704277,2.6198175,1.2841298,1.14544865,2.6038132000000003,-7.74882585
47,1715673407140,3.7663357900000003,2.60102368,1.3124545900000002,1.2998754399999999,2.7362182400000004,-7.79951241
48,1715673407150,3.8469013500000004,2.40861605,1.2827273,1.59267845,2.88809455,-7.7441677
49,1715673407160,3.7736043500000003,2.13853935,1.2070522000000001,1.87795245,2.85121345,-7.460496999999999
50,1715673407170,3.549190777777778,1.8136763333333334,1.0872043555555555,2.167740111111111,2.700872755555556,-7.0305328
51,1715673407180,3.356903,1.618814,1.0060343,2.3150265,2.5618162,-6.7486863
52,1715673407190,3.07300256,1.3651406339999999,0.97280067,2.30476407,2.36783572,-6.1547573700000004
53,1715673407200,2.5160004,0.84281336,0.9001135,2.1045834333333335,2.3347778333333333,-5.294929033333334
54,1715673407210,2.18972534,0.5437268319999999,0.79129015,1.91765871,2.4105353500000004,-4.5094073
55,1715673407220,1.83782065,0.04308179000000001,0.569728375,1.8157053600000002,2.44648464,-3.5712099000000004
56,1715673407230,1.6039228,-0.308139924,0.43192763999999995,1.78302408,2.3554047,-2.7308731600000002
57,1715673407240,1.2609542555555557,-0.6455525755555556,0.27879676222222227,1.7381322444444445,2.190528811111111,-2.049096555555556
58,1715673407250,1.0395667020000001,-0.9050528090000001,0.167363426,1.67042629,2.0015915499999997,-1.66691382
59,1715673407260,0.87607546,-1.2721352199999998,0.11917768799999999,1.53904448,1.66717342,-1.1373395
60,1715673407270,0.7943756200000001,-1.5148445,0.15711283,1.47768305,1.46370945,-0.5403866799999999
61,1715673407280,0.7242902444444445,-1.6388693,0.1196546798,1.5314391444444444,1.4640742444444443,-0.26601484666666664
62,1715673407290,0.604364494,-1.8531751,-0.016494864310000003,1.6447546,1.4869987,0.0926988
63,1715673407300,0.55716664,-1.9746274,-0.13586158,1.6826283,1.4501941,0.5375614
64,1715673407310,0.5319212711111112,-2.031859788888889,-0.20758663333333333,1.4365684222222221,1.3264938777777777,1.0234029222222223
65,1715673407320,0.50996876,-2.0876217,-0.2651374,1.0774136,1.1829406,1.505172
66,1715673407330,0.5194815239999999,-2.07630408,-0.274613582,0.31581733359999997,1.017823636,2.16518136
67,1715673407340,0.543487,-1.9942559777777775,-0.29569476333333333,-0.2699176088888888,0.9229834488888888,2.6485760555555555
68,1715673407350,0.605584125,-1.89684855,-0.344745725,-0.79519385,0.75984001,3.1225904499999997
69,1715673407360,0.6819056440000001,-1.8265334199999999,-0.389339788,-1.14085194,0.54565538,3.46907314
70,1715673407370,0.7577271444444444,-1.7428794333333333,-0.43327729777777774,-1.4085534333333334,0.2829324266666667,3.761199
71,1715673407380,0.8154744199999999,-1.66014564,-0.463087962,-1.67835222,-0.10189232399999999,4.03562012
72,1715673407390,0.9091323299999999,-1.53426034,-0.479393797,-1.84275135,-0.41015019500000005,4.16061862
73,1715673407400,0.9793254000000001,-1.4247172,-0.456673,-1.9946277,-0.8028296000000001,4.342183
74,1715673407410,1.0519990444444443,-1.270033488888889,-0.41225306666666667,-2.1155112555555555,-1.224835688888889,4.555816
75,1715673407420,1.10522307,-1.14403626,-0.354734122,-2.2105687,-1.5088371,4.712062
76,1715673407430,1.1473414,-1.03408466,-0.337379444,-2.31210973,-1.67682507,4.873895200000001
77,1715673407440,1.1764406,-0.875660875,-0.36959474999999997,-2.4331527,-1.8458820499999997,5.0637677000000005
78,1715673407450,1.2053210333333333,-0.7617314388888888,-0.40688011777777777,-2.490310977777778,-1.958264233333333,5.136901666666667
79,1715673407460,1.27051318,-0.63829336,-0.4705640320000001,-2.54681934,-2.1284377599999997,5.15182364
80,1715673407470,1.34738964,-0.541873103,-0.533378663,-2.59926204,-2.31588184,5.1302602
81,1715673407480,1.4824158,-0.41792683,-0.59260776,-2.64803972,-2.55378324,5.05939962
82,1715673407490,1.5796653,-0.33886123,-0.60991365,-2.7107146,-2.9003882,4.9435797
83,1715673407500,1.7972390555555553,-0.20673294222222222,-0.4969124666666667,-2.748350511111111,-3.2678575555555556,4.889857611111111
84,1715673407510,2.10751926,-0.058600980999999996,-0.33819656,-2.7410591799999997,-3.48028251,5.038523629999999
85,1715673407520,2.4749615,0.132751645,-0.22123243,-2.72085488,-3.56641452,5.2890242
86,1715673407530,2.611433,0.20245083,-0.17226616,-2.8183456333333337,-3.666311311111111,5.465818777777778
87,1715673407540,3.21823666,0.41191427599999997,0.10261573959999999,-2.96266586,-3.7477804,5.5158078
88,1715673407550,3.6997158,0.609145288,0.41186548399999995,-3.1467196,-3.78996075,5.609499250000001
89,1715673407560,4.1209923,0.8620218799999999,0.69857734,-3.1710015666666664,-3.7314195333333333,5.705888766666667
90,1715673407570,4.3823895,1.0548787,0.8609039,-3.09074907,-3.65021003,5.79135377
91,1715673407580,4.787364739999999,1.4211804799999999,1.25464644,-2.8550925200000004,-3.53495504,5.8253334
92,1715673407590,4.941826388888888,1.6279405999999998,1.5475360666666667,-2.4334326,-3.2280666,5.7396899999999995
93,1715673407600,4.8852926375,1.8520593125,1.804053375,-1.5668693,-2.5744152,5.403485
94,1715673407610,4.669804766666666,1.9153963111111112,1.8455345555555556,-0.8801041051111111,-2.1895786,5.137800977777778
95,1715673407620,4.25941922,1.91263594,1.76284672,0.1745547416,-1.79847888,4.78380804
96,1715673407630,3.59868552,1.9116602600000001,1.6115331000000002,1.4840971,-1.3616186000000001,4.3967028
97,1715673407640,3.2234468222222223,1.904982411111111,1.481251788888889,2.358839222222222,-0.9520843555555556,4.241576777777777
98,1715673407650,2.92271928,1.95722394,1.2984294200000002,2.9641931999999995,-0.42207735279999997,4.2513776
99,1715673407660,2.72325644,2.06469362,1.0657572800000001,3.2783306199999998,0.14065172239999998,4.26423644
100,1715673407670,2.415804866666667,2.2458288777777775,0.5865586022222222,3.406252388888889,0.9048441311111112,4.018763488888889
101,1715673407680,2.0649986,2.36317442,0.11362858400000002,3.2675793399999997,1.3276850199999999,3.5250895200000003
102,1715673407690,1.82860056,2.39029187,-0.136093304,3.00237206,1.39291016,3.10705921
103,1715673407700,1.411119,2.362577,-0.47899136000000003,2.2681427,1.1508701,2.3817637
104,1715673407710,1.07233699,2.27655971,-0.40206006,1.0889589560000001,0.71851496,1.7341700500000001
105,1715673407720,0.7556538444444444,2.126804488888889,-0.24212118666666665,0.05019277111111112,0.568257411111111,1.2372566
106,1715673407730,0.4243235449999999,1.9254782,-0.17086362000000002,-0.89940742,0.7073208799999999,0.72973964
107,1715673407740,0.20817678109999999,1.8369973599999998,-0.20656692699999998,-1.34811846,0.805120404,0.36251797199999997
108,1715673407750,0.002513695444444445,1.7734503444444445,-0.2977816188888889,-1.4719985333333332,0.7670431133333334,0.11788001888888888
109,1715673407760,-0.144727953,1.7550109500000002,-0.36128327800000004,-1.3602442,0.47027462,-0.20857992899999997
110,1715673407770,-0.251563456,1.7644689,-0.352337636,-1.19378344,0.177853412,-0.519540884
111,1715673407780,-0.33035464600000003,1.78250047,-0.275564878,-1.00362109,-0.120829151,-0.9384264999999999
112,1715673407790,-0.38660794,1.7963854,-0.19708468,-0.9305005000000001,-0.24480425,-1.2392929
113,1715673407800,-0.49216285099999996,1.76796288,-0.05996691609999999,-0.9729708950000001,-0.316641999,-1.96567269
114,1715673407810,-0.522530465,1.6808298000000002,0.0777484375,-1.2835806,-0.314977395,-2.5889996500000003
115,1715673407820,-0.498992515,1.6200946000000003,0.21888472500000003,-1.48898405,-0.24839308499999996,-2.9349785
116,1715673407830,-0.41546462,1.585627788888889,0.4088382277777778,-1.5582324222222221,-0.06456506666666667,-3.2319353333333334
117,1715673407840,-0.30659106,1.58571446,0.55841063,-1.4465594400000001,0.19196439999999998,-3.4345593200000004
118,1715673407850,-0.1098844613,1.6229299999999998,0.6940039,-1.08512575,0.60269493,-3.6754234000000006
119,1715673407860,0.06298538317999999,1.6502120900000001,0.7294389210000001,-0.71837753,0.8685129619999999,-3.8627298600000004
120,1715673407870,0.30914405333333334,1.6573934333333333,0.67184818,-0.058897599999999994,1.1379401666666666,-4.203007133333333
121,1715673407880,0.539763192,1.6764637399999998,0.61018194,0.6416834,1.2840387400000002,-4.66435296
122,1715673407890,0.749848616,1.70598378,0.5958701100000001,0.8546921319999999,1.3265244,-4.96297462
123,1715673407900,1.07298944,1.69357438,0.62053622,0.8243779069999999,1.40187464,-5.3161006
124,1715673407910,1.314819311111111,1.6665674555555556,0.6773295177777778,0.47678033000000003,1.589624,-5.5914025
125,1715673407920,1.63404652,1.69150102,0.793070676,-0.13417654799999998,2.1375702,-5.87255304
126,1715673407930,1.90881872,1.73372302,0.85570848,-0.273789796,2.60854734,-6.08348476
127,1715673407940,2.19114016,1.80442234,0.8764779920000001,-0.0467311875,3.01416185,-6.349486000000001
128,1715673407950,2.4807613,1.9004496222222222,0.90938913,0.3723393383333333,3.2074498222222223,-6.66605
129,1715673407960,2.7380256000000003,2.00422666,0.976349678,0.818727421,3.3174717300000003,-7.0081972
130,1715673407970,2.9185423999999998,2.08570703,1.03619463,1.14549451,3.3807115100000003,-7.274427399999999
131,1715673407980,3.3261940799999996,2.3099519600000002,1.1566284599999999,1.251052,3.4620787999999996,-7.572132999999999
132,1715673407990,3.5487844666666666,2.4644731333333336,1.2726758333333335,0.9746015555555556,3.5409652888888887,-7.757581211111112
133,1715673408000,3.77102504,2.52093976,1.4217658199999998,0.6854824340000001,3.66054896,-7.8608582
134,1715673408010,3.90253874,2.37971191,1.49768487,0.579084969,3.89142531,-7.893356299999999
135,1715673408020,3.93014412,2.13889298,1.50331938,0.9768040599999999,4.00953604,-7.694000560000001
136,1715673408030,3.855218155555556,1.7107705888888889,1.3593815222222223,2.1704890555555556,3.7316059333333333,-7.068881733333333
137,1715673408040,3.7717375222222222,1.4786703333333333,1.243710811111111,3.144700277777778,3.368276955555556,-6.509346088888888
138,1715673408050,3.6296570699999995,1.27741595,1.0973749700000002,4.1703006,2.82016628,-5.7985162
139,1715673408060,3.47810547,1.0919417,0.9852525679999999,4.446885280000001,2.4448659600000004,-5.32645475
140,1715673408070,3.28955161,0.8911373300000001,0.8927289139999999,4.162344,2.2837808799999997,-5.0111414
141,1715673408080,2.832997277777778,0.4420243873333333,0.6623895444444444,3.5900719777777774,2.3057448555555555,-4.765054555555555
142,1715673408090,2.4053843,-0.045917314,0.3919131,2.787531,2.4501805,-4.426635
143,1715673408100,2.25527798,-0.2231959604,0.27573559200000003,2.34343188,2.37311986,-4.07932756
144,1715673408110,1.2939237222222222,-1.1121719888888888,0.011802856666666662,1.176305871111111,2.0011098,-3.0570412222222223
145,1715673408120,1.067342808,-1.28553849,0.164997435,0.45552219699999996,1.66524924,-2.1682662600000002
146,1715673408130,0.769593704,-1.52533296,0.37932701399999996,0.009239338,1.8180112999999998,-1.2497539500000001
147,1715673408140,0.6424399199999999,-1.63785168,0.342251678,0.011667527600000002,2.11334936,-0.5394856188
148,1715673408150,0.52458344,-1.747297,0.15811899000000001,0.3650428722222222,2.3744501555555555,0.36477140166666666
149,1715673408160,0.476466832,-1.8083494000000002,-0.058527806,0.80334886,2.3289847999999997,1.13141406
150,1715673408170,0.49257753,-1.8006050999999998,-0.13732508400000001,1.0742981600000001,2.16252406,1.6937154800000003
151,1715673408180,0.56594765,-1.7340647,-0.18513274,1.1882856,1.9746219,2.1418462
152,1715673408190,0.612407695,-1.66663389,-0.206792542,1.0847439509999999,1.7914997700000002,2.33069524
153,1715673408200,0.639622676,-1.59734932,-0.22940361999999997,0.67082169,1.6015970400000001,2.41258176
154,1715673408210,0.6229157311111111,-1.5910616222222222,-0.2645479522222222,0.18356501,1.5131301666666668,2.4229290555555556
155,1715673408220,0.61338948,-1.6378881800000002,-0.38455902399999997,-0.49990157600000007,1.3852285,2.5592810399999997
156,1715673408230,0.6053402200000001,-1.6740732399999998,-0.496919258,-0.962662544,1.16409532,2.7734199
157,1715673408240,0.6051437333333333,-1.6638233777777778,-0.585074811111111,-1.245520311111111,0.9100534666666668,2.9889805555555555
158,1715673408250,0.621255765,-1.5946357,-0.6282379,-1.62795588,0.391686788,3.4454632000000003
159,1715673408260,0.6641363180000001,-1.47961068,-0.6300001799999999,-1.9074267800000002,-0.09526443,3.87099206
160,1715673408270,0.7213971555555556,-1.3718415111111113,-0.6012681222222223,-2.0854770555555557,-0.4435051266666667,4.161943866666666
161,1715673408280,0.8188587999999999,-1.23457815,-0.4951386319999999,-2.3147212,-0.8614421999999999,4.5115758
162,1715673408290,0.8740143999999999,-1.1543967,-0.43905002,-2.4161248,-1.0274754,4.674799
163,1715673408300,0.9780922755555554,-0.9819204444444445,-0.41828322444444443,-2.6241244444444445,-1.2444513,4.805235688888889
164,1715673408310,1.1062230999999998,-0.7971806499999999,-0.41444491,-2.83601825,-1.6122261500000001,4.86073115
165,1715673408320,1.1567138399999999,-0.73751864,-0.409840964,-2.89574556,-1.7961576999999997,4.828462159999999
166,1715673408330,1.19977728,-0.67924694,-0.40587733000000004,-2.93181712,-2.04493252,4.7331061199999995
167,1715673408340,1.2458450666666667,-0.6407893933333333,-0.4465572322222222,-2.849720311111111,-2.364828977777778,4.635957988888888
168,1715673408350,1.28936794,-0.620792282,-0.49591918,-2.75723188,-2.57476646,4.641293
169,1715673408360,1.4088199700000001,-0.5453366839999999,-0.5406717719999999,-2.6001172500000003,-2.9692479900000004,4.716139459999999
170,1715673408370,1.6239118399999999,-0.40260885,-0.4973217119999999,-2.4899936400000002,-3.3991137399999998,4.815130269999999
171,1715673408380,1.8847102111111111,-0.29825588,-0.38910807000000003,-2.508263611111111,-3.814038877777778,4.882917555555555
172,1715673408390,2.0307891,-0.26495448,-0.32751912,-2.567314,-3.9840631,4.90311
173,1715673408400,2.425995,-0.2503805,-0.1343371,-2.765998,-4.1358633,4.983744
174,1715673408410,3.0082364,-0.1559847172,0.10316456249999999,-3.04600331,-4.22220907,5.198890860000001
175,1715673408420,3.6394989000000004,0.022574486199999997,0.34156871,-3.2805143099999996,-4.3111052999999995,5.52087802
176,1715673408430,4.220978,0.37203389333333337,0.5769035566666667,-3.095118444444444,-4.5979996666666665,5.731239555555556
177,1715673408440,4.877937149999999,0.98679533,1.129578135,-2.5418867,-4.8588985000000005,5.635689999999999
178,1715673408450,5.13365315,1.3416026,1.61933225,-1.63727155,-4.6124908499999995,5.333159
179,1715673408460,5.248524333333333,1.6576847555555554,1.8623782555555555,-0.7075855166666666,-3.9967896333333335,5.138089433333334
180,1715673408470,5.180253479999999,2.08946332,1.8030076400000001,0.35081990999999996,-2.9556103800000004,5.07574034
181,1715673408480,4.9415567099999995,2.49880429,1.63730282,0.9916328099999999,-2.16140913,4.907462239999999
182,1715673408490,4.67810231,2.69844407,1.47800092,1.35740362,-1.5213445399999999,4.576144380000001
183,1715673408500,4.3484855,2.728025,1.3220284,1.5792394,-0.9398162,4.129449
184,1715673408510,3.61849767,2.63413532,0.97828264,1.7807485500000002,-0.193491567,3.55303652
185,1715673408520,3.26286726,2.5701681800000005,0.8019186700000001,1.7804889400000001,0.382875065,3.2874323599999995
186,1715673408530,2.65469154,2.5982492,0.521896288,1.38284615,0.99425955,3.2604932
187,1715673408540,2.3072483888888886,2.6165077777777777,0.3045096266666667,1.0420512377777778,1.3711549555555556,3.0648297777777778
188,1715673408550,1.8120264,2.5892364999999997,-0.02893462,0.657321536,1.60944668,2.71575428
189,1715673408560,1.43240064,2.53098912,-0.233452642,0.284479958,1.6006502,2.29521929
190,1715673408570,1.11809571,2.4521979600000003,-0.345135976,-0.10848966200000001,1.38220478,1.7608191000000002
191,1715673408580,0.8777071,2.3581119444444445,-0.39175048888888886,-0.35827246,1.2005538,1.3846448333333334
192,1715673408590,0.642135014,2.23947195,-0.41615842000000003,-0.69284336,0.978209126,0.887434504
193,1715673408600,0.31182714,1.9617269888888889,-0.5284658111111111,-1.108550688888889,0.6767538633333334,0.35937541
194,1715673408610,0.018476686,1.77273766,-0.6100356,-1.40497482,0.276065285,0.0576962235
195,1715673408620,-0.320018665,1.6571089,-0.51496907,-1.6878207,-0.4620432099999999,-0.265420945
196,1715673408630,-0.448428594,1.62697302,-0.429317726,-1.78003082,-0.715934088,-0.41251730000000003
197,1715673408640,-0.6022370322222222,1.6361252555555554,-0.2990960477777778,-1.8897624777777777,-0.9253590311111112,-0.6816238111111111
198,1715673408650,-0.69766265,1.665768,-0.20324357,-2.0005836,-1.023352,-0.947452
199,1715673408660,-0.703736194,1.6563527999999998,-0.014695980800000003,-2.25601688,-1.04230412,-1.4303562600000002
200,1715673408670,-0.6915464530000001,1.62529001,0.136416495,-2.49020732,-1.0303770049999998,-1.87886886
201,1715673408680,-0.64802563,1.5666767,0.3170307,-2.6525297,-0.9382890500000001,-2.2898283
202,1715673408690,-0.591808929,1.52972946,0.48093049,-2.65877576,-0.76219185,-2.58377674
203,1715673408700,-0.49076036,1.46963448,0.677673665,-2.39097251,-0.27210992,-3.00878626
204,1715673408710,-0.35081315,1.3859955,0.80510795,-2.0115793,0.1591304,-3.2253685
205,1715673408720,-0.1457402085,1.41417398,0.8295240229999999,-1.08168965,0.669080713,-3.38488076
206,1715673408730,0.1139395745,1.448987,0.830505775,-0.085673835,1.106658775,-3.58554995
207,1715673408740,0.39365101,1.47371405,0.797272125,0.616592115,1.3406965000000002,-3.8222602500000002
208,1715673408750,0.6548349466666666,1.5086449666666666,0.757219,1.0867292666666666,1.5162184333333333,-4.078136533333333
209,1715673408760,0.982862224,1.5645913,0.6868327599999999,1.30749596,1.6797877800000003,-4.4806356
210,1715673408770,1.2261203600000001,1.57950686,0.6266707,1.144058968,1.7966157600000003,-4.9445877
211,1715673408780,1.43942552,1.5385898,0.619853234,0.751730766,1.93494624,-5.4293704
212,1715673408790,1.62505217,1.48026923,0.6500013320000001,0.410913792,2.09410713,-5.76954598
213,1715673408800,1.7032092,1.4452672,0.6721124,0.2611449,2.2093468,-5.9197426
214,1715673408810,1.9309052999999998,1.3782511,0.702541,0.16768251,2.5271494,-6.1472898
215,1715673408820,2.1790783300000003,1.51701537,0.7540318,0.494021984,2.73493536,-6.173251410000001
216,1715673408830,2.4128847,1.7176002499999998,0.7625444800000001,0.8468424999999999,2.8438526,-6.2654615399999996
217,1715673408840,2.6141091666666667,1.9456961444444447,0.7617246511111112,0.9936741666666666,2.7990863666666663,-6.4281858
218,1715673408850,2.81656682,2.1762244600000002,0.812340064,1.030880939,2.68290497,-6.73767548
219,1715673408860,2.9779725499999996,2.28842002,0.9143460400000001,0.717705573,2.64684868,-6.96415382
220,1715673408870,3.12524322,2.31786078,1.09189303,0.11522444800000002,2.78447654,-7.005036100000001
221,1715673408880,3.2121522000000002,2.3247630888888886,1.2297261777777777,-0.3182608,3.0068314,-6.887658
222,1715673408890,3.27724618,2.2548570299999997,1.28643485,-0.47616947,3.2559118,-6.676910000000001
223,1715673408900,3.3220839999999994,2.1091473,1.2772697,-0.10583240499999999,3.6812267,-6.2137213
224,1715673408910,3.2582022800000003,1.7456627999999998,0.9708127839999999,1.99670466,3.57521104,-5.29018462
225,1715673408920,3.2012538499999996,1.62432032,0.8515436279999999,3.367242,3.05432625,-4.7956738
226,1715673408930,3.047494811111111,1.4957715333333335,0.7663794222222222,4.0404494444444445,2.6511042666666667,-4.615205733333334
227,1715673408940,2.81214585,1.252756,0.7297987,4.202982,2.4152849,-4.6071457
228,1715673408950,2.5612268,0.9444046666666667,0.6809950333333333,3.9625301777777775,2.3938452666666667,-4.619889022222222
229,1715673408960,2.1953110875,0.44800630375,0.5464191,3.16038775,2.65016265,-4.49604465
230,1715673408970,1.81077635,-0.13500788,0.32300664,2.63893785,2.8555660499999997,-4.12418035
231,1715673408980,1.56928664,-0.47918649599999996,0.152899156,2.440712,2.9420798,-3.859294
232,1715673408990,1.2671877,-0.8449137888888889,-0.09475485222222221,2.3555641888888887,2.9550605777777776,-3.062284533333333
233,1715673409000,1.05190284,-1.0718063800000002,-0.283138474,2.35248782,2.7828273,-2.37660169
234,1715673409010,0.8008638400000001,-1.23676722,-0.418097566,2.13427157,2.2591171799999996,-1.27736506
235,1715673409020,0.72034692,-1.2210834,-0.34414202,1.7242435399999998,1.84168238,-0.4726417089
236,1715673409030,0.6928385111111112,-1.1919869555555556,-0.18327628666666668,1.1142860888888888,1.6620625111111111,0.21477004055555557
237,1715673409040,0.714163632,-1.1541405599999999,-0.127531832,0.65985662,1.6153415000000002,0.6066502760000001
238,1715673409050,0.7457996100000001,-1.09285646,-0.102871848,0.28496862999999995,1.54487825,0.8447502800000001
239,1715673409060,0.7549966322222222,-1.0536725555555555,-0.12418745777777779,0.073592295,1.3998825444444443,0.8670214166666667
240,1715673409070,0.72117016,-1.09841775,-0.16321074,0.0349720362,1.20129702,0.77262237
241,1715673409080,0.674484492,-1.18780712,-0.182998478,0.0601396828,0.957531272,0.68951414
242,1715673409090,0.615109055,-1.31877204,-0.193956438,0.11322387,0.6343835520000001,0.72164563
243,1715673409100,0.5861588666666667,-1.4108952777777777,-0.2035552311111111,0.12812899,0.42424592,0.82818055
244,1715673409110,0.56121566,-1.5385897199999998,-0.228903612,0.0662483392,0.08405505800000002,1.20120544
245,1715673409120,0.5495442500000001,-1.6100878,-0.269338895,-0.1740966,-0.28641944500000005,1.7024051
246,1715673409130,0.58052168,-1.6085085,-0.255472225,-0.526184065,-0.5474116099999999,2.1410064
247,1715673409140,0.6321845555555555,-1.5570284888888888,-0.21663188666666666,-0.9732780499999999,-0.7387736222222222,2.5838921555555556
248,1715673409150,0.691040287,-1.4803729300000001,-0.173729649,-1.43386875,-0.87135344,2.9801518600000003
249,1715673409160,0.77589892,-1.3593781,-0.12006797300000001,-2.0332649999999997,-0.9949467499999999,3.4366514
250,1715673409170,0.82910328,-1.2585186,-0.103878018,-2.4500278,-1.0777189999999999,3.74307675
251,1715673409180,0.8659164159999999,-1.16770232,-0.11409202599999999,-2.73860048,-1.17591556,3.97871818
252,1715673409190,0.8971661666666666,-1.0730707666666666,-0.14651261,-2.8817568,-1.3308717,4.1301619333333335
253,1715673409200,0.9249564149999999,-0.974416643,-0.18151059200000003,-2.91683586,-1.52248999,4.19129936
254,1715673409210,0.9560382288888888,-0.8359702077777779,-0.22101561555555554,-2.7683224666666666,-1.9070534,4.191892888888889
255,1715673409220,0.974361748,-0.739933404,-0.17543706600000003,-2.52586659,-2.2649814399999997,4.16213058
256,1715673409230,0.97570328,-0.6991871599999999,-0.143008346,-2.36508698,-2.40027278,4.18589312
257,1715673409240,1.0099437777777778,-0.6714619333333334,-0.16479281444444446,-2.1058222777777775,-2.5412332777777777,4.357573111111112
258,1715673409250,1.08247782,-0.632841808,-0.223476456,-1.9036394,-2.66462472,4.5854292999999995
259,1715673409260,1.20702168,-0.568728318,-0.279796824,-1.70067938,-2.86492746,4.8762622
260,1715673409270,1.38922746,-0.4980412739999999,-0.314664711,-1.63430887,-3.01634563,5.015951790000001
261,1715673409280,1.6669632,-0.43291550999999995,-0.308115528,-1.6154942399999999,-3.27049614,5.20402201
262,1715673409290,1.9429792,-0.40837747,-0.23684308,-1.655903,-3.4292448,5.335297
263,1715673409300,2.22959344,-0.351910785,-0.1236962425,-1.7925993599999999,-3.5233485200000003,5.5730151999999995
264,1715673409310,2.95906272,-0.152472314,0.15949710599999997,-2.09734476,-3.4776254,6.21207196
265,1715673409320,3.45917724,0.10027414399999998,0.32545801399999996,-2.26910472,-3.3016503800000003,6.83969032
266,1715673409330,4.400419222222222,0.9599950266666668,0.5867415422222222,-2.3130242777777776,-3.089417055555556,7.742988622222222
267,1715673409340,4.7689552,1.4982276300000001,0.746836232,-2.1413575000000002,-3.0157807,8.0579848
268,1715673409350,5.216463,2.41782395,1.07988002,-1.7442951199999999,-2.82674842,8.076158000000001
269,1715673409360,5.2712221999999995,2.87521656,1.22829116,-1.15930006,-2.3795339199999996,7.49488884
270,1715673409370,5.125122888888889,3.0545821333333336,1.2080651111111111,-0.5884159155555556,-1.8927319999999999,6.705128355555555
271,1715673409380,4.779535,3.0328965,1.04243883,0.188070133,-1.37663065,5.72160811
272,1715673409390,4.26601109,2.9661242100000003,0.8249810630000001,0.9589362720000001,-1.0425637,5.00875896
273,1715673409400,3.9887693,2.9175482,0.75809306,1.564426,-0.8903361000000001,4.640896
274,1715673409410,3.362594511111111,2.7079832444444443,0.6225295488888888,2.6032701,-0.46586959888888896,4.117520255555556
275,1715673409420,2.92476828,2.51965918,0.46679551799999996,3.1199943,0.048258354999999996,3.5787541
276,1715673409430,2.48596825,2.32178175,0.321573645,3.21137978,0.339732712,3.27671182
277,1715673409440,2.2848895,2.2573268,0.26830834,3.2284228999999995,0.56001073,3.0616567
278,1715673409450,1.9576751,2.1530523,0.079333894,3.2209396,0.9790643,2.706744
279,1715673409460,1.86783452,2.1314109,-0.006847959200000003,3.1846083999999997,1.04306768,2.6015529600000002
280,1715673409470,1.5051182600000002,2.0713038299999997,-0.344483505,2.88801812,1.12553443,2.12194727
281,1715673409480,0.9749775399999999,2.02790487,-0.724170311,1.7413018999999998,0.5939748039999999,1.124327996
282,1715673409490,0.6255039766666667,1.9438735999999999,-0.7237007933333333,0.8007425666666665,0.10644326666666666,0.5625050866666667
283,1715673409500,0.36074055400000005,1.8689748800000001,-0.54973942,-0.12545645000000002,-0.139475814,0.2455220158
284,1715673409510,0.060393762,1.76822518,-0.230123194,-1.3738665,-0.24474317599999998,-0.030024027199999997
285,1715673409520,-0.196230974,1.80182458,-0.0600400906,-2.65378192,-0.105924032,-0.22983805999999998
286,1715673409530,-0.3084055411111111,1.8786665000000002,0.015509033888888888,-3.173037711111111,-0.04245513155555555,-0.4238895844444444
287,1715673409540,-0.394803522,1.9799814000000002,0.10324992399999999,-3.50758816,0.0082466804,-0.710955524
288,1715673409550,-0.42385398399999996,2.0929880599999997,0.19537725199999997,-3.4924692399999997,0.066767572,-1.1566733599999999
289,1715673409560,-0.418347577,2.18828018,0.277497899,-3.18926632,0.122478481,-1.6614618499999998
290,1715673409570,-0.33382708,2.2118295555555556,0.3972792866666667,-2.3393085333333334,0.15892676666666666,-2.3430754333333335
291,1715673409580,-0.22269591919999998,2.18932286,0.48466243999999997,-0.876225096,0.252470608,-3.3153488600000003
292,1715673409590,-0.112201676,2.1478083,0.48905291999999995,-0.20919079299999996,0.338419357,-3.7318673799999997
293,1715673409600,0.07424213539999999,2.10020782,0.474997224,0.36404513299999997,0.46564730500000007,-4.23844288
294,1715673409610,0.3665051266666667,2.0740437,0.45443707333333333,0.5079853666666667,0.6185010333333333,-4.680958666666666
295,1715673409620,0.7286400700000001,2.078414,0.428683545,0.19738583925,0.88911435,-5.142722
296,1715673409630,1.07832515,2.11393435,0.3831626,-0.2578156746,1.1595749,-5.578360399999999
297,1715673409640,1.43081524,2.18283472,0.365338382,-0.511630178,1.3138795,-5.917146
298,1715673409650,1.8480685000000001,2.280573433333333,0.3887354155555556,-0.6392534933333334,1.4795495666666667,-6.4169015555555555
299,1715673409660,2.18496886,2.35244818,0.436751092,-0.586766594,1.59680168,-6.815851
300,1715673409670,2.5383864000000003,2.423623777777778,0.5035253111111112,-0.3624636766666667,1.7441899555555556,-7.344840111111111
301,1715673409680,2.8864123399999997,2.38825527,0.5842901599999999,-0.083902343,1.8910861,-7.7758871
302,1715673409690,3.13918927,2.2729985,0.62828053,0.23884832,2.0476509,-8.209571
303,1715673409700,3.2707640499999995,2.21864157,0.6601909460000001,0.38075231,2.1368981499999995,-8.416455500000001
304,1715673409710,3.4847223222222223,2.1675926333333333,0.7561823755555556,0.4298455,2.2788837777777777,-8.613708444444445
305,1715673409720,3.8052341400000005,2.0512658999999998,0.8701727399999999,0.42815544800000005,2.51997178,-8.7839668
306,1715673409730,4.0168807,1.8323630000000002,0.9056320750000001,0.6682865849999999,2.69452665,-8.8236425
307,1715673409740,4.060350285714286,1.5573817428571428,0.85278494,1.2764029428571428,2.723848142857143,-8.742942857142857
308,1715673409750,3.9204118222222224,1.2080582,0.7419538777777777,2.1027678888888888,2.568824044444445,-8.57951711111111
309,1715673409760,3.6172844000000004,0.838555,0.66546565,3.56006172,2.0085859800000003,-8.164580599999999
310,1715673409770,3.3097054,0.5508553199999999,0.6556784999999999,4.470953440000001,1.56659448,-7.6291268
311,1715673409780,3.1741486,0.43081784,0.6480866,4.814890922222222,1.3581910000000001,-7.164618077777778
312,1715673409790,2.73897674,0.1247084968,0.509438246,4.79541429,1.2009305199999998,-6.50947183
313,1715673409800,2.3139155199999997,-0.0772362136,0.40885312799999995,4.38457708,1.07808554,-5.754961300000001
314,1715673409810,1.80891044,-0.34617874400000004,0.34702024800000003,3.52179088,1.04986362,-4.868901340000001
315,1715673409820,1.5014969,-0.5422199988888888,0.3524799244444445,2.8265584111111113,1.1122329444444443,-4.2841166444444445
316,1715673409830,1.2430604,-0.75071454,0.37837574,2.1314616,1.271516,-3.6981783
317,1715673409840,0.947927245,-1.07121499,0.295248926,1.1767861099999999,1.79047661,-2.45833549
318,1715673409850,0.8256091480000001,-1.2659397399999999,0.1271049776,0.73190818,2.12874318,-1.318460972
319,1715673409860,0.7842835389999999,-1.3551948699999998,0.007335792799999999,0.5415473289999999,2.21432544,-0.34516939099999994
320,1715673409870,0.7952021911111111,-1.3723971222222222,-0.08589254777777777,0.31317024222222223,2.178481288888889,1.0053484666666668
321,1715673409880,0.838176917,-1.3356206499999999,-0.117598329,0.19914207,2.1320724,1.5060883
322,1715673409890,0.9220416199999999,-1.26408594,-0.187327992,-0.0138513697,1.96730683,2.00160682
323,1715673409900,0.959434048,-1.22520564,-0.277943032,-0.134390354,1.7599638800000001,2.0927326600000002
324,1715673409910,0.95523864,-1.2211078,-0.36331388,-0.22785273,1.4492778,2.0086777
325,1715673409920,0.8847345690000001,-1.3733362,-0.330952256,-0.465021151,0.712620111,1.74369957
326,1715673409930,0.8162061850000001,-1.57783595,-0.26681435000000003,-0.6572909960000001,0.363709168,1.7599944
327,1715673409940,0.787631344,-1.71070958,-0.21650044,-0.93437946,0.02565634,2.08766248
328,1715673409950,0.7657696377777777,-1.8270103555555555,-0.12186348611111113,-1.2841744222222222,-0.18548244000000003,2.6701429222222224
329,1715673409960,0.768154575,-1.8655967,-0.0878404925,-1.5957327,-0.22090413999999997,3.2555300000000003
330,1715673409970,0.8085227749999999,-1.8557180500000001,-0.12223274499999999,-1.8845956000000001,-0.22441662,3.8786888
331,1715673409980,0.8732582709999999,-1.8026416900000002,-0.195273598,-2.05411074,-0.305432628,4.40398703
332,1715673409990,0.9673735066666667,-1.7000246666666667,-0.2909790511111111,-2.1727969333333332,-0.49083022888888883,4.995333466666667
333,1715673410000,1.09324672,-1.52338164,-0.35117901199999996,-2.1632571,-0.7280291720000001,5.410617
334,1715673410010,1.2174003899999999,-1.32724819,-0.393864437,-2.09416834,-0.93938856,5.634529499999999
335,1715673410020,1.3596322,-1.1122193,-0.44268841999999997,-1.9047456777777778,-1.2591969333333333,5.7855214777777775
336,1715673410030,1.4444744999999999,-0.9654831500000001,-0.4270066,-1.6921730500000003,-1.5170838,5.7480127
337,1715673410040,1.4980447,-0.87730735,-0.424872335,-1.6492598,-1.6187165000000001,5.7270905
338,1715673410050,1.5746772,-0.803327382,-0.46592961199999994,-1.7749911600000001,-1.7080403199999998,5.8189189
339,1715673410060,1.6523321777777777,-0.7374616988888889,-0.49215607111111104,-1.9646444444444444,-1.789292177777778,5.9819997222222225
340,1715673410070,1.8089104200000001,-0.603632756,-0.472454384,-2.28219256,-1.9493320400000003,6.2781066
341,1715673410080,2.04961953,-0.429018938,-0.410420264,-2.6345090399999997,-2.16050816,6.641907399999999
342,1715673410090,2.3492223799999996,-0.247880316,-0.35431334999999997,-2.76960184,-2.3210741199999996,6.848868639999999
343,1715673410100,2.476181,-0.1589727,-0.3530694,-2.73725655,-2.43324431,6.87678509
344,1715673410110,2.8658988,0.10982348,-0.37239978,-2.5335636,-2.6642888,6.7115765
345,1715673410120,3.4757212500000003,0.16174724000000001,-0.17129048,-1.8786244799999998,-3.1433750799999998,6.21052941
346,1715673410130,3.7784928222222223,0.21188905555555557,-0.0017006422222222211,-1.5306925333333334,-3.2881010222222224,6.220423688888889
347,1715673410140,4.15586416,0.424207676,0.239245678,-1.2419654,-3.2566753499999996,6.7107365
348,1715673410150,4.6210927,0.8032480700000001,0.564270725,-1.0357984,-3.0641,7.25616285
349,1715673410160,4.886199766666667,1.1341718333333333,0.7522593,-1.0013947666666665,-2.6666982666666663,7.5436937777777775
350,1715673410170,5.15772135,1.67741493,0.9201451199999999,-1.06492135,-2.1501235000000003,7.5369928999999996
351,1715673410180,5.250202499999999,2.2567414799999996,0.970971278,-1.1660806000000001,-1.64463249,7.1616468
352,1715673410190,5.1150543399999995,2.60412762,0.97595936,-1.26803412,-1.06736486,6.0877608599999995
353,1715673410200,4.8543077,2.7936997,0.9737153600000001,-1.2822062,-0.7309003,5.3487363
354,1715673410210,4.1929886,2.91037714,0.917955986,-0.956737175,-0.299323984,4.49396778
355,1715673410220,3.50919863,2.83648262,0.81988931,0.29420795899999996,-0.0884685623,3.79368695
356,1715673410230,2.7215613,2.6699119999999996,0.6663803699999999,2.3608414,0.1362229435,3.08822915
357,1715673410240,2.3546497,2.598464766666667,0.5262095833333333,3.2656856,0.36621370000000003,2.7199283333333337
358,1715673410250,1.9293564200000002,2.4914503000000003,0.255331978,3.7327532,0.7002348360000001,2.2398901600000003
359,1715673410260,1.59261732,2.3964082,0.024098965999999996,3.555877,0.90032376,1.90266208
360,1715673410270,1.3532436300000001,2.3256662500000003,-0.1276111015,3.0099468099999998,0.98384427,1.6702888599999999
361,1715673410280,1.08842934,2.24674088,-0.311286452,1.8810983999999997,1.004109728,1.35605978
362,1715673410290,0.9714591,2.212934,-0.40502363,1.1791227,0.97341377,1.1759156
363,1715673410300,0.75403182,2.18513978,-0.513225068,-0.10225884560000001,0.7140709279999999,0.692232494
364,1715673410310,0.600358216,2.13827116,-0.495961856,-0.775737786,0.48015535800000003,0.308135705
365,1715673410320,0.433049651,1.9950615600000003,-0.374723089,-1.4635415,0.22663101600000002,-0.21839959799999997
366,1715673410330,0.25940537,1.8590109000000001,-0.23537959000000003,-1.8695531,0.10842858,-0.6239988
367,1715673410340,-0.05021296111111111,1.7143818666666666,-0.11953949555555557,-2.1088085777777774,0.06770423133333334,-1.1499029222222221
368,1715673410350,-0.170894125,1.632366575,-0.08779476125,-2.056725975,0.009220247125,-1.4398284875
369,1715673410360,-0.28563861999999995,1.56677436,-0.025989323,-1.8568165399999998,-0.0910494676,-1.75910866
370,1715673410370,-0.32389085500000003,1.54789521,0.049966329999999996,-1.6665015,-0.14129313599999999,-2.02981356
371,1715673410380,-0.308786309,1.51721655,0.13550791,-1.47325426,-0.12299771779999999,-2.41345238
372,1715673410390,-0.25845003333333333,1.4772203,0.21397591,-1.3468560333333333,-0.010588330666666668,-2.8169033
373,1715673410400,-0.18830366999999998,1.4443159399999999,0.25183177199999995,-1.29297256,0.095249163,-3.08508335
374,1715673410410,-0.04564901,1.38053174,0.293163456,-1.1876442399999998,0.307295768,-3.5401474800000003
375,1715673410420,0.166619486,1.31921118,0.364643214,-1.037004808,0.528367904,-3.8975952
376,1715673410430,0.29172434555555554,1.3203277666666666,0.41528844555555555,-0.7270483955555556,0.7712852488888888,-4.1959316
377,1715673410440,0.473478844,1.3199672599999999,0.467576064,-0.4457178,0.977445496,-4.4014061600000005
378,1715673410450,0.71159635,1.3310532499999999,0.47893039000000004,-0.061162885,1.2810608,-4.6666285
379,1715673410460,0.9138947500000001,1.3836477999999999,0.45118486999999996,0.21678080500000002,1.50944805,-4.94602315
380,1715673410470,1.0683414777777778,1.4334373,0.42705067333333335,0.3367225,1.6235271444444443,-5.173316033333333
381,1715673410480,1.3612074299999999,1.50385602,0.415018109,0.34406984500000004,1.74603614,-5.53934102
382,1715673410490,1.5961297,1.53245524,0.40920678400000005,0.253585434,1.85603765,-5.8665509
383,1715673410500,1.7828419199999999,1.54414485,0.38905317300000003,0.094592483,1.9629085499999999,-6.26843943
384,1715673410510,2.07239523,1.54275462,0.42161606100000004,0.03361286,2.05119396,-6.68874561
385,1715673410520,2.348301022222222,1.5336327777777778,0.48710838666666667,0.12875681777777778,2.1692504,-7.088497444444445
386,1715673410530,2.5535941,1.5981115,0.556008085,0.2846632,2.2755494,-7.30953725
387,1715673410540,2.7592158,1.73345485,0.6272317199999999,0.38279870800000004,2.39517204,-7.4620549
388,1715673410550,2.94099485,1.8459919500000002,0.6611970850000001,0.341320964,2.5481938,-7.6037756000000005
389,1715673410560,3.0859119444444443,1.9173680222222222,0.70026442,0.08867727333333335,2.7286331999999995,-7.678253855555555
390,1715673410570,3.20245518,1.9763591999999999,0.760129714,-0.22166772999999998,2.94215605,-7.6238275
391,1715673410580,3.2830390199999995,1.97401761,0.785759251,-0.28866437500000003,3.08926768,-7.514696290000001
392,1715673410590,3.3215692,1.9139395444444445,0.7646584111111111,-0.021108786666666674,3.144445777777778,-7.312786466666667
393,1715673410600,3.30218062,1.84694912,0.733579386,0.336220244,3.0727133,-7.171038640000001
394,1715673410610,3.19119834,1.6881107199999998,0.691162262,1.42099478,2.69159438,-6.7613316
395,1715673410620,3.050455622222222,1.514620888888889,0.6850603022222223,2.1014782444444444,2.3456716,-6.388463
396,1715673410630,2.85564812,1.3068566899999998,0.7124745389999999,2.35752743,2.1646162500000004,-5.97878275
397,1715673410640,2.54531315,0.99321044,0.654300363,2.12359658,2.22009822,-5.38419661
398,1715673410650,2.2007788,0.6333093399999999,0.5114525999999999,1.6581937111111111,2.3437372,-4.802588444444445
399,1715673410660,1.91070283,0.288547324,0.364112729,1.1569177400000001,2.39269798,-4.15870942
400,1715673410670,1.6189662999999999,-0.060338884999999995,0.27330861500000003,0.59078307,2.3519075,-3.3334152500000003
401,1715673410680,1.4812693,-0.229452408,0.26234456,0.284999176,2.3349101599999997,-2.83966812
402,1715673410690,1.29447794,-0.5503979560000001,0.205390024,-0.021227568000000002,2.44254472,-2.09624516
403,1715673410700,1.1614295666666665,-0.8482202,0.09701784999999999,-0.06302093166666667,2.5487334666666666,-1.4735088
404,1715673410710,1.1051986,-1.04679276,-0.025964929999999997,0.08921686849999999,2.5581355300000004,-1.072755795
405,1715673410720,1.0590069100000001,-1.3280897,-0.252197648,0.709687958,2.2901184999999997,-0.347872467
406,1715673410730,0.982593968,-1.55793244,-0.438025564,1.25264026,1.8877262399999999,0.086834496
407,1715673410740,0.8489722933333333,-1.8054914999999998,-0.5752164666666667,1.7294612999999999,1.2447397666666666,0.47072257333333334
408,1715673410750,0.76943513,-1.9905124,-0.5985715,1.81347566,0.72021014,0.8145582640000001
409,1715673410760,0.747104556,-2.12392866,-0.576460468,1.55715664,0.366977296,1.22713664
410,1715673410770,0.7553692666666667,-2.2694616444444446,-0.5300173411111111,0.9515584177777777,0.11302704000000002,1.8390946222222222
411,1715673410780,0.7694961,-2.3283067,-0.50210243,0.54321194,0.03268129,2.2001839
412,1715673410790,0.837061059,-2.3260930699999998,-0.47327761100000004,-0.50874384,-0.0253356372,3.1164359299999997
413,1715673410800,0.91092712,-2.2566155,-0.46323840000000005,-1.1606948666666668,-0.09025533999999999,3.7453675666666664
414,1715673410810,1.01458358,-2.15678436,-0.47089332400000006,-1.82300516,-0.20488419799999996,4.44410596
415,1715673410820,1.1348284,-2.0522965500000003,-0.52290245,-2.27217431,-0.43653958,5.0889659
416,1715673410830,1.27125706,-1.8834512799999998,-0.591132056,-2.4290446,-0.7517002359999999,5.553437300000001
417,1715673410840,1.4734261,-1.6126550666666666,-0.6030568666666666,-2.260269177777778,-1.3341127222222222,5.988956722222222
418,1715673410850,1.6168260799999998,-1.42481482,-0.56074004,-1.89169692,-1.79621872,6.1583461
419,1715673410860,1.73112545,-1.2461946400000001,-0.5209877119999999,-1.45778412,-2.22032722,6.23820151
420,1715673410870,1.7834577999999999,-1.1197605,-0.50045604,-1.2224941,-2.4323127,6.2500677
421,1715673410880,1.86908459,-0.961775671,-0.49983407,-0.954110415,-2.7386616600000004,6.3064507999999995
422,1715673410890,1.97643232,-0.846427444,-0.48768703,-0.90090406,-2.93099262,6.4785315400000005
423,1715673410900,2.12732537,-0.695095438,-0.42439062400000005,-1.04399922,-3.02033154,6.74092856
424,1715673410910,2.2360451,-0.6034498,-0.39246193,-1.26326935,-3.03549631,6.962122600000001
425,1715673410920,2.5544647222222223,-0.25122061444444443,-0.39440649111111115,-1.7457679777777777,-3.0253439777777777,7.115986
426,1715673410930,2.79406545,-0.066680721,-0.41197525000000007,-2.4283419499999996,-3.12029965,6.9009445
427,1715673410940,3.02776815,-0.01067135425,-0.39282779,-2.8211894600000003,-3.3066747,6.66127156
428,1715673410950,3.2755876,0.04485017875,-0.27446724,-2.880077,-3.6541959,6.5122817
429,1715673410960,3.4516785444444444,0.12869314666666665,-0.1326364697777778,-2.5475627333333333,-3.9743570666666668,6.621796222222223
430,1715673410970,3.73336399,0.398071993,0.17885800019999998,-2.00892206,-4.1698272,6.87423455
431,1715673410980,4.1572547,0.95460444,0.657184696,-1.057682612,-4.16851384,7.178582860000001
432,1715673410990,4.3375840000000006,1.2833810888888888,0.8693054633333333,-0.5167750044444445,-4.0160656222222215,7.205477833333333
433,1715673411000,4.44404,1.5122834,0.98920405,-0.205098,-3.7076465999999995,7.0357933
434,1715673411010,4.5393928,2.05205278,1.18673988,-0.35225545199999997,-2.93926972,6.5648466999999995
435,1715673411020,4.4721206,2.55780185,1.37102515,-0.847239564,-2.0377549200000002,6.217875019999999
436,1715673411030,4.369963288888889,2.926762988888889,1.4623076333333331,-1.0620232,-1.3826425555555555,6.013255566666667
437,1715673411040,4.0149293,3.4076682499999995,1.42090615,-0.832029004,-0.480750936,5.4613492
438,1715673411050,3.6013686999999996,3.5464569499999996,1.2303462,0.031994045000000026,0.185321245,4.517882999999999
439,1715673411060,3.1354066666666665,3.524887288888889,0.9563972666666667,1.1949711833333334,0.45675751777777773,3.478283711111111
440,1715673411070,2.6094816,3.3417925600000005,0.65856282,2.40378522,0.444954248,2.4189958000000003
441,1715673411080,2.15654652,3.0818017600000003,0.44097693,3.12094092,0.343642256,1.6905390400000002
442,1715673411090,1.8147263999999999,2.843614311111111,0.3060883177777778,3.289220733333333,0.24178386000000002,1.1570635844444446
443,1715673411100,1.48312308,2.6460567999999998,0.20353627400000002,2.82109788,0.24135285999999997,0.836030164
444,1715673411110,1.20963759,2.5467398799999996,0.138569061,1.8650326280000002,0.383195764,0.60933808
445,1715673411120,0.9371887799999999,2.4511491,0.092749315,-0.13408493,0.70066245,0.118049705
446,1715673411130,0.8079536733333333,2.3777201333333333,0.11179514333333335,-1.1525669777777778,0.8404487688888889,-0.18441342555555554
447,1715673411140,0.669148804,2.30112216,0.16254606600000002,-1.85768707,0.9229868299999999,-0.532995195
448,1715673411150,0.485833208,2.26707124,0.20560955399999997,-2.0875250999999997,0.930698992,-0.9468564300000001
449,1715673411160,0.33188927333333335,2.2440740666666668,0.24296132666666667,-1.7952312,0.8946121333333333,-1.4698945333333333
450,1715673411170,0.225061896,2.1647361199999997,0.29195604799999997,-1.08367495,0.7877870650000001,-2.13856285
451,1715673411180,0.1823277,2.101769,0.33373898,-0.7367035,0.73624533,-2.4318545
452,1715673411190,0.180223935,1.9889270500000003,0.42627486000000003,-0.071043628,0.7470271,-3.10707436
453,1715673411200,0.22052100111111111,1.9368677555555556,0.4571743666666667,0.2074566288888889,0.8281805866666666,-3.5224695333333336
454,1715673411210,0.35541097600000005,1.8511202199999999,0.47782056199999995,0.314137458,0.965518336,-3.88953168
455,1715673411220,0.53162858,1.7521511300000001,0.4487945,0.290741327,1.2827254399999999,-4.4469463000000005
456,1715673411230,0.84221375,1.6217104499999997,0.34794715000000004,0.18532124,1.5816827999999998,-5.0869803
457,1715673411240,1.0517381499999998,1.5439925,0.28407146,0.20173824499999998,1.70797915,-5.4938928
458,1715673411250,1.23972,1.4660747,0.2022069211111111,0.30701068666666664,1.7462600333333334,-5.8292831000000005
459,1715673411260,1.4245343099999999,1.3911421499999999,0.13033077620000003,0.53948562,1.66790646,-6.29386678
460,1715673411270,1.6997943,1.3134912,0.13732508699999998,0.7085731200000001,1.52081016,-6.6315531199999995
461,1715673411280,1.8557180800000002,1.2969536400000001,0.17919338599999998,0.736520241,1.45955559,-6.82864871
462,1715673411290,2.074958533333333,1.3198330666666667,0.22728968000000002,0.6306335277777778,1.5199345222222223,-7.0103064222222224
463,1715673411300,2.22393463,1.34721271,0.24297149899999998,0.50842312,1.60627016,-7.15726356
464,1715673411310,2.4584908899999998,1.3699213399999999,0.256173485,0.3277292,1.7357736,-7.367035
465,1715673411320,2.79913885,1.433291,0.3255434,0.05931501226,1.99491794,-7.6790954099999995
466,1715673411330,2.9871594,1.483270911111111,0.35396375555555554,0.009773843733333334,2.1451211666666667,-7.817853333333334
467,1715673411340,3.2633734,1.43359588,0.34850814799999996,0.188696272,2.27571734,-8.1054488
468,1715673411350,3.3933993,1.29559385,0.33386095,0.52816935,2.2772292999999997,-8.3574
469,1715673411360,3.4289806,1.096557875,0.31889055499999996,0.97081758,2.16773175,-8.5568475
470,1715673411370,3.4145284222222223,0.9539039,0.31846031555555554,1.2386311,2.0597698111111113,-8.612334777777777
471,1715673411380,3.2916918799999997,0.73699423,0.382345479,1.5540412,1.8401856699999999,-8.3808267
472,1715673411390,3.2145166000000005,0.6610142,0.43984272999999996,1.6267340999999997,1.7652478000000003,-8.130464
473,1715673411400,3.1514034,0.56527686,0.44429418,1.6168076,1.7777705999999998,-7.837095700000001
474,1715673411410,2.956927155555556,0.2704697136666667,0.3324245511111111,1.5764904333333334,1.8550110666666666,-7.034215122222222
475,1715673411420,2.61548184,0.0265991138,0.331982762,1.38608382,1.77413594,-5.7840997000000005
476,1715673411430,2.348003,-0.0058844895,0.46978348,0.9658543500000001,1.79120965,-4.7903289000000004
477,1715673411440,2.1986161600000003,-0.027550389199999997,0.566569636,0.44196103,1.98302135,-4.057367
478,1715673411450,2.042273666666667,-0.10966087388888889,0.5709412111111111,0.10437311866666667,2.2208685,-3.596808533333333
479,1715673411460,1.8423453699999999,-0.28646183199999997,0.463002659,0.1555568402,2.355588,-3.2877378200000003
480,1715673411470,1.571981988888889,-0.6274485133333333,0.2619123,0.6143777333333333,2.2544999666666667,-2.934851166666667
481,1715673411480,1.2064484800000002,-1.10823538,0.034258094399999994,1.51002838,1.8457904199999997,-2.3172257000000003
482,1715673411490,1.012864,-1.3186135,-0.059149794,2.0815234,1.5645787,-1.8779525
483,1715673411500,0.7989734740000001,-1.4708054000000002,-0.1364957688,2.7323391,1.093540432,-0.9211236780000001
484,1715673411510,0.51417637,-1.648206,-0.22672056000000002,2.8895113666666665,0.7557421422222222,0.04827532
485,1715673411520,0.316518462,-1.68747654,-0.166485326,2.0007364,0.60903267,1.5989397
486,1715673411530,0.277247896,-1.6368395,-0.0575033588,1.240422936,0.7114747639999999,2.3548548400000002
487,1715673411540,0.38084538,-1.5052708000000001,-0.0051527395000000005,-0.37323867499999996,1.1081859299999999,3.6105952500000003
488,1715673411550,0.521981652,-1.43829128,-0.032562874,-1.403554492,1.34176556,4.4180218
489,1715673411560,0.6416363444444445,-1.4002782444444444,-0.08755253777777777,-1.9188465333333333,1.3746504666666668,4.958936222222222
490,1715673411570,0.7889484600000001,-1.34961538,-0.15904586799999998,-2.24431895,1.21608005,5.57635965
491,1715673411580,0.9411931,-1.291586177777778,-0.20173940777777777,-2.1662468333333336,0.8917954333333333,5.996405877777778
492,1715673411590,1.03741418,-1.24530436,-0.20170689199999997,-1.9284098200000002,0.580749594,6.25556556
493,1715673411600,1.1312245,-1.2023262,-0.19629194,-1.5804611,0.28985557,6.443101400000001
494,1715673411610,1.29323399,-1.1198762800000002,-0.20448143800000002,-0.9320276699999999,-0.12724322799999999,6.6364094
495,1715673411620,1.36598209,-1.06398887,-0.215994319,-0.34558173999999997,-0.516914173,6.780008410000001
496,1715673411630,1.4363507555555555,-0.9100598666666667,-0.21930141111111112,-0.2264104222222222,-0.7296785222222222,6.763822333333334
497,1715673411640,1.4807266000000001,-0.8354756,-0.27349157,-0.383623375,-0.7581601,6.7053915
498,1715673411650,1.5546705777777778,-0.7881015555555556,-0.36871393333333335,-0.60165135,-0.8319814733333334,6.663928888888888
499,1715673411660,1.6318512200000002,-0.7663008,-0.46468565999999994,-0.8204225599999999,-0.9740246239999999,6.6710148
500,1715673411670,1.71605124,-0.72751802,-0.533799446,-1.06901419,-1.19115666,6.7005198
501,1715673411680,1.828201125,-0.6525227975,-0.5597811500000001,-1.3435027,-1.404951825,6.7081595625
502,1715673411690,1.9405942444444446,-0.5528913244444444,-0.5378227222222223,-1.7200778222222222,-1.6270395222222223,6.657650722222223
503,1715673411700,2.0028608,-0.49380928,-0.5166155,-1.9740111,-1.7698293,6.608951
504,1715673411710,2.07481624,-0.422049008,-0.45534362799999994,-2.12153505,-1.85492284,6.57410115
505,1715673411720,2.22632502,-0.263759276,-0.339727132,-2.42482952,-2.06585462,6.523857420000001
506,1715673411730,2.4189339,-0.011506764999999999,-0.1684305614,-2.5394585199999997,-2.2674402000000002,6.468574139999999
507,1715673411740,2.5849476,0.25584826,-0.023212735999999998,-2.4314473333333333,-2.361045133333333,6.379723866666667
508,1715673411750,2.715573,0.45781939200000005,0.0543690288,-2.21780732,-2.42113388,6.199640959999999
509,1715673411760,2.83987911,0.62209728,0.14216073599999998,-2.03761736,-2.47226327,6.021741799999999
510,1715673411770,3.02032865,0.8852346000000001,0.288675385,-1.8442785000000002,-2.47522595,5.8652228
511,1715673411780,3.146545322222222,1.0853343666666668,0.3687613622222222,-1.6020959,-2.4562383,5.7959404
512,1715673411790,3.35043936,1.36964088,0.48927244,-1.15335937,-2.46406248,5.7229673
513,1715673411800,3.44844508,1.52493046,0.588961192,-0.6482196419999999,-2.43533649,5.641340380000001
514,1715673411810,3.5587442000000005,1.7572367,0.75297076,-0.29245174,-2.3451116,5.5793376
515,1715673411820,3.62769342,2.04091785,0.825700616,-0.07092145800000002,-2.04282496,5.43239406
516,1715673411830,3.6768855,2.71904892,0.938701094,0.15607606759999998,-1.11033922,4.88716642
517,1715673411840,3.6046617,2.8940103,0.93456674,-0.017562376,-0.8046621999999999,4.6277623
518,1715673411850,3.461635,3.02228,0.894899785,-0.24559838559999997,-0.508575834,4.2328991
519,1715673411860,3.1852671666666668,3.166322966666667,0.79787179,-0.7414885999999999,0.19802214500000004,3.1830661
520,1715673411870,2.81010909,3.1216517599999998,0.597138498,-0.663277479,0.656267802,2.1651202
521,1715673411880,2.54134329,3.05502591,0.410926413,-0.173898071,0.870742602,1.29575207
522,1715673411890,2.3048907,2.86489275,0.20918904500000002,0.38240164,0.882089412,0.625984128
523,1715673411900,2.197845144444445,2.7460343333333332,0.12225646266666668,0.8491366222222222,0.7735590333333333,-0.03303762444444444
524,1715673411910,2.0044463,2.5769186,0.011464084,1.1015427,0.6075055,-0.61208695
525,1715673411920,1.59342842,2.12856933,-0.0462770882,0.80614362,0.377331461,-1.4338229
526,1715673411930,1.2851563333333333,1.7848060222222222,-0.02752870577777778,0.015899455555555577,0.4073283333333333,-1.8888971666666667
527,1715673411940,1.04286575,1.5806105000000001,-0.029757834500000004,-0.9082803,0.63476535,-2.1281781499999997
528,1715673411950,0.871489856,1.48547694,-0.0576131196,-1.62070185,0.8381071,-2.29036285
529,1715673411960,0.68110682,1.4311811,-0.06701610799999999,-2.0310963,0.9566454999999999,-2.4635278400000002
530,1715673411970,0.5689356666666666,1.4377532222222222,-0.02662757177777778,-2.2515134888888886,1.0475151111111112,-2.7472645555555553
531,1715673411980,0.51659114,1.46825025,0.035136194200000005,-2.1828505999999996,1.1087357,-3.0215533900000002
532,1715673411990,0.506761278,1.50671592,0.090145499,-1.87604351,1.2046110200000002,-3.3602323400000005
533,1715673412000,0.5236958755555556,1.5209424111111112,0.11070429333333334,-1.5954273,1.2594514,-3.5897495999999998
534,1715673412010,0.5813144,1.5087465,0.12799528,-1.001819,1.3313808,-4.0784416
535,1715673412020,0.731262204,1.34817622,0.13467859,-0.28466321,1.4426346,-4.73145675
536,1715673412030,0.8492264,1.2685191,0.13482494,0.012293665000000002,1.53785325,-5.0593388
537,1715673412040,0.9877202,1.2244007333333333,0.12588133,0.11531778333333333,1.6474187555555555,-5.306756066666667
538,1715673412050,1.2157904,1.18127628,0.10640865,0.035888332,1.7747163000000001,-5.50087184
539,1715673412060,1.3899469199999999,1.165629,0.07666301,-0.158550068,1.9472857000000001,-5.720997
540,1715673412070,1.53780922,1.16311664,0.054588551,-0.275652928,2.10183458,-5.95886808
541,1715673412080,1.7171124666666668,1.1116502000000001,0.034229638,-0.09682214,2.2064961999999997,-6.3152776
542,1715673412090,1.8395830399999997,1.02389508,0.026690582,0.236893532,2.23497268,-6.6144488
543,1715673412100,2.0032633,0.9157241299999999,0.0340019846,0.6249151,2.2201898,-6.812979999999999
544,1715673412110,2.1268585555555557,0.8857359777777778,0.05512516666666666,1.1173065111111111,2.141218455555556,-6.975962555555555
545,1715673412120,2.29073742,0.87539865,0.091041902,1.48591443,2.05261413,-7.190021450000001
546,1715673412130,2.41721431,0.84111613,0.124745085,1.5489862699999999,2.00785297,-7.436169649999999
547,1715673412140,2.508122,0.7994612799999999,0.15604569000000001,1.24494335,2.00684505,-7.6836157499999995
548,1715673412150,2.48438878,0.81702326,0.245038692,0.84620105,2.03074515,-7.81388275
549,1715673412160,2.4309277444444444,0.7948973177777777,0.3176472577777778,0.5016730777777778,2.0852733555555556,-7.856558444444444
550,1715673412170,2.3717481200000003,0.712285448,0.375973142,0.274965715,2.16223395,-7.7406552500000005
551,1715673412180,2.2717300600000003,0.634476036,0.400364816,0.249966058,2.1827742199999998,-7.460405800000001
552,1715673412190,2.1596450444444444,0.5785432588888889,0.3927803833333333,0.3481422777777778,2.146936711111111,-7.123520511111112
553,1715673412200,1.9455037999999998,0.4739179,0.33459269999999997,0.89510086,1.8751730800000002,-6.46625298
554,1715673412210,1.7697374,0.38996178,0.2965417,1.4132367,1.5683966,-5.9999185
555,1715673412220,1.5161860444444444,0.28366153111111114,0.31387332777777777,2.440440611111111,0.7094521244444445,-4.822577611111111
556,1715673412230,1.4235282,0.28285187,0.456093685,2.8076893800000002,0.23011293957999998,-3.98342186
557,1715673412240,1.4000695,0.310512025,0.57378957,2.64038873,0.01776090811,-3.08917608
558,1715673412250,1.37368996,0.30731060600000004,0.69267456,1.5233451500000001,0.39996402,-2.0515909
559,1715673412260,1.3127798555555554,0.1615880177777778,0.6450172666666666,0.5649824835555556,0.8468119333333334,-1.5556192777777778
560,1715673412270,1.26047598,0.017793716,0.56699648,-0.2376418589,1.22551784,-1.1572231499999999
561,1715673412280,1.19278914,-0.173833315,0.46111229,-0.8664970719999999,1.52041306,-0.690399901
562,1715673412290,1.1012566555555554,-0.41511228666666666,0.32655699555555556,-1.04848226,1.6003142666666668,-0.24609385444444445
563,1715673412300,1.0074429500000002,-0.5826986310000001,0.212890482,-0.9458484730000001,1.52149735,0.25224152499999997
564,1715673412310,0.91166302,-0.76391046,0.0901272048,-0.530200468,1.283305728,0.6939123799999999
565,1715673412320,0.8574829900000001,-0.9725079400000001,-0.0155801781,0.352301267,0.758908433,1.48272264
566,1715673412330,0.8287949622222223,-1.0958565444444444,-0.07457752211111111,0.9786740055555554,0.3865080122222222,2.1413032333333337
567,1715673412340,0.797985578,-1.16194586,-0.139471552,1.4932906,0.170187054,2.69269416
568,1715673412350,0.798900282,-1.22310794,-0.18351071000000002,1.51164712,0.09425650599999999,2.99568332
569,1715673412360,0.8075877533333333,-1.2941812,-0.24651846,1.2626075666666667,0.08358672466666667,3.2549955333333336
570,1715673412370,0.8009125600000001,-1.33017512,-0.321750492,0.71723216,0.0678824,3.5235472000000003
571,1715673412380,0.7862287840000001,-1.33888294,-0.356264688,0.178800252,0.023671028480000002,3.69185584
572,1715673412390,0.7695503333333333,-1.368128566666667,-0.40214405777777773,-0.43020186,-0.024926695444444442,3.8644014333333327
573,1715673412400,0.75198292,-1.40971638,-0.46912493800000005,-0.702174342,-0.088422743,4.00955137
574,1715673412410,0.7498486600000001,-1.4398522599999999,-0.52762836,-0.8844106899999999,-0.276172173,4.30214055
575,1715673412420,0.84419563,-1.41834494,-0.520512074,-0.9573785599999999,-0.5563149660000001,4.7729954
576,1715673412430,1.050251,-1.278516311111111,-0.40574182444444445,-0.9470277666666667,-0.75877948,5.546588444444445
577,1715673412440,1.1847642999999999,-1.16272025,-0.38118078,-0.9959393999999999,-0.785649075,5.9088994999999995
578,1715673412450,1.30592985,-1.0294807799999999,-0.41856099999999996,-1.1622474999999999,-0.8322275250000001,6.1089579999999994
579,1715673412460,1.4139849500000001,-0.88099653,-0.475302135,-1.4434746,-0.9777661999999999,6.16347765
580,1715673412470,1.4587166,-0.7538854533333333,-0.5092912722222223,-1.7915151,-1.2060176777777778,6.058323766666667
581,1715673412480,1.4668477800000002,-0.666941329,-0.5078955119999999,-2.15409416,-1.44494058,5.86510021
582,1715673412490,1.47573239,-0.6278292999999999,-0.47550945,-2.55925048,-1.7167145599999998,5.61186618
583,1715673412500,1.48662323,-0.6313904600000001,-0.45657542599999995,-2.7027275,-1.84666094,5.51012678
584,1715673412510,1.51748489,-0.6625996580000001,-0.4363974199999999,-2.6950916,-2.0515757900000002,5.4396482200000005
585,1715673412520,1.6120858666666666,-0.7041874499999999,-0.40469844,-2.2085324666666666,-2.4220298,5.586922666666666
586,1715673412530,1.7773109000000002,-0.673862473,-0.37139973,-1.61749485,-2.72109925,6.00625635
587,1715673412540,2.0453632,-0.4904689911111111,-0.2825774644444444,-1.092125291111111,-2.9936639222222223,6.346482788888888
588,1715673412550,2.33824612,-0.29638315400000004,-0.16870496,-0.676472186,-3.1915570200000003,6.5014084400000005
589,1715673412560,2.68307104,-0.18504738599999998,-0.0502712218,-0.6983106219999999,-3.1576844399999997,6.415978920000001
590,1715673412570,3.1035348,-0.1289404475,0.08802342525,-1.04030354,-3.03077724,6.40898438
591,1715673412580,3.5678776333333335,0.05574850722222223,0.28906157666666665,-1.5039332777777779,-2.8718131888888885,6.768217277777778
592,1715673412590,4.013984209999999,0.374863327,0.5335433199999999,-1.80776408,-2.62009266,7.2965716
593,1715673412600,4.40653765,0.86621517,0.808839884,-1.80299936,-2.27620608,7.6947946
594,1715673412610,4.79929216,1.63252208,1.004241544,-1.3811358089999999,-1.66665418,7.7959997
595,1715673412620,5.0127180777777784,2.231702022222222,1.0124506444444445,-0.26292659666666673,-0.8383446777777778,6.874507833333333
596,1715673412630,4.87928486,2.6115181200000004,0.7302743300000001,0.325728619,-0.64753243,5.87275165
597,1715673412640,4.388091650000001,2.59615755,0.50289519,0.8977886500000001,-0.635086049,4.44496101
598,1715673412650,3.84217532,2.5039631200000003,0.48718697200000005,1.3084428200000002,-0.630535072,3.3899966
599,1715673412660,3.5108144222222224,2.442967711111111,0.5172591911111111,1.363807588888889,-0.5156041666666666,3.1257294666666664
600,1715673412670,3.282167,2.38490748,0.5071393599999999,1.2382544000000002,-0.28707610899999997,2.96842326
601,1715673412680,2.866966,2.3096775,0.37136312,0.736581288,0.18805486200000002,2.61441168
602,1715673412690,2.5267693600000003,2.25603412,0.308396056,-0.056428690000000004,0.6866888999999999,2.0319669
603,1715673412700,2.2696716555555554,2.1932649444444445,0.31431374444444443,-0.57151535,0.9743300666666665,1.6419039333333334
604,1715673412710,2.04148497,2.13776509,0.299017435,-0.9644340400000001,1.2498608199999999,1.2848022660000002
605,1715673412720,1.54066915,1.9999948,0.070217515,-1.2305116799999998,1.51557198,0.700998401
606,1715673412730,1.2692271888888889,1.9272737333333332,-0.09486325444444445,-1.1642582444444445,1.479176211111111,0.1278914111111111
607,1715673412740,0.75452575,1.8231551499999998,-0.30843262,-0.87033026,1.00618668,-0.7396662
608,1715673412750,0.42308566799999997,1.72384448,-0.289577872,-0.6751588,0.50029864,-1.4633582600000001
609,1715673412760,0.13580060600000002,1.60582535,-0.123940165,-0.6390414000000001,0.08827003200000001,-2.0376174
610,1715673412770,-0.023751384,1.5751834,0.051984739999999995,-0.687986965,-0.058413990000000006,-2.3257167
611,1715673412780,-0.08689531,1.5828363,0.13921544,-0.72572486,-0.051041185777777776,-2.4468037444444444
612,1715673412790,-0.17047336800000001,1.5978249999999998,0.377412258,-0.807609648,0.255051507,-2.69822235
613,1715673412800,-0.18068127,1.6013740000000003,0.4228905,-0.8217664640000001,0.553902039,-2.86943269
614,1715673412810,-0.09533483599999999,1.59009284,0.389571494,-0.701181668,0.852920608,-3.1562491199999996
615,1715673412820,0.17797107777777776,1.5565678444444444,0.25583471888888887,-0.43157628,1.00166632,-3.6459492
616,1715673412830,0.388162875,1.54127895,0.21357954,-0.20402900000000002,0.9298896300000001,-4.1780128
617,1715673412840,0.53456775,1.55466993,0.249423098,-0.11392636919999999,0.8756447920000001,-4.52229624
618,1715673412850,0.8016321249999999,1.56378025,0.31870762999999996,0.016493361499999998,0.8936958650000001,-5.0030628
619,1715673412860,1.0029447,1.5447039666666667,0.35058956666666663,0.11916963,1.0041267333333335,-5.397707333333333
620,1715673412870,1.1981857200000001,1.52674154,0.37258272400000003,0.15859589000000002,1.20829145,-5.7858102
621,1715673412880,1.55227959,1.55293823,0.38511393699999996,0.136787997,1.3931239899999999,-6.06135627
622,1715673412890,1.78633585,1.57426255,0.39252901,0.0747393624,1.66894494,-6.40819018
623,1715673412900,2.12374596,1.58786698,0.40524315400000005,0.0374307669,1.8355126099999999,-6.60012393
624,1715673412910,2.3934324,1.6046059,0.42039037,-0.010537425,2.051438,-6.8505483
625,1715673412920,2.77435704,1.62092994,0.397834187,0.0072692971,2.32675519,-7.232904209999999
626,1715673412930,3.09963205,1.5067036999999999,0.345477475,0.331424938,2.5275159599999997,-7.91678256
627,1715673412940,3.26089756,1.36676262,0.34254437800000004,0.602618545,2.4943918,-8.251873
628,1715673412950,3.379059,1.2442596,0.39746222000000003,0.83652904,2.4413229000000003,-8.442921666666667
629,1715673412960,3.4270536399999996,1.1567991599999998,0.482223268,1.07576424,2.42366898,-8.4926458
630,1715673412970,3.4193702000000004,1.06876972,0.51411536,1.3136657,2.438116,-8.378627
631,1715673412980,3.39140516,0.9948141680000001,0.5206889,1.5346157,2.40399916,-8.1406036
632,1715673412990,3.309190488888889,0.9100869577777778,0.5345975588888889,1.7082846777777778,2.342447688888889,-7.871575666666666
633,1715673413000,3.1205601,0.81454751,0.5545689580000001,1.9074877799999999,2.25882694,-7.430350899999999
634,1715673413010,3.0049925,0.71620035,0.56247187,2.0201313,2.2050707,-7.064198500000001
635,1715673413020,2.8390071,0.51228595,0.550215,2.12028271,2.04789514,-5.954301989999999
636,1715673413030,2.4266661,0.256691815,0.54987965,2.06063162,1.9576093,-5.23496238
637,1715673413040,2.1437497333333333,0.13339531444444444,0.5423351555555556,1.8157969444444444,1.9510526777777777,-4.438054833333333
638,1715673413050,1.83013106,-0.082895078,0.46533201599999996,1.6069116,2.02917214,-3.89808388
639,1715673413060,1.54994399,-0.38044291999999996,0.315872082,1.43744225,2.0768655,-3.2069661000000003
640,1715673413070,1.2761313666666667,-0.6947695222222222,0.14494748666666668,1.391364311111111,2.011596311111111,-2.761959222222222
641,1715673413080,0.9854233499999999,-0.9766728499999999,0.027715032500000004,1.2927741000000001,1.7524502599999998,-1.94102432
642,1715673413090,0.85870254,-1.0819533799999999,0.0367765365,1.1331092100000002,1.5827060899999998,-1.32820427
643,1715673413100,0.75782473,-1.1896791,0.076845948,0.8753546480000001,1.52027561,-0.562652678
644,1715673413110,0.7437697044444445,-1.243961411111111,0.05970538222222223,0.6955718866666667,1.5765583555555556,0.015661908888888878
645,1715673413120,0.766495922,-1.2448896600000001,-0.0413194846,0.42161920099999994,1.6319264900000001,1.000795815
646,1715673413130,0.796412326,-1.2148513,-0.0920053712,0.258182208,1.58024732,1.51525124
647,1715673413140,0.84561842,-1.1932810333333335,-0.13120684666666665,0.06907867866666667,1.4562009666666667,1.8789197333333334
648,1715673413150,0.8691970120000001,-1.20072858,-0.18951106,-0.0702189584,1.31867482,1.99911768
649,1715673413160,0.848195838,-1.26158578,-0.269198644,-0.16302466,1.1226939999999999,1.96813155
650,1715673413170,0.80364448,-1.36139656,-0.387437238,-0.19943223300000001,0.90325591,1.9345796700000002
651,1715673413180,0.7463036777777777,-1.458526888888889,-0.5032407266666667,-0.18074824444444446,0.47571129777777776,1.9762508666666667
652,1715673413190,0.69991884,-1.52147904,-0.5471416680000001,-0.143156272,0.1656972,2.07419296
653,1715673413200,0.6538186,-1.5828972,-0.5670453,-0.10919216000000001,-0.17027868,2.250122
654,1715673413210,0.6142675900000001,-1.6684510499999998,-0.5575630300000001,-0.14248432,-0.44440445000000006,2.5621216
655,1715673413220,0.638086,-1.7222346,-0.5435683,-0.3411852111111111,-0.7157644,3.2443732
656,1715673413230,0.798546612,-1.6402176400000001,-0.46257578400000005,-0.774118975,-0.9178250499999999,4.2752169
657,1715673413240,0.950067664,-1.47137852,-0.38869343,-0.9859975750000001,-0.9573327660000001,4.69205615
658,1715673413250,1.08101431,-1.25950028,-0.33789166699999995,-1.44249721,-0.9452834219999999,5.26478804
659,1715673413260,1.2409566,-0.96148898,-0.34547746,-1.8873598,-0.926835284,5.4528275399999995
660,1715673413270,1.3192775777777779,-0.757761011111111,-0.3943048444444444,-2.1922257444444444,-0.9796751333333334,5.377904911111111
661,1715673413280,1.3684701400000001,-0.59741294,-0.45333133400000003,-2.2487477599999997,-1.14085192,5.14259958
662,1715673413290,1.4011306000000001,-0.50317572,-0.5109444360000001,-2.10400324,-1.38183824,4.88994572
663,1715673413300,1.41361906,-0.462197715,-0.568801503,-1.6602401199999999,-1.77966428,4.684908999999999
664,1715673413310,1.4224,-0.44331855,-0.58021677,-1.336115,-2.045635,4.6422706
665,1715673413320,1.62770474,-0.46550276,-0.44037935200000006,-0.5041470797,-2.58843451,4.8473837699999995
666,1715673413330,1.8007757999999998,-0.47490573999999997,-0.366350648,0.04749477479999999,-2.86446926,5.2431173399999995
667,1715673413340,2.34120972,-0.353179148,-0.29001693,0.10147999299999999,-2.77195385,6.04871135
668,1715673413350,2.772234822222222,-0.1295807382222222,-0.24048829222222226,-0.12929981266666665,-2.6467264,6.605031566666667
669,1715673413360,3.31016876,0.2368552804,-0.153460176,-0.682947362,-2.46939216,7.19693962
670,1715673413370,3.75168254,0.566435496,-0.0662843552,-1.16259876,-2.36172722,7.461047259999999
671,1715673413380,4.2640658899999995,0.978630332,0.1069635608,-1.69576192,-2.27096791,7.47518863
672,1715673413390,4.689284444444444,1.3781766666666666,0.34572478222222225,-1.9846333333333332,-2.102072111111111,7.2822262
673,1715673413400,4.996999,1.7529071999999999,0.5693015,-1.9779817000000002,-1.8719965000000003,7.028157
674,1715673413410,5.0966387,2.1768954,0.7218714,-1.509448025,-1.53511964,6.57141357
675,1715673413420,4.765015910000001,2.48935864,0.71016947,-0.326507485,-1.30557175,5.4518195
676,1715673413430,4.4025498,2.5446606600000004,0.6925831,0.22858578000000002,-1.22089056,4.7862054999999994
677,1715673413440,3.862901688888889,2.5485497777777777,0.7386609888888889,0.4290989088888889,-0.9483513111111113,4.150795466666667
678,1715673413450,3.43462125,2.5424349000000004,0.777149015,0.162032016,-0.573571904,3.8163806800000004
679,1715673413460,2.991699,2.51798225,0.74562278,-0.413861208,-0.08912523200000001,3.56320759
680,1715673413470,2.5856752199999997,2.46983928,0.6183409519999999,-1.25896272,0.48759265999999996,3.241587
681,1715673413480,2.351742877777778,2.4412604,0.5270971622222222,-1.6815762444444444,0.8161499,2.808554811111111
682,1715673413490,1.9725542,2.3997133,0.40990198,-1.63507243,0.88121891,2.38283254
683,1715673413500,1.3316264800000002,2.19796976,0.24323369600000003,-1.360717556,0.815734175,1.94302486
684,1715673413510,0.966019734,2.0565286,0.179479986,-0.7342294739999999,0.518380234,1.3761572100000001
685,1715673413520,0.52521354,1.9034646999999998,0.16482669,-0.1910481,0.21105394,0.9860891999999999
686,1715673413530,0.151905195,1.8539618199999999,0.171485619,0.178861347,0.0566119354,0.525924429
687,1715673413540,-0.299895552,1.8577670000000002,0.185193732,0.116156026,0.076816306,0.15158620320000002
688,1715673413550,-0.5840279899999999,1.91187985,0.21653702999999996,-0.33127220600000007,0.231212488,-0.27220155479999997
689,1715673413560,-0.76006466,1.9588541,0.24123358666666667,-0.6693046666666667,0.34376441,-0.5576181666666666
690,1715673413570,-0.9139923160000001,1.98528658,0.272064644,-1.045129364,0.48676797800000005,-1.0364551
691,1715673413580,-0.96872725,1.96123021,0.29288293099999996,-1.12594685,0.572487641,-1.46853538
692,1715673413590,-0.9447502699999999,1.9290454499999998,0.33477562499999997,-0.9645409300000001,0.6287636,-1.8787466299999998
693,1715673413600,-0.8802587000000001,1.93553982,0.355337806,-0.71538428,0.658451636,-2.145542
694,1715673413610,-0.6977846111111111,1.9821277444444445,0.37648539000000003,-0.3583403562222222,0.7111829,-2.462872977777778
695,1715673413620,-0.342471205,2.08434712,0.35752087,0.0284357749,0.8039750299999999,-2.9385825800000003
696,1715673413630,-0.030635926,2.1573819999999997,0.335897646,0.176937112,0.86596258,-3.34818304
697,1715673413640,0.33512795444444443,2.1960290666666666,0.32871836777777774,0.2570215533333333,0.9537812555555555,-3.8178059555555555
698,1715673413650,0.77525256,2.17718796,0.27132071399999996,0.30454686799999997,1.10526902,-4.5454482
699,1715673413660,1.1670071,2.13168536,0.197535916,0.303569488,1.1808636,-5.221584300000001
700,1715673413670,1.5271379,2.01650786,0.147959854,0.238084725,1.1846968,-5.89500225
701,1715673413680,1.722458277777778,1.9213993444444444,0.13724378333333334,0.1540059151111111,1.1842980666666667,-6.358394499999999
702,1715673413690,2.0250632800000004,1.7583952399999998,0.162515581,-0.0085215707,1.203206,-6.8698365
703,1715673413700,2.24716775,1.6813541399999998,0.215274766,-0.14718797919999999,1.22993135,-7.14226692
704,1715673413710,2.3943837,1.65509042,0.273241574,-0.26575692100000003,1.28623789,-7.30584159
705,1715673413720,2.682880066666667,1.7755304333333333,0.49669568,-0.3875939933333334,1.4562009,-7.430208466666667
706,1715673413730,2.90843792,1.9573947600000001,0.644025408,-0.44113634600000007,1.6844304,-7.4631238
707,1715673413740,3.311925,2.22175152,0.8003028000000001,-0.379744382,2.03280676,-7.432947
708,1715673413750,3.6327730600000003,2.3282212600000003,0.8663920559999999,-0.10152580800000002,2.31688962,-7.454571919999999
709,1715673413760,3.861275677777778,2.3351430555555557,0.8484641333333333,0.4163386044444445,2.461498333333333,-7.4816398333333325
710,1715673413770,4.00151423,2.2600281000000004,0.809699685,1.011989932,2.34760083,-7.453304
711,1715673413780,4.09434864,2.0711696,0.7856190300000001,1.80599262,2.05123965,-7.355886600000001
712,1715673413790,4.06066358,1.9490894400000003,0.79755872,2.19004364,1.8722714799999998,-7.2296515999999995
713,1715673413800,3.9682195000000005,1.7822991999999998,0.831268,2.5434902,1.678505,-6.998378
714,1715673413810,3.6891176999999997,1.4697809,0.8796854599999999,2.49897323,1.65834641,-6.546520719999999
715,1715673413820,3.06185547,0.8644162700000001,0.8343657600000001,1.9219348100000002,1.93951241,-5.928661119999999
716,1715673413830,2.5320685,0.37660732,0.727725375,1.2696834000000001,2.3361014,-5.2161782
717,1715673413840,2.24707014,0.07822407,0.6457450199999999,1.0223440799999999,2.52443128,-4.74648386
718,1715673413850,1.820871811111111,-0.40529465,0.49897219777777774,0.914550148888889,2.6689212444444443,-4.052344433333334
719,1715673413860,1.5131736199999999,-0.75615386,0.38037585199999996,1.053330178,2.74557954,-3.09056576
720,1715673413870,1.1642752399999998,-1.10485712,0.22141536,1.2893226800000002,2.76778454,-2.36166619
721,1715673413880,0.96138534,-1.3132351400000002,0.0782972544,1.57865904,2.70903464,-1.60092512
722,1715673413890,0.8545891311111111,-1.4759329888888888,-0.07299206999999999,1.8426580222222222,2.5169684,-0.7020538355555556
723,1715673413900,0.8293288480000001,-1.54218754,-0.152082054,1.9544022600000002,2.3168286399999998,-0.1069625
724,1715673413910,0.8354755600000001,-1.5593593,-0.19403571,1.9669861000000002,2.1169536,0.32406402
725,1715673413920,0.8937777490000001,-1.5997640199999998,-0.186303551,1.6036892999999999,1.8395138199999999,0.7150635949999999
726,1715673413930,0.9012720955555555,-1.6734918777777779,-0.20018783444444443,1.1361075088888888,1.7575101888888889,0.7598993888888889
727,1715673413940,0.856007297,-1.77712188,-0.270168212,0.66431594,1.7282904,0.6994407
728,1715673413950,0.7329086,-1.9094406,-0.38733968,0.37614026700000003,1.6846899,0.64660085
729,1715673413960,0.5574044810000001,-2.0986774,-0.54330608,-0.36242635,1.3082900800000001,0.678090964
730,1715673413970,0.386095682,-2.3322825,-0.70585824,-0.7525096,0.5870415,1.18278785
731,1715673413980,0.348313,-2.4097543999999997,-0.7167084833333334,-0.9582948000000001,0.00020361666666666536,1.7627026333333333
732,1715673413990,0.38213206,-2.38327324,-0.60448652,-1.2660182,-0.5673410750000001,2.6799422500000003
733,1715673414000,0.49301659999999997,-2.26158316,-0.381644214,-1.53788382,-0.79171187,3.3673030600000002
734,1715673414010,0.5925346,-2.1334782,-0.26202747,-1.7649424,-0.8445212,3.87594
735,1715673414020,0.804949422,-1.81588031,-0.186584059,-2.17611582,-0.7487222689999999,4.85524846
736,1715673414030,0.9355179760000001,-1.5942271,-0.212341646,-2.30476409,-0.67743428,5.315810539999999
737,1715673414040,1.12780965,-1.189978,-0.33687941499999996,-2.22133505,-0.7476990800000001,5.61056805
738,1715673414050,1.1936535888888888,-1.0048892555555555,-0.39755707777777777,-2.0861387333333337,-0.8638652800000001,5.579507255555556
739,1715673414060,1.25882952,-0.78414329,-0.47371055,-1.7333300999999999,-1.1828642,5.324683200000001
740,1715673414070,1.3030638199999998,-0.6694658880000001,-0.5209816,-1.46540461,-1.42168199,5.1646822
741,1715673414080,1.36853102,-0.511310304,-0.6050597200000001,-1.07173256,-1.75776476,5.031574600000001
742,1715673414090,1.4304425444444444,-0.4154510533333334,-0.640247388888889,-0.7814154666666666,-2.0299900444444443,5.021889066666667
743,1715673414100,1.5948003800000001,-0.29693196,-0.6490744279999999,-0.42398630300000006,-2.43245011,5.145775899999999
744,1715673414110,1.78182348,-0.255014888,-0.6076208160000001,-0.319513064,-2.60136976,5.34030604
745,1715673414120,2.095549,-0.22989147999999998,-0.512347,-0.28770056,-2.730839333333334,5.794956411111111
746,1715673414130,2.9256341299999997,-0.006890643000000002,-0.389278806,-0.44330490000000006,-2.6240938399999996,6.69236468
747,1715673414140,3.6598964699999996,0.343538355,-0.3421358,-0.6198755100000001,-2.5250725,7.246236040000001
748,1715673414150,4.304370477777778,0.8989210222222221,-0.31415789111111114,-0.900686911111111,-2.523043133333333,7.3164516666666675
749,1715673414160,4.76621694,1.59058058,-0.13334923999999998,-1.17909214,-2.60488214,6.82373134
750,1715673414170,4.90488985,1.97773725,0.205499795,-1.5185346499999999,-2.5209645,6.0078598
751,1715673414180,4.8448557,2.23985625,0.5476844,-1.7237854,-2.2373703,5.536119
752,1715673414190,4.700565222222222,2.431598455555555,0.7762377122222222,-1.7255925333333333,-1.9245817999999997,5.342678333333334
753,1715673414200,4.432947700000001,2.61972593,0.9820877899999999,-1.6123787999999997,-1.6287194,5.235879
754,1715673414210,4.206892,2.666924,1.0453658,-1.31994232,-1.2408810860000001,5.03695053
755,1715673414220,3.630151,2.6066155,1.0850023,-0.7675522,-0.61743206,4.597677
756,1715673414230,3.0723439,2.4235194800000004,0.9125105550000001,-0.051053074,0.05178610060000001,4.12560066
757,1715673414240,2.68610788,2.3249283600000004,0.71873706,0.57732872,0.44580946,3.7262780399999995
758,1715673414250,2.2025981,2.178359,0.42834816,1.22822095,0.6047566000000001,3.11999425
759,1715673414260,1.8727448,2.076008777777778,0.24337464222222221,1.4587292777777778,0.5965438777777777,2.6890967
760,1715673414270,1.49175772,1.9505040399999998,0.0487101588,1.5037059400000001,0.49596152799999993,2.2287419
761,1715673414280,1.1126868499999998,1.7903179000000002,-0.082870689,1.26021505,0.27588202,1.7606663
762,1715673414290,0.82334072,1.6532062,-0.092505395,0.9354943,0.13359623199999998,1.4980706
763,1715673414300,0.6500311855555555,1.5717447777777778,-0.06946204555555556,0.41661007,0.05828672666666666,1.2630657
764,1715673414310,0.432885019,1.48822101,-0.0025855159999999986,-0.043890671,0.070295321,1.09891608
765,1715673414320,0.19135264,1.4297175,0.07293109,-0.7770206,0.21777346999999997,0.8402451
766,1715673414330,-0.22902555800000002,1.44821872,0.067674678,-1.31045865,0.45578183499999997,0.55298576
767,1715673414340,-0.37685803222222225,1.520922111111111,0.040036211999999995,-1.3329079666666666,0.45015678,0.38067086666666666
768,1715673414350,-0.512103036,1.6210336399999998,0.05312505160000001,-1.10914806,0.29825494799999996,0.026206124000000004
769,1715673414360,-0.5869786711111111,1.6781535444444444,0.1251427977777778,-0.85225885,0.155668825,-0.34895676666666664
770,1715673414370,-0.610163644,1.6898974299999998,0.17367475699999999,-0.68911707,0.0866817752,-0.66138379
771,1715673414380,-0.6308172400000001,1.6888912600000001,0.24141652200000002,-0.530918244,0.0707381939,-1.16287357
772,1715673414390,-0.6219468222222222,1.7017049888888889,0.3034933233333333,-0.45097126666666665,0.14884749333333336,-1.6401222333333334
773,1715673414400,-0.555312884,1.7164598500000001,0.322646885,-0.40889791600000003,0.281425613,-2.0026605699999998
774,1715673414410,-0.44379419000000003,1.77145084,0.280004147,-0.328584415,0.482965325,-2.46392494
775,1715673414420,-0.2935740433333333,1.8303506666666667,0.24834781999999997,-0.27339613444444444,0.5583477888888889,-2.722405711111111
776,1715673414430,-0.114555466,1.8757557200000001,0.23687967,-0.185855753,0.674181406,-3.1512705599999995
777,1715673414440,0.20339601499999999,1.8929458499999998,0.21769563500000003,-0.0747546345,0.878271515,-3.7904188500000005
778,1715673414450,0.49060790499999996,1.8728836999999998,0.17473581,0.016264288000000002,1.0335076,-4.2956045000000005
779,1715673414460,0.7297987,1.8638486333333333,0.12470239866666666,0.10863220000000001,1.1108584000000001,-4.6855400666666664
780,1715673414470,0.96972734,1.86612116,0.0786753194,0.23164009600000002,1.1116831,-5.03966868
781,1715673414480,1.3358096666666668,1.8834026000000001,0.08100065533333332,0.42480588666666663,1.00904755,-5.533675533333334
782,1715673414490,1.7699509,1.9762738499999997,0.18830367,0.49794681999999996,0.915259374,-6.0334854
783,1715673414500,1.9519798800000001,2.04789389,0.26147868500000004,0.38272235499999996,0.952598532,-6.31158192
784,1715673414510,2.25172896,2.21182421,0.36403955099999996,0.15369370200000002,1.0843774800000001,-6.46573366
785,1715673414520,2.6425457444444445,2.5048073333333334,0.49145821666666667,-0.15821409,1.2741122,-6.5495443
786,1715673414530,3.05351966,2.77594268,0.5928151039999999,-0.65435887,1.5816828399999998,-6.788392880000001
787,1715673414540,3.5415176,2.93867755,0.78038092,-0.994870375,1.8819993999999998,-7.1959159999999995
788,1715673414550,3.89477,2.91395055,0.91749257,-0.9383653500000001,2.1031325,-7.542429350000001
789,1715673414560,4.1212568,2.7165407333333333,0.9866835666666667,-0.6205881866666667,2.2052234,-7.800290800000001
790,1715673414570,4.2706149799999995,2.39067624,1.02771848,-0.08561276400000001,2.19205936,-7.9419504000000005
791,1715673414580,4.326167239999999,2.000507,1.05622018,0.6527705960000001,2.06567132,-7.8171814600000005
792,1715673414590,4.3152213,1.46762216,1.08495348,1.46193799,1.89414047,-7.43946837
793,1715673414600,4.1924034599999995,1.145066826,1.09812496,2.1372952599999997,1.85373161,-6.69369348
794,1715673414610,3.9102893,0.78163093,1.0579276,2.440254,1.939039,-6.1199536
795,1715673414620,3.3764471200000004,0.353465744,0.8907836789999999,2.45660978,2.23775217,-5.15907755
796,1715673414630,2.91226145,-0.07123586400000001,0.729268171,2.23141427,2.49089466,-4.49683855
797,1715673414640,2.3340691,-0.5476234200000001,0.539787575,1.9247599499999999,2.7439303500000003,-3.7578903000000006
798,1715673414650,1.9158772999999998,-0.8638240777777777,0.3849614733333333,1.8110797111111114,2.883453622222222,-3.218682888888889
799,1715673414660,1.5301014199999998,-1.15634792,0.1857913296,1.87663914,2.9419575799999995,-2.6959315
800,1715673414670,1.1778126500000001,-1.4369131000000002,-0.103664583,2.07840792,2.87891633,-2.1582937299999996
801,1715673414680,1.0160145666666667,-1.5772871000000002,-0.29091128666666666,2.3419047333333336,2.5726590333333332,-1.4205671000000002
802,1715673414690,0.94049391,-1.66313356,-0.38838853,2.4111768,2.07419294,-0.6386596000000001
803,1715673414700,0.8979121449999999,-1.71674647,-0.389004408,2.3506095,1.8212948,-0.25793785
804,1715673414710,0.8742582999999999,-1.6991845,-0.33483663,2.0538816,1.5465581,0.25702155
805,1715673414720,0.8380977,-1.6539379,-0.25105122,1.3377949,1.4141531,0.7304421
806,1715673414730,0.8380977,-1.6539379,-0.25105122,1.3377949,1.4141531,0.7304421
807,1715673414740,0.8380977,-1.6539379,-0.25105122,1.3377949,1.4141531,0.7304421
808,1715673414750,0.8380977,-1.6539379,-0.25105122,1.3377949,1.4141531,0.7304421
809,1715673414760,0.8380977,-1.6539379,-0.25105122,1.3377949,1.4141531,0.7304421
810,1715673414770,0.8380977,-1.6539379,-0.25105122,1.3377949,1.4141531,0.7304421
811,1715673414780,0.8380977,-1.6539379,-0.25105122,1.3377949,1.4141531,0.7304421
812,1715673414790,0.8380977,-1.6539379,-0.25105122,1.3377949,1.4141531,0.7304421
813,1715673414800,0.8380977,-1.6539379,-0.25105122,1.3377949,1.4141531,0.7304421
814,1715673414810,0.8380977,-1.6539379,-0.25105122,1.3377949,1.4141531,0.7304421
815,1715673414820,0.38034738444444444,-2.0006382555555557,-0.37242688,-1.0388781333333332,-0.9522371122222223,2.773769288888889
816,1715673414830,0.8107912159999999,-1.65452346,-0.079443657,-1.63736322,-1.50416408,5.0856668
817,1715673414840,1.0627327359999998,-1.32179662,-0.133568771,-1.80962724,-1.45395092,5.4836761
818,1715673414850,1.22226646,-1.0425486,-0.19717003800000002,-1.9433150399999999,-1.50388912,5.51928952
819,1715673414860,1.36601872,-0.7944122,-0.24406301199999997,-2.00598976,-1.63965394,5.30490638
820,1715673414870,1.4443322,-0.6346237111111112,-0.2694601511111111,-1.9373421222222222,-1.7999483333333335,5.044338522222223
821,1715673414880,1.47764724,-0.477893712,-0.32370181000000003,-1.5665945000000001,-2.08482192,4.736252039999999
822,1715673414890,1.49046512,-0.425201622,-0.36015517,-1.27337922,-2.27716804,4.644744279999999
823,1715673414900,1.5267965,-0.41362170000000004,-0.3503863,-1.0193814,-2.4587326,4.6738825
824,1715673414910,1.7190636,-0.40227956,-0.292761,-0.6435465,-2.706744,4.9930596
825,1715673414920,2.04220448,-0.294858656,-0.18499859999999999,-0.48191159599999994,-2.74693888,5.53294232
826,1715673414930,2.68064416,0.032184807999999995,-0.09368839520000001,-0.60335156,-2.54064964,6.238706
827,1715673414940,3.2597938999999996,0.37990023,-0.114884753,-0.9672134800000001,-2.3441343199999998,6.5306382
828,1715673414950,3.48681949,0.514804449,-0.10579276370000001,-1.43910686,-2.29428764,6.647130200000001
829,1715673414960,4.015938833333333,0.8571638388888889,0.12695185166666667,-1.9173192777777777,-2.3378492222222227,6.6686462888888896
830,1715673414970,4.2368569,1.2041556,0.39669388,-2.0354945800000004,-2.28234524,6.63970824
831,1715673414980,4.4025984000000005,1.64015668,0.68816208,-1.8711108000000003,-2.0761782,6.548108859999999
832,1715673414990,4.474881777777778,1.9573026,0.8498395166666666,-1.4588480000000001,-1.8281669999999997,6.4079256
833,1715673415000,4.47412687,2.26546136,0.970544475,-0.97533794,-1.60397948,6.218822
834,1715673415010,4.32495991,2.55245387,0.98428302,-0.43927320099999995,-1.26853804,5.7587489099999996
835,1715673415020,4.1262164,2.7695518,0.9446283,-0.047433684,-0.9224981400000001,5.0947993
836,1715673415030,3.638559044444444,2.7927645333333335,0.8925520822222222,0.23380867555555554,-0.507476268888889,4.205671322222222
837,1715673415040,3.16762364,2.6633138599999997,0.809974116,0.452498424,-0.092484994,3.456917
838,1715673415050,2.5709731000000002,2.3624853,0.61668233,0.74510288,0.29634601,2.8477011
839,1715673415060,2.2425942,2.23437414,0.48763819999999997,0.947299256,0.466670506,2.59095444
840,1715673415070,1.8093603111111112,2.123064288888889,0.32203098888888887,1.1131491666666669,0.6229298266666666,2.3383412666666663
841,1715673415080,1.481123,2.06051675,0.18083372999999997,1.0894782,0.7874053,2.05624875
842,1715673415090,1.210095,2.00505618,0.028660211999999997,0.9646479200000002,0.8859836600000002,1.83053407
843,1715673415100,0.9461527433333333,1.9412515333333333,-0.13598353999999999,0.6011423133333333,0.9047932266666666,1.4279144666666665
844,1715673415110,0.73284763,1.8886468,-0.26038104,0.35094208,0.8487972599999999,1.2406673
845,1715673415120,0.42923236,1.8319361,-0.33599523,-0.20158553,0.53969944,0.7153232
846,1715673415130,0.1847180974,1.76530414,-0.23012928719999998,-0.749409506,0.28771753,0.15042556
847,1715673415140,-0.223702083,1.6176553500000002,-0.008354146,-1.2836417,0.17657060200000002,-0.46184468
848,1715673415150,-0.39886473499999997,1.60399605,0.066863655,-1.3286319,0.24449882500000003,-0.6747007
849,1715673415160,-0.47822571444444445,1.6328256555555556,0.10745884,-1.2936428666666666,0.3167675777777778,-0.8089552999999999
850,1715673415170,-0.529872382,1.70716052,0.1162019,-1.1908207,0.43282857,-1.11131659
851,1715673415180,-0.5297443420000001,1.73621108,0.0986947808,-1.09109694,0.491868694,-1.49249652
852,1715673415190,-0.48452216200000003,1.7298387800000001,0.08453541719999999,-0.9433897199999999,0.503139151,-1.91074068
853,1715673415200,-0.42770788,1.7075995,0.06793079,-0.7646506,0.49373183,-2.306169
854,1715673415210,-0.323915249,1.6927144899999997,0.03773390788,-0.430553105,0.458729265,-2.81217922
855,1715673415220,-0.22592781,1.6875374,-0.0018293752,-0.15057829,0.42714754,-3.2307136
856,1715673415230,-0.041106054989999995,1.6823054,-0.01750711978,-0.003512478000000002,0.46065347599999995,-3.5814113599999997
857,1715673415240,0.27744842999999997,1.7388345,-0.056988421111111104,0.10247264333333334,0.6020755444444444,-4.081648777777778
858,1715673415250,0.5062063489999999,1.8032637900000001,-0.0978837585,0.0888198018,0.695974041,-4.2932983
859,1715673415260,0.862611276,1.87603632,-0.150203882,0.08500189799999999,0.798950662,-4.6482264
860,1715673415270,1.2604089,1.9749323,-0.19406620000000002,0.1306029916,0.81321435,-5.0467854
861,1715673415280,1.5513304,2.0727225666666667,-0.21456536333333334,0.19798821777777775,0.7774108611111111,-5.384420833333333
862,1715673415290,1.8746642999999998,2.1546804899999996,-0.192188044,0.377697984,0.58774401,-6.204588899999999
863,1715673415300,2.19570124,2.1385516000000004,-0.11051865000000001,0.487607913,0.44947464000000004,-6.86986701
864,1715673415310,2.41366516,2.05642502,-0.029367565,0.49997792499999993,0.41945061,-7.173298730000001
865,1715673415320,2.669485,1.9784691,0.095615335,0.44486260000000005,0.4436409,-7.503716000000001
866,1715673415330,3.01815172,1.990665,0.32961679,0.33162347999999997,0.620440542,-7.4856496
867,1715673415340,3.2954970500000003,2.06005935,0.519451025,0.212489476,0.88331114,-7.4870087
868,1715673415350,3.4999601,2.07771886,0.628256164,0.26120598,1.0892032999999999,-7.5528292399999994
869,1715673415360,3.7804949,2.0728038,0.8008089650000001,0.47639853,1.2208906,-7.610999099999999
870,1715673415370,3.9809572444444448,2.020429488888889,0.9936284388888887,0.6972347777777778,1.2761654111111111,-7.59585488888889
871,1715673415380,4.07267668,1.89414712,1.16471424,0.92222322,1.40703646,-7.522225199999999
872,1715673415390,4.0521694,1.72075891,1.24705443,1.1098810499999998,1.59515236,-7.371173520000001
873,1715673415400,3.969703266666667,1.5174192666666666,1.2269753777777777,1.3252721555555556,1.774105322222222,-7.085697533333334
874,1715673415410,3.7766474000000003,1.2031556399999999,1.122169054,1.66735666,1.8872986600000001,-6.6147236
875,1715673415420,3.4119062,0.875295,0.9391401399999999,2.0436497,1.8910861,-6.103918
876,1715673415430,2.6280007999999997,0.40344429000000004,0.740963983,2.30346601,1.69072223,-5.29681258
877,1715673415440,2.3636812333333332,0.23887574044444446,0.6944850077777778,2.1743748444444444,1.6372885333333334,-4.871769055555555
878,1715673415450,1.81489866,-0.15559444960000002,0.630817282,1.49075552,1.7686992,-3.8902038599999997
879,1715673415460,1.5932272,-0.348715476,0.564252408,1.0326066200000001,1.9463235600000002,-3.33291138
880,1715673415470,1.31916233,-0.637768931,0.44492839999999995,0.6284123580000001,2.10114735,-2.76937283
881,1715673415480,1.1405787,-0.840500316,0.348447162,0.323269884,2.24410514,-2.18995192
882,1715673415490,0.975869928888889,-1.0254054111111113,0.21898974111111114,0.18234328,2.345637611111111,-1.6000257777777778
883,1715673415500,0.900064731,-1.1486828800000002,0.1056585962,0.185473958,2.32582373,-1.1920424
884,1715673415510,0.86314797,-1.2532377799999999,0.0161899686,0.257815685,2.19083763,-0.724043255
885,1715673415520,0.8527875699999999,-1.37056775,-0.049691923000000006,0.41984768800000005,1.96212972,-0.092393372
886,1715673415530,0.8037393333333333,-1.545699988888889,-0.17987499666666668,0.5356270000000001,1.7436639333333332,0.33928474
887,1715673415540,0.757422232,-1.62268006,-0.248331566,0.495778232,1.6144557599999998,0.494648144
888,1715673415550,0.672368484,-1.7273202600000002,-0.34410544,0.349308014,1.4336243400000002,0.6712645700000001
889,1715673415560,0.57338712,-1.8503640799999999,-0.44641627,0.05232060400000001,1.20829142,0.8555473280000001
890,1715673415570,0.4942497133333333,-1.9604260777777778,-0.5313724333333334,-0.20457198444444444,1.0050430222222222,1.0162252433333334
891,1715673415580,0.390388628,-2.0845119399999996,-0.620743532,-0.51874677,0.7274488880000001,1.2480894
892,1715673415590,0.24858158000000002,-2.2022626,-0.70251051,-1.02704775,0.26429085072,1.7704401600000002
893,1715673415600,0.20903049,-2.2242150700000005,-0.6937539,-1.38907701,-0.08408559924,2.31137655
894,1715673415610,0.21086596,-2.2203734,-0.65930676,-1.6088663,-0.29703322,2.766456
895,1715673415620,0.3714241,-2.1218312,-0.48984566,-1.8548924,-0.55955255,3.7592647
896,1715673415630,0.649495224,-1.8093982700000002,-0.424835767,-1.92595122,-0.637483705,4.91668634
897,1715673415640,0.880124522,-1.4732688600000001,-0.435781522,-1.96370265,-0.705702075,5.6692875
898,1715673415650,1.0449268,-1.14570098,-0.5077247540000001,-1.99258138,-0.8099768,5.85938872
899,1715673415660,1.1865936222222222,-0.8632956444444445,-0.6039647955555556,-2.016381377777778,-1.0474642333333335,5.781551166666667
900,1715673415670,1.2539390400000001,-0.7106146640000001,-0.6552089600000001,-1.9579452200000003,-1.3995839,5.5311712
901,1715673415680,1.3132270555555556,-0.5265619155555555,-0.6867067222222222,-1.7598009666666667,-1.8419454000000002,5.172823844444444
902,1715673415690,1.3370170600000002,-0.4457577199999999,-0.676649248,-1.5019955,-2.18002538,4.90540058
903,1715673415700,1.3592134599999999,-0.43744014,-0.65405039,-1.16110207,-2.5126719799999995,4.7194838
904,1715673415710,1.4204853,-0.4684724800000001,-0.631622203,-0.892351945,-2.74997796,4.78185346
905,1715673415720,1.5574689,-0.4874065,-0.5597278,-0.6788579055555556,-3.0063564,5.176387366666667
906,1715673415730,2.00994055,-0.38342481,-0.328744783,-0.726685288,-3.08157076,5.848424
907,1715673415740,2.6590271000000003,-0.15028314699999998,-0.22665956,-1.04137252,-2.8625909,6.63101875
908,1715673415750,3.3669038999999996,0.141868033,-0.22348864499999999,-1.3120622,-2.7486645,7.058624249999999
909,1715673415760,4.02247898,0.517700944,-0.15092343800000002,-1.48822048,-2.7529863600000004,7.319509399999999
910,1715673415770,4.511456111111111,0.9371956333333333,-0.033680828555555556,-1.5538884888888889,-2.790211777777778,7.398120977777777
911,1715673415780,4.9572042,1.48351346,0.1844497944,-1.4962228199999998,-2.86648516,7.045780840000001
912,1715673415790,5.1519958,1.8347900400000001,0.45447775999999995,-1.4255457,-2.82629036,6.62935386
913,1715673415800,5.2012059399999995,2.13894186,0.8049372399999999,-1.25114361,-2.42754804,5.91604661
914,1715673415810,5.1650577,2.2766573,0.9871918,-1.0763275444444445,-2.0185194666666666,5.568155555555555
915,1715673415820,4.879675,2.5364895,1.1264682,-0.7622071,-1.4436272,5.285664
916,1715673415830,4.30192141,2.6324036399999997,1.07359926,-0.162215263,-0.74334662,4.7997516
917,1715673415840,3.5632566,2.48788915,0.95100062,0.314137445,-0.182266915,4.17404235
918,1715673415850,3.15811112,2.355235,0.8810514319999999,0.524977588,0.134084924,3.8045298799999996
919,1715673415860,2.5941555666666662,2.1217904666666665,0.7256927466666667,0.6864598399999999,0.59320106,3.4357098
920,1715673415870,2.18249326,1.96033999,0.539958336,0.7287927679999999,0.91455691,3.28361453
921,1715673415880,1.7718473,1.87251178,0.29670023199999995,0.781204988,1.11406548,3.08370878
922,1715673415890,1.4367911,1.8443759499999999,0.0865599245,0.841894476,1.1448836,2.88310064
923,1715673415900,1.2797426555555556,1.8350392333333332,-0.009634708666666667,0.8874345155555555,1.0900380955555555,2.6404480666666665
924,1715673415910,1.0190716800000001,1.8208501300000002,-0.152533295,0.869765216,0.9438631340000001,2.3074977999999997
925,1715673415920,0.7297377,1.7990074,-0.2619665,0.6998072399999999,0.643607636,1.7424931000000001
926,1715673415930,0.22825111800000003,1.65373058,-0.20171299299999998,0.3526830612,0.35479053,1.18953784
927,1715673415940,0.025238601999999995,1.5834595666666667,-0.15135707555555555,-0.18816346111111112,0.24203837888888888,0.8224621777777777
928,1715673415950,-0.215219862,1.55437118,-0.040526755600000006,-0.584353688,0.2524706,0.676624884
929,1715673415960,-0.35285595000000003,1.6248508999999998,0.024696563999999997,-0.9580657699999999,0.370413405,0.531376405
930,1715673415970,-0.438537794,1.71895396,0.027013772599999996,-1.18746096,0.484813182,0.3105027956
931,1715673415980,-0.47783275999999997,1.7841895,0.009817646,-1.2702943,0.53624802,0.030298919199999996
932,1715673415990,-0.4993110122222222,1.8773792,-0.020970058,-1.2299771,0.5334381,-0.28710666
933,1715673416000,-0.45378257,1.9285880800000001,-0.07684595,-0.737069988,0.317466672,-1.23012986
934,1715673416010,-0.39158381000000003,1.91395312,-0.10371947,-0.402896157,0.112261758,-1.7500373
935,1715673416020,-0.3220580711111111,1.845907122222222,-0.083006199,-0.12217305,-0.09117164,-2.229811
936,1715673416030,-0.21534183599999998,1.71901504,0.039868181200000005,0.025381452399999997,-0.24323127900000002,-2.9091387699999998
937,1715673416040,-0.10923807199999999,1.64233984,0.152813804,-0.0658207316,-0.17409660168000002,-3.25786644
938,1715673416050,0.045764865,1.5714636499999999,0.22233005500000003,-0.27986792200000005,0.08546005096,-3.6132067599999997
939,1715673416060,0.17131080666666668,1.5378539,0.22436268666666667,-0.41822211444444446,0.3062980111111111,-3.8829138888888886
940,1715673416070,0.349483801,1.51459448,0.204975373,-0.458713994,0.47131307,-4.13874939
941,1715673416080,0.5936443619999999,1.5009779,0.21113426999999999,-0.348468082,0.5962961200000001,-4.48075778
942,1715673416090,0.76361156,1.4925749400000001,0.24083112299999998,-0.2252565577,0.6436534500000001,-4.6869705
943,1715673416100,1.0464634666666666,1.5065513000000001,0.23483077,-0.011725219888888885,0.7273878,-5.0068209999999995
944,1715673416110,1.1989114,1.5105759,0.22568390999999996,0.13912456,0.7669413,-5.319567
945,1715673416120,1.5901538,1.551554,0.24635585,0.20891592,0.7867944,-5.751449
946,1715673416130,1.8927248,1.56948185,0.33729863625,0.07639633125,0.90597040625,-6.30244965
947,1715673416140,2.1130502800000004,1.57457964,0.42018305599999994,-0.05552765,1.01773202,-6.558646400000001
948,1715673416150,2.37104088,1.68048828,0.5575813000000001,-0.226814262,1.2335507399999999,-6.696885280000001
949,1715673416160,2.6466110555555553,1.9045961555555553,0.7045261833333334,-0.28215186666666664,1.4451714666666666,-6.622559866666666
950,1715673416170,2.9479829000000004,2.1539976199999997,0.82040155,-0.273453826,1.65663604,-6.498659340000001
951,1715673416180,3.3098394399999997,2.4487404,0.93390816,-0.265665298,1.89359059,-6.451378410000001
952,1715673416190,3.7678357500000006,2.6339219,1.0332370800000001,-0.23495404999999997,2.2476786,-6.647512000000001
953,1715673416200,4.0841206,2.589155,1.0247142333333334,-0.0030712955555555568,2.439507311111111,-6.833291333333333
954,1715673416210,4.21282506,2.46626583,0.9536654,0.38411206800000003,2.4239438,-6.884329199999999
955,1715673416220,4.2747738,2.20250656,0.8794171800000001,1.22063094,2.15259746,-6.766798799999999
956,1715673416230,4.21449553,1.8966533900000002,0.8436406200000001,2.0026148800000003,1.8234175699999997,-6.5026303
957,1715673416240,3.8712421888888886,1.5322438777777778,0.8143361666666666,2.5411485000000003,1.5821749333333333,-6.032395977777778
958,1715673416250,3.4321818800000004,1.185575242,0.721401831,2.3833518000000002,1.6521767,-5.7635136199999994
959,1715673416260,2.9176093,0.69775412,0.55664836,1.89673655,1.82954145,-5.35377585
960,1715673416270,2.59620028,0.38985812579999995,0.463551446,1.4522404999999998,1.98128038,-4.9386623400000005
961,1715673416280,2.1757976666666665,-0.03028632266666666,0.34888214666666667,1.1121310866666667,2.1091141333333336,-4.4693447666666675
962,1715673416290,1.9484673999999997,-0.28416294,0.2889193,0.9732610600000001,2.1697934,-4.1543417
963,1715673416300,1.62952188,-0.69012563,0.17314423799999998,0.9145263299999999,2.2438303,-3.48138199
964,1715673416310,1.3816964999999999,-0.9798803599999999,0.0635463924,0.9715200599999999,2.2293221,-3.01367304
965,1715673416320,1.1343954666666667,-1.2778794333333332,-0.049535411333333335,1.1434718555555554,2.079809611111111,-2.165602088888889
966,1715673416330,1.02474266,-1.43303488,-0.09179804,1.2330926,1.9601139200000002,-1.6641801600000001
967,1715673416340,0.968007668,-1.57188438,-0.11973868800000001,1.27686102,1.8121012,-0.9826988700000001
968,1715673416350,0.928072455,-1.6929951500000002,-0.15244792000000001,1.17202135,1.6901877500000002,-0.287259385
969,1715673416360,0.9116690350000001,-1.7566879,-0.187815845,0.9576076499999999,1.63398815,0.061162885
970,1715673416370,0.8970577000000001,-1.8061893333333334,-0.22978305888888892,0.7110471666666666,1.5924748,0.2410881533333333
971,1715673416380,0.813706,-1.9182521000000001,-0.36294798500000003,0.40347649900000004,1.5245822,0.33773213199999996
972,1715673416390,0.7172247589999999,-1.9931467399999998,-0.46681380399999994,0.10294606499999999,1.3823117200000001,0.363174668
973,1715673416400,0.5335677166666666,-2.1262013,-0.6217639155555555,-0.22790364444444444,1.0919046444444445,0.4343252
974,1715673416410,0.4310278833333333,-2.2064634,-0.690575531111111,-0.3749864222222222,0.8746232755555555,0.5640661888888889
975,1715673416420,0.28879735,-2.3030002,-0.7719353,-0.5661194,0.39950588,0.9728028999999999
976,1715673416430,0.24819741999999997,-2.33050188,-0.6833508500000001,-0.7392844199999999,-0.261328159,1.9263788300000002
977,1715673416440,0.26528377999999997,-2.3105617699999996,-0.55752035,-0.91706144,-0.670271908,2.9230207800000003
978,1715673416450,0.40656167555555556,-2.109357466666667,-0.3911677866666667,-1.2015210222222223,-0.7347521,3.982586833333334
979,1715673416460,0.564862232,-1.9055380800000001,-0.361899146,-1.49200784,-0.7360926,4.6499977
980,1715673416470,0.73283546,-1.66936569,-0.381674708,-1.82361602,-0.76715511,5.20133431
981,1715673416480,0.9015363833333334,-1.3982523,-0.4149225966666667,-2.1169535333333336,-0.8589783233333333,5.5295523
982,1715673416490,1.0155531549999999,-1.1895266599999998,-0.449562831,-2.2080335599999996,-1.050566022,5.5665705
983,1715673416500,1.1287548699999999,-1.0018571589999998,-0.517585084,-2.11191386,-1.3119858,5.47063404
984,1715673416510,1.1840324,-0.91883403,-0.5629597,-1.9430096,-1.5215126,5.3823338
985,1715673416520,1.2537385333333333,-0.8466889900000001,-0.5944520111111111,-1.5767620444444443,-1.8637329555555557,5.311337533333333
986,1715673416530,1.4559387000000001,-0.728426625,-0.524664775,-0.491166184,-2.62128382,5.34949952
987,1715673416540,1.6370671333333333,-0.6954267333333334,-0.45669332,-0.03700825333333334,-2.8623618666666664,5.567273133333334
988,1715673416550,1.9814204,-0.61097466,-0.32872649200000004,0.24510967,-3.0020514,6.027193560000001
989,1715673416560,2.42921476,-0.42859818,-0.166095062,0.06925684,-2.86121655,6.78060435
990,1715673416570,3.0238228,-0.137727548,-0.042197585332,-0.42684208,-2.51806295,7.411246350000001
991,1715673416580,3.762685777777778,0.27866124666666664,0.012914032964444445,-1.0654168777777777,-2.197384088888889,7.889154888888888
992,1715673416590,4.09375114,0.499529144,0.0338251454,-1.52416994,-2.04039678,8.112580499999998
993,1715673416600,4.91475008,1.2195833400000002,0.20621935200000002,-2.15627805,-1.8730654999999998,7.9643085
994,1715673416610,5.26892936,1.62127756,0.397010968,-2.3430042699999998,-1.8098104200000003,7.73754016
995,1715673416620,5.5674047,2.1072707,0.7366961055555555,-2.3661016888888886,-1.6380182555555556,7.211162311111112
996,1715673416630,5.5686665,2.55881998,0.984728244,-2.00391296,-1.27683056,6.3454238
997,1715673416640,5.195376319999999,2.68709592,1.0536469,-1.36171026,-1.1230452,5.65123648
998,1715673416650,4.541240533333333,2.564275688888889,1.0574194777777777,-0.30013844666666667,-0.9861910233333333,4.901277266666667
999,1715673416660,3.9769027800000005,2.40126214,0.9938507079999999,0.679404316,-0.7804109020000001,4.36072276
1000,1715673416670,3.4946307599999997,2.2968169400000003,0.864038202,1.2951870199999997,-0.52971181,4.034917640000001
1001,1715673416680,2.9390806888888887,2.2012801111111115,0.6753578555555556,1.542400811111111,-0.16761464055555553,3.7304862222222224
1002,1715673416690,2.59777348,2.1389052,0.55106878,1.3028533960000002,0.1321912362,3.5333058
1003,1715673416700,2.1980245,2.0849692,0.38465659999999996,0.690186108,0.521281856,3.2783000600000003
1004,1715673416710,1.9650291,2.08080442,0.27493066199999994,0.07686211200000001,0.813214355,3.02480627
1005,1715673416720,1.7605295,2.1006105,0.14897211,-0.3089451,0.9500481500000001,2.8322768
1006,1715673416730,1.29663666,2.1316243999999998,-0.0352947396,-0.654404665,0.85342455,2.2702959199999997
1007,1715673416740,1.01914486,2.11419654,-0.11557991199999999,-0.7506617600000001,0.625373296,1.64050914
1008,1715673416750,0.57552138,1.9737433,-0.160924025,-0.574595135,0.18142697400000002,0.913854425
1009,1715673416760,0.29078933433333337,1.8772437666666666,-0.12990595533333332,-0.5072217677777778,-0.1211379711111111,0.46590354111111115
1010,1715673416770,-0.0799314982,1.79614142,-0.035258156400000004,-0.5496871000000001,-0.28805351,0.126937802
1011,1715673416780,-0.257283316,1.79982454,0.0190620874,-0.647364462,-0.32491923600000006,-0.079656832
1012,1715673416790,-0.49612653,1.87885965,0.0414353445,-0.8932376750000002,-0.274507575,-0.4966334499999999
1013,1715673416800,-0.6064988419999999,1.91555688,0.01812300859,-1.08358324,-0.223301786,-0.88789262
1014,1715673416810,-0.6516437333333334,1.8938096666666668,-0.012317791799999998,-1.2534614777777777,-0.22486627666666667,-1.2614536777777778
1015,1715673416820,-0.6719294,1.8527910000000003,-0.022318374,-1.4660766,-0.25503623,-1.7174476000000003
1016,1715673416830,-0.6356468399999999,1.7330645,0.0284040948,-1.71676037,-0.273820348,-2.30583294
1017,1715673416840,-0.55327614,1.6638165900000002,0.093584727,-1.8810983800000003,-0.284693758,-2.8065287
1018,1715673416850,-0.39726572222222223,1.6169371666666668,0.16821442444444445,-1.8617815444444443,-0.2174171322222222,-3.321800477777778
1019,1715673416860,-0.246782695,1.5972578499999999,0.21120134,-1.6778941,-0.141873458,-3.7084865999999996
1020,1715673416870,-0.086992887,1.57834822,0.254764863,-1.40407374,-0.07895433357000001,-4.0047257
1021,1715673416880,0.148557446,1.54547428,0.325000689,-0.9199478119999999,0.04008803447,-4.4246497499999995
1022,1715673416890,0.3795953266666667,1.5094173,0.34085323333333334,-0.49001575333333336,0.22087869000000002,-4.825818277777778
1023,1715673416900,0.6109137199999999,1.4822693999999998,0.32673857999999995,-0.261267069,0.367175819,-5.1190201
1024,1715673416910,0.82512743,1.4899345499999999,0.348416692,-0.211756428,0.509217276,-5.35603588
1025,1715673416920,1.0903685,1.5044781,0.38282722,-0.27198774,0.7049385,-5.5788794
1026,1715673416930,1.4603088,1.5413094111111112,0.3920757044444445,-0.44547348666666664,1.077769911111111,-5.932468777777778
1027,1715673416940,1.7688349799999998,1.58944636,0.394205916,-0.609796228,1.3885577599999999,-6.2300924
1028,1715673416950,2.08448754,1.6853544800000002,0.414963236,-0.8863349639999999,1.7675997200000002,-6.6112722
1029,1715673416960,2.2238493,1.7299181,0.41880494,-1.0528263,1.9509509,-6.8126745
