id,timestamp,acc_x,acc_y,acc_z,gyro_x,gyro_y,gyro_z
0,1715699885.710491,0.8422018,-0.6633028,0.25443426,0.44288749,1.1831875,-0.55825
1,1715699885.7534058,0.7790061,-0.60591745,-0.09643731,1.079925,0.6408875,-0.43353748
2,1715699885.8604999,0.8941896,-0.36941895,-0.24506116,-2.21705,2.03225,0.667975
3,1715699885.876135,0.82048935,-0.33211008,-0.16350153,-2.7560499,1.7423999,0.465575
4,1715699885.891636,0.69337916,-0.3587156,-0.19551988,-2.9690375,1.6231875,0.482625
5,1715699885.9179695,0.604786,-0.6537156,-0.26218656,-4.0418124,2.174975,0.79048747
6,1715699885.9339652,0.61181957,-0.71478593,-0.19816515,-4.34335,2.3720124,0.7222875
7,1715699885.9532638,0.56452596,-0.8912386,0.2827676,-3.90115,1.5101625,0.2376
8,1715699885.978084,0.6335321,-0.87074924,0.4216055,-2.5504875,0.0188375,0.0031625
9,1715699885.9936256,0.6011162,-0.80948013,0.31203365,-2.1264374,-0.4786375,0.0042625
10,1715699886.010538,0.604786,-0.6727829,-0.17258409,-1.53945,-1.0795125,0.2811875
11,1715699886.039397,0.72558105,-0.7564679,-0.4029511,-2.1648,0.049775,0.7990125
12,1715699886.0549855,0.89744645,-0.7855199,-0.059633028,-2.5983374,0.6408875,0.7030375
13,1715699886.0707278,0.9725841,-0.7681957,0.0567737,-2.5174875,0.5589375,0.5401
14,1715699886.0891826,1.179312,-0.817737,0.17094801,-2.2010999,-0.135575,0.15125
15,1715699886.1129308,2.0657492,-0.7370031,0.23047401,-1.5939,-0.81743747,-0.599775
16,1715699886.1285334,2.432309,-0.40948012,0.14801224,-1.7408875,-0.3273875,-1.3167
17,1715699886.2334044,3.2398624,-1.0662538,0.70224774,-0.3656125,3.51285,-3.6443
18,1715699886.2493956,2.9977522,-1.1557646,0.8923548,-0.3804625,4.5802627,-4.4422126
19,1715699886.2624815,2.738838,-1.2588227,1.1269113,-0.12595,4.635675,-4.5263624
20,1715699886.2840278,2.8456728,-1.4525994,0.7903211,2.37325,4.9713125,-3.8009124
21,1715699886.3114707,3.8702295,-1.535581,-0.9301682,2.2900624,6.3784876,-3.026375
22,1715699886.333902,4.276147,-1.4701376,-0.85616213,0.36519998,7.9678497,-2.3467126
23,1715699886.3544827,4.5196786,-1.5511774,-0.30316514,1.3112,7.8431373,-2.1923
24,1715699886.37057,4.8907185,-1.6012232,0.8074465,1.9790375,7.7174625,-2.251975
25,1715699886.386153,6.0270185,-1.4154893,-0.44790518,4.604875,8.54205,-3.2074625
26,1715699886.411625,6.2246637,-1.2182416,-1.319159,4.29385,9.263237,-4.9599
27,1715699886.4272487,5.138425,-1.1823701,-0.7878746,4.5953875,8.485538,-7.0637875
28,1715699886.442881,4.1555505,-1.3204893,-0.9042813,4.7359123,8.226763,-7.7605
29,1715699886.4638858,2.493578,-1.1319113,-1.1005046,3.9859874,7.3052373,-7.530325
30,1715699886.4822953,2.3729818,-0.6202905,-1.571055,3.006025,7.3660126,-7.57295
31,1715699886.5117621,1.4524006,-0.5959174,-1.2323089,2.20165,6.7002373,-8.085412
32,1715699886.5894632,1.4524006,-0.5959174,-1.2323089,1.9822,6.2442875,-8.45185
33,1715699886.6116662,1.3415902,-0.5656422,-1.0756422,-1.3498375,4.1168876,-4.090625
34,1715699886.6274393,0.5332263,-1.0003059,0.85993886,1.7276875,1.044725,-5.3838124
35,1715699886.6430767,-0.40408257,-1.27289,1.177477,3.729275,-0.2102375,-5.0620623
36,1715699886.6641867,0.29969418,-1.3547401,-2.9231346,7.3863626,1.294975,-2.976325
37,1715699886.680073,0.39490825,-1.2236544,-4.404083,6.345625,1.6028374,-2.7121875
38,1715699886.6962721,-0.31640673,-1.1401682,-5.7583027,1.1716375,0.2041875,-2.4330626
39,1715699886.7120795,-2.24526,-1.5802293,-3.199587,-5.0197124,0.24255,0.59125
40,1715699886.7276998,-2.4065292,-1.6931652,-1.7958256,-5.0197124,0.24255,0.59125
41,1715699886.7432055,-1.6206881,-1.7470948,-0.78542817,-5.991287,0.166925,4.7212
42,1715699886.7703438,2.2880733,-1.938945,-0.93455654,-4.112075,-0.4519625,4.2131376
43,1715699886.7859528,1.9771713,-2.1591284,-0.17084098,-4.9952374,-0.02915,-0.1907125
44,1715699886.8015265,1.2890979,-2.2881806,0.7691132,-4.5637627,-0.1249875,-1.4051125
45,1715699886.809675,0.09276758,-2.4761467,1.8857338,-2.45135,-0.6650875,-2.606725
46,1715699886.8341181,-1.6594343,-2.5503516,1.8427063,1.8843,-1.252075,-2.6439874
47,1715699886.8566859,-2.3790061,-2.895413,-0.1501529,3.949825,-1.64615,-1.485
48,1715699886.8732102,-2.533746,-2.8481193,-2.670948,1.0406,-0.5372125,1.6874
49,1715699886.888692,-2.5173242,-2.7646332,-2.1933794,-0.93555,-0.408375,2.98705
50,1715699887.0759451,1.4746177,-2.0731957,-4.5978594,5.8683624,3.3009624,9.7482
51,1715699887.0921357,1.5880734,-2.3201835,-4.5380273,3.208425,2.0854626,12.848138
52,1715699887.11789,5.8307796,-4.2811465,-2.6700306,1.3143625,-2.667775,16.994175
53,1715699887.1335702,7.9916363,-4.2263,-2.7071407,1.7425375,-3.5178,17.043125
54,1715699887.1492832,7.9916363,-3.7088685,-3.110092,2.16975,-1.122,15.123625
55,1715699887.168894,6.883685,-2.7216055,-2.364419,-0.2718375,0.17545,13.243313
56,1715699887.1844833,5.3814526,-2.6889908,-1.3330275,-1.7579374,-0.7332875,12.855562
57,1715699887.2094934,4.964113,-2.6638072,-0.9160092,-2.1041625,-1.2626625,12.680938
58,1715699887.2288654,4.377875,-2.9787004,-0.8944954,-3.0361376,-2.5751,12.168475
59,1715699887.244485,3.691636,-2.8854282,0.335474,-3.388825,-1.13905,11.399438
60,1715699887.2599537,3.2998931,-2.851483,0.6798165,-2.72085,-0.4467375,11.3568125
61,1715699887.2757533,3.237202,-3.03578,0.5738991,-2.0636,0.3064875,11.378125
62,1715699887.3768206,3.611315,-0.34698778,0.66788995,-3.53375,1.69345,4.8129125
63,1715699887.4147744,4.1958256,1.2299695,-1.3035626,-6.4268875,7.335075,6.7112374
64,1715699887.4326334,4.08552,-0.88490826,7.255963,5.9866123,-3.1928875,-5.4679623
65,1715699887.4483318,2.6529052,-2.9729817,1.8729817,8.532562,-2.2704,-6.5641127
66,1715699887.4638171,1.958104,-3.2607493,0.37328747,8.809487,-2.0009,-6.637675
67,1715699887.4801626,1.1973548,-2.7648318,-1.685214,3.391575,2.7927625,-3.18615
68,1715699887.499555,3.6584096,-3.0284405,-0.10010704,1.8044125,5.456,-1.541375
69,1715699887.5233042,4.6978593,-4.321407,-0.56769115,3.6664374,2.19725,-3.5707374
70,1715699887.5531526,2.969725,-4.013456,-1.1612692,4.691225,-0.845075,-5.1484127
71,1715699887.579233,1.7914374,-1.9938838,-1.8607491,-0.2888875,4.3608127,-1.373075
72,1715699887.5947227,2.1594343,-1.574312,-1.0809327,-1.5970625,5.1033125,-0.649825
73,1715699887.6156826,2.7649388,-0.9139602,1.1328287,-0.977075,3.7675,-2.2721875
74,1715699887.644199,1.4216055,-0.84025997,1.2616667,1.6083375,1.3728,-3.42375
75,1715699887.731614,1.4216055,-0.84025997,1.2616667,1.8715125,1.3492875,-3.4067
76,1715699887.7538724,3.1148777,-2.1713607,-0.45596328,6.3530498,0.674025,-6.9092374
77,1715699887.7700288,3.0224311,-2.590627,-0.7824618,6.2018,1.034,-8.271725
78,1715699887.7856243,2.8647246,-2.7994955,-0.7493425,6.0898747,1.0415624,-9.032375
79,1715699887.8164678,3.3462846,-3.0130427,-1.6787002,5.281375,0.54395,-10.732562
80,1715699887.8320947,3.566162,-2.9948013,-2.141896,4.4845624,0.6004625,-11.288612
81,1715699887.8477333,3.8763454,-2.8073394,-2.3241591,2.061125,0.2979625,-12.6915245
82,1715699887.861135,3.424358,-2.7345567,-1.975948,1.3154625,0.3576375,-12.993062
83,1715699887.8890355,2.587263,-2.345367,-0.9774771,1.3206875,-0.3711125,-12.708575
84,1715699887.9167476,2.1028593,-2.0556574,-2.530688,-0.367675,-0.9559,-11.31625
85,1715699887.9386082,1.6088685,-1.9846023,-2.2973547,-1.3253624,-0.776875,-10.6282
86,1715699887.955176,1.0201834,-1.7146789,-0.8234404,-1.9837124,-2.5548875,-8.886487
87,1715699887.9871528,0.94016814,-1.3556575,-0.7182416,-0.639375,-3.140775,-7.4333873
88,1715699888.0033612,-0.39285934,-2.2366972,-3.8363914,-1.23805,-2.5100625,-6.8932877
89,1715699888.0195312,-0.39285934,-2.2366972,-3.8363914,-3.2173624,-2.5782626,-6.365975
90,1715699888.0470002,-2.4214067,-3.4599388,-2.925994,-7.51025,-2.1723626,-3.4951124
91,1715699888.1098382,-2.763104,-3.737202,-2.606835,-7.51025,-2.1723626,-3.4951124
92,1715699888.125414,-3.3815444,-5.6183486,4.369006,4.977775,2.40075,0.5762625
93,1715699888.1437542,-2.3611622,-4.708761,1.233838,5.415575,2.8439126,0.886325
94,1715699888.1604142,-1.0788991,-3.164113,-1.7174313,5.3260627,2.1951876,1.019425
95,1715699888.1862683,-2.054633,-2.7011163,-1.7370031,3.1763875,1.294975,2.1209376
96,1715699888.2171109,-0.8529052,-2.9202907,-0.80347097,2.277275,0.7016625,6.8560247
97,1715699888.2331967,2.6231346,-2.3501527,-1.7111162,1.5188249,1.7488625,8.150312
98,1715699888.2659383,2.851575,-1.4095871,0.0051987767,1.062875,1.0456874,6.097575
99,1715699888.2814627,1.9852141,-1.4323089,0.19408257,3.491675,0.2701875,4.999225
100,1715699888.2974684,1.6540214,-1.6894956,-0.088577986,4.1298122,0.2787125,5.286875
101,1715699888.3182425,2.5137615,-1.717844,-0.83619267,4.818,0.8017625,5.3997626
102,1715699888.334782,3.4995873,-1.138945,-1.9273242,4.16185,2.289925,4.5412126
103,1715699888.3503551,3.113257,-0.92518353,-1.819266,4.16185,2.289925,4.5412126
104,1715699888.380225,1.6715597,-1.0207951,-1.7006116,1.7873625,1.6539875,5.6106873
105,1715699888.392364,1.6435322,-1.2394495,-1.6727828,1.0022374,1.7051375,6.6078377
106,1715699888.400465,1.7503515,-1.3771713,-1.5385321,0.48125,1.35685,7.429125
107,1715699888.419589,1.9180428,-1.4794037,-1.6344496,0.11055,0.9807875,8.072625
108,1715699888.4977021,1.9180428,-1.4794037,-1.6344496,-0.4401375,0.704825,8.572163
109,1715699888.528581,3.2135627,-2.6716666,-1.334052,-3.472975,-2.2138875,10.87735
110,1715699888.5442078,3.6552446,-2.4651375,-1.5949082,-3.960825,-2.15105,10.807088
111,1715699888.559792,4.5226297,-2.045367,-1.8956116,-5.1613374,-2.6006749,10.2223
112,1715699888.580582,5.002446,-1.9157951,-1.9929663,-7.0767126,-2.6006749,9.296513
113,1715699888.597331,5.0771713,-2.5769572,-1.6557646,-8.0696,-2.5174875,8.994013
114,1715699888.6272101,5.3946943,-3.2622783,-0.5359786,-9.66955,-0.63305,8.626475
115,1715699888.6429634,7.549236,-3.7010245,-0.8102905,-10.156438,0.2937,7.524
116,1715699888.6584568,7.1672783,-3.76789,0.71712536,-10.568663,0.78155,6.3064375
117,1715699888.6803021,5.3892965,-3.2768657,2.2064219,-8.916463,0.0039875,2.9913125
118,1715699888.696474,4.746177,-3.0638075,2.7574923,-7.8863125,0.3799125,3.044525
119,1715699888.714666,4.798884,-2.685321,3.4142659,-5.3733625,1.4100626,2.589675
120,1715699888.7309453,4.773807,-2.5830734,4.0795107,-5.3733625,1.4100626,2.589675
121,1715699888.7620213,3.859327,-2.3150918,3.8188531,1.7180625,1.4356375,-0.9119
122,1715699888.77764,3.2787004,-2.2047858,3.054939,2.8941,1.5805625,-1.63625
123,1715699888.7932923,2.5408716,-2.0311925,2.430887,3.3341,1.82985,-1.9344875
124,1715699888.8743746,2.5408716,-2.0311925,2.430887,3.4629376,2.46895,-1.97175
125,1715699888.9019694,3.148318,-1.0825689,0.14678898,3.6217499,6.9185877,-1.4114375
126,1715699888.9175715,4.053318,-0.91590214,-0.5618807,3.8251126,6.408325,-2.354275
127,1715699888.9336605,4.0247707,-0.8844037,-0.7390367,3.8688376,6.492475,-3.026375
128,1715699888.9502463,3.5568807,-1.0157033,-0.778792,3.778225,6.7566123,-3.66135
129,1715699888.9771938,3.9563763,-1.2685015,-1.3433181,4.36425,6.5115876,-4.70525
130,1715699888.9927125,3.6622784,-1.1555505,-1.7086697,3.9455624,6.273025,-5.3945374
131,1715699889.0196977,3.4763455,-0.916101,-1.76289,3.0293999,6.1738873,-5.776925
132,1715699889.050431,3.1500459,-0.70203364,-0.9902141,3.0283,5.5922623,-5.9483876
133,1715699889.0660436,3.0329204,-0.5622783,-0.9732875,3.8006375,5.008575,-5.4668627
134,1715699889.0898962,3.7879663,-0.70325685,-1.7550459,3.747425,4.6325126,-5.743925
135,1715699889.1197236,3.5222173,-1.0164067,-1.6883793,3.711125,4.5452,-5.85365
136,1715699889.1354604,3.3879662,-1.0202905,-1.5161009,3.343725,4.0722,-6.8624873
137,1715699889.155507,2.635367,-1.0057033,-0.7376147,6.2112875,0.54725,-7.8989625
138,1715699889.1712086,1.9102905,-1.4501529,-2.1882722,6.2112875,0.54725,-7.8989625
139,1715699889.2702732,-3.5477064,-6.647599,5.772064,-8.953725,0.8380625,-0.2129875
140,1715699889.2983766,-2.911009,-4.7686086,3.645367,4.02655,2.0758374,0.025575
141,1715699889.3206964,-0.5726759,-3.7867432,0.037721712,5.6637626,4.196775,-0.066
142,1715699889.3363802,-0.99296635,-3.3125384,-1.5012232,5.5253,3.606625,-0.9469625
143,1715699889.3520167,-2.2542355,-3.214373,-1.2552446,4.1116624,2.529725,-1.1015126
144,1715699889.3721044,-3.1328287,-3.4694188,-0.98185015,3.5407624,2.1153,1.9003875
145,1715699889.3884237,-2.753104,-3.6707492,-1.519266,3.3639374,1.3025374,3.736975
146,1715699889.422782,2.082263,-2.3026452,-1.1246636,1.0511875,0.419375,6.1593122
147,1715699889.4506862,1.896529,-1.735367,-0.54139143,2.0706124,0.1604625,5.2421875
148,1715699889.4588397,1.7223241,-1.6197706,-0.68337923,2.3326874,0.165825,5.1931
149,1715699889.466792,1.6215138,-1.517737,-1.0099847,2.7482126,0.2701875,5.269825
150,1715699889.483058,1.553211,-1.5613608,-1.4663608,2.8589,0.2149125,5.438125
151,1715699889.5056214,2.3001988,-1.2592202,-2.0579052,1.1066,0.64735,5.421075
152,1715699889.5214188,2.0139601,-1.0444496,-1.598578,0.9425625,0.4918375,5.4775877
153,1715699889.5383422,1.9683028,-0.8567737,-1.5530123,0.945725,0.538725,5.78435
154,1715699889.5541124,2.4738073,-0.8749235,-1.8702294,0.491975,-0.0897875,6.59395
155,1715699889.6521149,2.5977523,-1.9152906,-0.5264985,-2.99365,-2.96065,10.089063
156,1715699889.6687677,3.2288532,-2.2608562,-1.2234403,-2.5312376,-3.7224,10.5919
157,1715699889.6889095,3.8560705,-2.3045871,-1.7585168,-2.6431625,-4.21245,10.274412
158,1715699889.7045243,3.9735017,-2.2989757,-1.0784862,-3.6859624,-4.1729875,8.951387
159,1715699889.7223277,3.7782876,-2.2025535,-0.388578,-3.3462,-4.556475,8.558275
160,1715699889.7523656,3.4390366,-1.4139602,-0.26146787,-1.10275,-6.277975,8.104525
161,1715699889.777307,5.1503515,-1.4708409,-3.2020335,-3.254625,-4.048275,8.260037
162,1715699889.8025196,5.2489295,-1.9848164,-1.8189603,-7.8106875,-2.2342374,7.7061872
163,1715699889.8225677,4.6155963,-2.4376147,0.21120796,-8.561712,-1.1369874,7.3651876
164,1715699889.8382342,3.1495414,-3.0169268,2.2817583,-7.538025,-1.184975,7.8307624
165,1715699889.8538227,4.058716,-4.397355,0.81334865,-3.9172375,-2.4844875,10.448075
166,1715699889.8705337,6.409679,-5.1675844,-0.6457645,-4.07055,-2.547325,11.025437
167,1715699889.8858654,7.9916363,-4.845153,-1.9971408,-5.6716,-0.9548,9.907975
168,1715699889.9042568,6.871667,-4.3609633,1.5654434,-8.99745,5.0469375,3.4013374
169,1715699889.9336922,3.51448,-2.9407797,6.320994,0.71775,0.8614375,2.455475
170,1715699890.0320032,1.1351682,-1.3547401,0.6666667,2.1410124,2.5530999,-1.7150375
171,1715699890.0478318,1.4119266,-1.3329206,0.67931193,2.03445,2.5892625,-1.5467374
172,1715699890.063453,1.6942966,-1.4662538,0.61631495,2.0557625,3.2913375,-1.6245625
173,1715699890.0789366,1.7209022,-1.8506576,0.76646787,2.5936625,4.1925125,-1.915375
174,1715699890.0951865,1.980734,-2.1305811,0.59438837,3.9785626,3.9411626,-1.8460749
175,1715699890.1236775,2.8188534,-2.2366972,-0.3551529,5.9450874,4.267175,-2.333925
176,1715699890.1499548,3.1248777,-2.277263,-0.66024464,6.2816873,4.5120625,-2.705725
177,1715699890.1674497,3.3394496,-2.5995872,-1.1324159,6.7258124,4.4781,-3.6037376
178,1715699890.1887116,3.4173243,-2.9522936,-1.2993884,7.2573876,4.398075,-4.8607626
179,1715699890.2041192,3.3165135,-3.0154893,-1.2459786,7.591925,4.6569877,-5.609725
180,1715699890.2243025,4.170749,-3.4823701,-1.2715597,8.132025,4.3619123,-6.282925
181,1715699890.2415893,4.5070333,-3.800413,-1.6279358,8.952212,3.5545125,-8.458175
182,1715699890.2635722,4.2815447,-3.9675841,-2.0988839,8.932,2.7449124,-10.3235
183,1715699890.2900326,3.3956115,-4.1813455,-2.1572936,7.8093123,0.892375,-12.539175
184,1715699890.3056648,2.856162,-3.87289,-1.9510704,6.850525,-0.3700125,-13.10485
185,1715699890.4085634,-4.5591283,-2.1036696,-5.596529,-3.36215,-3.2355125,-2.8293376
186,1715699890.4242318,-2.0001986,-4.5232415,-5.32263,-8.295375,-1.283975,0.4580125
187,1715699890.439996,-1.0522937,-5.8099847,-2.229465,-16.765375,0.35227498,2.0442126
188,1715699890.4696188,-2.299587,-6.100107,7.9622784,-10.9703,0.41195,-2.0453124
189,1715699890.485132,-4.1218195,-5.7100916,7.9622784,1.1705375,1.45475,-3.08605
190,1715699890.5057614,-3.961162,-5.6493425,2.2724771,3.612125,1.6093,-2.943325
191,1715699890.5250378,-3.4474006,-5.1619725,0.38960245,7.90295,2.1025126,-0.7403
192,1715699890.5328853,-2.269419,-4.213563,-1.6025536,5.4038873,2.453,1.0674125
193,1715699890.5593257,-0.57808864,-2.6305811,-1.2620795,3.0848124,1.7221875,1.2282875
194,1715699890.574962,-0.95810395,-2.5713608,-0.5438379,2.94635,1.5996749,1.559525
195,1715699890.596814,-0.4811468,-3.0396483,-0.10866973,4.284225,0.0199375,3.2682376
196,1715699890.6247907,0.30019876,-3.1204894,-1.3076453,4.740175,0.6771875,4.7031875
197,1715699890.6404016,1.1688074,-2.675734,-1.724052,3.242525,1.5379375,5.2507124
198,1715699890.6795278,0.75902146,-2.5246634,-0.851789,2.8952,0.7783875,6.824125
199,1715699890.6985142,2.1487308,-2.5137615,-0.5232416,3.6675375,0.0796125,7.498425
200,1715699890.7717361,2.7671714,-2.2111163,-1.0828745,4.7040124,0.8358625,7.175575
201,1715699890.7934475,2.3141744,-2.277263,-1.133945,-0.4125,1.35465,9.382862
202,1715699890.8093889,2.0769572,-2.433639,-0.8456727,-0.738375,1.2034,10.180775
203,1715699890.826534,2.0876606,-2.6958256,-0.75096333,-0.9174,1.330175,10.992437
204,1715699890.84433,2.3243577,-3.2812388,-0.93986243,-1.8324625,3.1741874,12.384763
205,1715699890.860092,2.259526,-3.6043882,-0.7754281,-2.6153874,4.0519876,12.978075
206,1715699890.8759513,4.2429204,-3.9619725,-1.2586086,-4.8556747,3.6609375,12.360288
207,1715699890.8919377,4.0811467,-3.6281347,-0.60041285,-5.7409,1.35465,10.230824
208,1715699890.9096982,2.2409787,-3.0711467,1.012737,-4.7661624,-1.34145,8.72245
209,1715699890.939872,2.3602448,-3.6430123,0.02527523,-1.188,-1.6674625,10.970162
210,1715699890.9554524,3.7170184,-3.512844,-0.9408716,-1.990175,-0.3146,10.924237
211,1715699890.9844537,4.479205,-2.8341439,-1.0782874,-5.6524873,3.303025,8.529537
212,1715699891.000744,3.6635017,-3.148318,0.16116208,-7.4762874,3.119875,6.368175
213,1715699891.0261157,3.682569,-4.1139603,1.782263,-4.3283625,-0.221925,6.2808623
214,1715699891.041579,5.25922,-4.098165,0.8833792,-2.8657749,-0.4829,6.2797623
215,1715699891.0494466,6.9831805,-4.182569,-0.36004588,-2.7944124,0.5313,5.4349623
216,1715699891.0656269,7.8891892,-4.0108104,-1.1199846,-3.5528624,1.2747625,4.2653875
217,1715699891.0821023,7.296131,-3.723043,-0.65045875,-5.1869125,1.6093,2.17525
218,1715699891.15729,7.296131,-3.723043,-0.65045875,-5.9071374,1.769075,1.038675
219,1715699891.1786854,2.3122323,-2.0246637,2.581957,4.911775,0.9307375,-4.3962874
220,1715699891.1944163,1.3401682,-1.7146789,0.95729357,4.6443377,3.0985625,-3.9777374
221,1715699891.2100768,1.2041743,-1.5319113,0.66004586,4.16075,3.6097875,-3.6293125
222,1715699891.2264225,1.1910244,-1.3212997,0.39744648,3.2329,4.22455,-3.1340375
223,1715699891.2420235,1.7911315,-1.6973547,0.41651374,2.1825376,4.4226875,-2.9368625
224,1715699891.2576547,1.8404741,-1.7876606,0.43108562,2.1175,4.3949122,-2.98485
225,1715699891.2732022,1.7428133,-2.3416972,0.70325685,2.177175,3.7706625,-3.162775
226,1715699891.2888112,1.75474,-2.5088685,0.90336394,3.3394625,2.80555,-2.8527124
227,1715699891.3043826,1.9236546,-2.5866513,0.85454124,4.456925,2.9695876,-2.5694625
228,1715699891.3268523,2.6441436,-2.6257951,0.3083639,5.8768873,3.3627,-2.4842124
229,1715699891.354061,3.4012232,-2.9883792,-1.1136545,7.006037,2.6074126,-5.2507124
230,1715699891.38148,2.7470949,-3.602951,-0.48960248,7.7133374,2.2270875,-6.3212876
231,1715699891.4036543,2.888685,-4.137416,-0.5169266,9.458213,0.98614997,-6.925325
232,1715699891.4273477,3.6076453,-4.2975535,-2.0944953,8.437688,-0.2816,-9.889962
233,1715699891.4428093,3.3846025,-4.299694,-1.8628899,7.6175,-0.7566625,-10.98075
234,1715699891.4590976,3.0136545,-4.3334403,-1.4775687,7.09555,-1.352175,-11.804237
235,1715699891.5520818,1.3286391,-1.9357799,-2.542095,-0.3443,-2.45575,-10.57595
236,1715699891.5664608,1.3286391,-1.9357799,-2.542095,-1.5235,-2.615525,-9.638475
237,1715699891.5796497,1.6432263,-1.5221254,-1.9535168,-3.219425,-3.2781374,-7.934025
238,1715699891.5981507,1.8067279,-1.3815444,-1.9544342,-3.219425,-3.2781374,-7.934025
239,1715699891.6244597,0.16013761,-4.5160093,-2.9219115,-7.4751873,-2.5388,-7.868025
240,1715699891.6495843,-4.684817,-6.375948,-2.8748167,-10.692275,-2.101,-4.816075
241,1715699891.6700363,-5.8555503,-7.277676,-1.7452599,-12.94425,-1.8379625,-1.7309875
242,1715699891.6854186,-3.9324162,-7.9935784,3.7269113,-10.81795,-0.542575,1.424225
243,1715699891.7013326,-3.3388379,-6.7432265,7.3784857,-4.448675,-0.424325,0.2833875
244,1715699891.72785,-3.8750308,-5.3899083,3.1914372,6.359375,0.6760875,-0.3430625
245,1715699891.7491434,-1.2189602,-4.0906267,-0.7182416,8.350375,2.4061124,1.0737375
246,1715699891.764696,-0.62854743,-3.8142662,-1.3657492,8.249175,2.392225,0.9097
247,1715699891.7803998,-1.0312997,-2.8742049,-2.6987767,6.4659376,2.16535,0.16293749
248,1715699891.8100212,-1.9177371,-2.8966362,-1.6430122,2.9569376,1.818025,3.9169624
249,1715699891.828026,-0.09235474,-3.0755353,-0.80366975,2.4360874,0.8870125,7.225625
250,1715699892.00057,3.8041742,-4.4910245,-1.2376148,-1.7120125,1.2758625,14.030638
251,1715699892.02839,5.6685014,-4.363196,-0.62752295,-4.9674625,1.3034999,11.984225
252,1715699892.0441608,5.1218195,-4.029358,0.3678899,-5.0111876,0.3298625,10.327763
253,1715699892.0652306,3.6389449,-3.5157952,1.6062232,-2.392775,-1.874125,8.877962
254,1715699892.0824766,3.0619724,-3.459434,0.44331807,-0.1354375,-1.958275,8.852387
255,1715699892.0992076,3.15026,-3.2619727,-0.9321101,-0.8514,-1.54715,9.22845
256,1715699892.107383,3.5537155,-2.9524922,-1.0961316,-1.9868749,-0.4723125,9.163412
257,1715699892.13144,3.4795108,-2.4302752,-0.28512233,-3.9033499,1.2150875,8.1642
258,1715699892.1490135,2.9492354,-2.1073394,0.62833333,-3.910775,1.0415624,7.6806126
259,1715699892.1645904,2.8930736,-2.1298625,0.22782876,-2.9211874,0.3713875,7.256562
260,1715699892.1918352,2.5004127,-2.300413,-0.49744648,-4.638425,0.88385,7.431325
261,1715699892.2139122,3.3287463,-2.3838992,-0.19307339,-6.103075,1.7296125,7.565525
262,1715699892.3135939,5.944236,-3.7010245,3.2539296,-1.430825,1.0467875,0.3036
263,1715699892.3300695,4.8571863,-3.033838,2.9397552,1.6786,-0.7833375,-1.1803
264,1715699892.3455822,4.5308867,-2.7492354,2.4053056,2.7918,-1.1006875,-1.73745
265,1715699892.362646,3.6981654,-2.5713608,1.3294648,3.2648,0.284075,-2.3500125
266,1715699892.3787656,3.0809326,-2.4910245,1.1267126,3.1295,1.9640499,-2.6323
267,1715699892.3943782,3.0187616,-2.4712539,1.0929663,3.1252375,2.1962874,-2.6653
268,1715699892.4128745,2.3474007,-2.008257,0.7960245,3.1433876,3.1614,-3.2395
269,1715699892.4298785,2.178486,-1.8740062,0.68440366,3.1615374,2.897125,-3.5430999
270,1715699892.513246,2.7698317,-2.7299695,0.04648318,5.8757873,3.7376626,-3.380025
271,1715699892.5427356,3.64526,-2.9890978,-0.99796635,7.236075,3.5278375,-5.21015
272,1715699892.5585272,3.3189602,-3.3493426,-0.8405658,7.7506,3.084675,-6.787825
273,1715699892.5741377,3.1822631,-3.5270183,-0.81518346,8.264162,2.4146376,-7.43875
274,1715699892.5947876,3.0192661,-3.7090673,-1.4184556,9.0002,1.6348749,-8.902437
275,1715699892.6114848,3.241789,-3.7423089,-1.924159,8.7307,1.3663375,-9.4477625
276,1715699892.6237419,3.4362845,-3.7323089,-2.4098928,8.028763,0.704825,-10.198788
277,1715699892.6317637,3.332829,-3.6427064,-2.1975534,6.85685,0.115775,-11.08305
278,1715699892.647774,2.9677827,-3.6488228,-1.7623854,5.3101125,-0.7214625,-12.305975
279,1715699892.663467,2.3251834,-3.6346636,-1.136896,4.59745,-1.1444125,-12.655362
280,1715699892.6793616,1.7221254,-3.4379206,-0.74464834,4.4185624,-1.6163125,-12.1758995
281,1715699892.695667,1.8929664,-2.958104,-1.4898013,3.8443625,-1.4843125,-10.9978
282,1715699892.711687,1.8840979,-2.7311926,-1.830474,3.8443625,-1.4843125,-10.9978
283,1715699892.7299738,1.853624,-2.200107,-1.7467891,1.1939125,-2.2160876,-9.795088
284,1715699892.7456255,1.4553517,-1.8321102,-1.1119267,0.0061875,-2.38975,-8.882225
285,1715699892.7612648,1.3564678,-1.6465902,-0.8325229,-0.1302125,-2.516525,-8.4326
286,1715699892.776891,0.98818046,-1.3720642,-0.6175382,0.0573375,-3.146,-7.6027875
287,1715699892.7924259,0.83292043,-1.1030581,-0.7861315,0.3416875,-3.272775,-7.1405125
288,1715699892.8081434,0.6387309,-1.1077523,-1.5878747,0.1233375,-3.2781374,-6.69405
289,1715699892.9038258,-1.4442354,-7.585933,7.9078436,-12.451037,0.27775,-3.501575
290,1715699892.930499,-5.451177,-6.9802294,6.5469875,2.2433126,0.3289,-4.227025
291,1715699892.94611,-4.714373,-6.543624,3.293685,6.1655,1.9661125,-1.324125
292,1715699892.9727972,0.34995413,-4.1620793,-0.78053516,8.319575,5.2780747,0.752125
293,1715699892.9928367,0.50784403,-2.8509634,-2.6768656,7.5930247,2.5328875,-1.0770375
294,1715699893.0098236,-1.0108105,-2.5134556,-2.3652446,4.9245625,2.50305,-0.158675
295,1715699893.0307636,-1.3444495,-2.6897094,-1.1876606,3.5715625,2.157925,2.5843124
296,1715699893.0476534,1.6437308,-2.8856268,-0.71172786,4.59855,2.6266625,4.796825
297,1715699893.0632288,2.203165,-2.5474007,-0.9305811,4.4686127,2.694725,4.40385
298,1715699893.0896883,2.0005045,-2.5008104,-0.74903667,4.96925,2.6415124,4.746775
299,1715699893.1061118,1.5861316,-2.4219112,-0.6763455,5.2515373,2.8620625,5.323175
300,1715699893.1309118,0.97278285,-2.595,-1.2652446,4.5249877,2.8694875,9.525587
301,1715699893.1543922,2.7973547,-2.7912385,-2.2250764,2.362525,3.058,12.019425
302,1715699893.1655116,5.4085627,-2.4153976,-1.5803211,0.305525,2.5306876,12.2815
303,1715699893.1735077,5.046376,-2.2364984,-1.2325228,-0.23567499,1.8893875,11.624112
304,1715699893.3094423,3.4040825,-2.9318044,-0.16524465,-0.23567499,1.8893875,11.624112
305,1715699893.331603,3.1722784,-3.448012,0.13680428,-3.5805,-1.0795125,11.04675
306,1715699893.3479958,3.7221255,-3.206315,-0.34801224,-2.7869875,-0.1835625,10.702725
307,1715699893.3640573,3.9266055,-3.0133486,-0.47492358,-2.8870876,0.2286625,10.452337
308,1715699893.3797822,4.214373,-2.25474,-0.49521407,-3.472975,0.95301247,9.4468
309,1715699893.395391,4.280321,-2.1190674,-0.44444954,-3.56675,0.9444875,9.202875
310,1715699893.4118056,4.385214,-1.5628899,-0.34148318,-3.7521,-0.320925,7.0052123
311,1715699893.4353473,2.088685,-2.4756422,0.29490826,-4.3443127,-0.90365,7.192625
312,1715699893.4513433,2.8400612,-2.428746,0.15310398,-3.6381125,-0.458425,9.016425
313,1715699893.466968,7.7122326,-1.938731,-2.233639,-3.6381125,-0.458425,9.016425
314,1715699893.482613,7.9916363,-1.749847,-2.3866515,-7.1204376,1.4708375,5.5350623
315,1715699893.4980938,6.669113,-3.2458715,0.12752293,-7.7009625,1.5059,4.9482126
316,1715699893.513729,3.999587,-3.798884,2.017737,-10.991612,1.988525,3.6378374
317,1715699893.5348663,7.623349,-2.971055,7.9622784,-2.8422625,4.3555875,2.2636626
318,1715699893.5593736,5.3541284,-3.9206882,1.0316973,11.324637,-3.047,-6.08905
319,1715699893.6686058,1.624266,-0.406315,-0.86544347,-0.76615,4.8114,-3.25325
320,1715699893.6823523,1.6564679,-0.7277217,0.19805811,-2.0189126,5.1544623,-3.2863874
321,1715699893.693778,1.6366973,-0.8319114,0.4689144,-1.112375,4.349125,-3.3864875
322,1715699893.7164423,1.8856269,-1.179205,1.2065291,0.2085875,3.5011625,-3.484525
323,1715699893.7343478,2.551575,-1.2987767,0.7787003,2.1751125,3.4500124,-3.7549875
324,1715699893.750053,3.5027525,-1.4447554,-0.60233945,3.309625,5.207675,-5.1931
325,1715699893.765695,3.5689144,-1.7244649,-0.79980123,3.6152875,4.7507625,-6.0368
326,1715699893.781248,3.2115138,-1.9443426,-1.1180428,4.0095,3.9017,-7.7913
327,1715699893.8089366,2.703471,-2.2894037,-1.3214067,3.9796624,4.045525,-8.086375
328,1715699893.832218,3.1700306,-2.3524005,-1.4563761,3.9626124,3.2316625,-8.521012
329,1715699893.8482285,3.6552446,-2.6318042,-1.5775689,3.360775,3.186975,-9.473337
330,1715699893.863538,3.6559634,-2.7585168,-1.2088685,3.124275,2.94195,-10.100887
331,1715699893.887307,3.2738073,-2.7719724,-0.71876144,3.8699374,2.4498374,-10.942388
332,1715699893.9158587,3.482462,-2.5383332,-1.4502599,4.251225,1.72645,-11.559213
333,1715699893.9342153,2.5830734,-2.3152905,-2.0181499,3.7505875,1.280125,-11.982025
334,1715699893.9513822,2.5830734,-2.3152905,-2.0181499,3.072025,0.7602375,-11.9416
335,1715699894.0432842,-0.48359326,-1.3470948,-2.4925537,-1.463825,-3.2291875,-7.2906623
336,1715699894.0588872,-1.4998931,-2.6669726,-3.2974463,-5.1486874,-2.8488624,-4.1779375
337,1715699894.0862849,-3.4408715,-6.185826,-2.790627,-11.563612,-3.477375,0.1161875
338,1715699894.1018567,-2.6839907,-7.9935784,0.54169726,-14.356788,-2.8551874,2.9646375
339,1715699894.1175325,-1.9527981,-7.9935784,3.20948,-15.7522745,-1.81555,4.611475
340,1715699894.1365898,-3.1377218,-6.2956114,7.9622784,-4.0418124,-0.2836625,2.421375
341,1715699894.1628852,-2.9680886,-5.525382,3.7857337,5.7245374,1.1385,1.8684875
342,1715699894.183239,-0.018654434,-3.256376,-0.680734,7.305375,3.88465,2.4948
343,1715699894.202404,0.3257951,-3.0152905,-1.2425076,8.353538,4.0935125,1.222925
344,1715699894.2150218,-1.4640214,-3.0963304,-3.4234402,7.8753123,2.0471,0.6221875
345,1715699894.226319,-1.929159,-3.128746,-3.1635015,6.4670377,2.2111375,1.8588625
346,1715699894.2471607,-0.9992814,-3.3498473,-1.8726758,5.6233373,1.6647125,4.3388124
347,1715699894.2632592,0.646789,-3.5490367,-1.6081498,6.08245,1.5016375,5.24645
348,1715699894.2789793,1.3415902,-3.4218194,-1.9444495,6.48615,1.5996749,5.2944374
349,1715699894.2945251,1.1395565,-2.8107035,-2.4330275,6.478725,1.5644749,6.0112247
350,1715699894.3184323,1.5360856,-2.4834862,-2.4957187,5.146075,1.480325,8.607363
351,1715699894.4139297,3.3897095,-2.819266,-2.4039755,0.7805875,1.144825,12.171775
352,1715699894.43431,3.8894956,-3.8611622,-0.5025535,-5.4170876,2.9643624,13.014375
353,1715699894.4501746,3.9568808,-3.7969418,-0.2919419,-5.5779624,2.4817374,12.570112
354,1715699894.4658043,3.875642,-3.2880733,0.61243117,-4.8417873,0.249975,9.673675
355,1715699894.4915738,1.9558562,-2.9376147,1.4105046,-2.5834875,-0.9783125,8.123775
356,1715699894.5071976,1.8809327,-3.0909328,0.8889909,-0.20047499,-1.1199375,8.380487
357,1715699894.5345356,2.662691,-3.2314985,-0.28460246,0.455675,-1.200925,8.565838
358,1715699894.5575786,3.2981653,-2.3746178,-1.3382263,-1.2892,-0.2858625,7.4483747
359,1715699894.5948234,1.1790061,-2.6184556,0.5172324,-4.7896748,2.3560624,7.583675
360,1715699894.6104639,1.5101988,-2.9249694,0.7722783,-4.34115,1.8585875,8.002225
361,1715699894.6352694,4.2575994,-1.6900152,-0.22282875,-2.95625,-0.47547498,6.0836873
362,1715699894.651363,4.3398623,-1.2924618,-0.6604434,-3.017025,-1.2765499,4.87575
363,1715699894.667016,3.2813456,-1.8381191,-1.1155963,-4.7650623,-0.946275,3.8137
364,1715699894.6824927,2.9203823,-2.421208,-0.5745107,-5.4938126,-1.065625,3.987225
365,1715699894.7068906,3.9652445,-3.137309,1.3902141,-4.9589376,-1.5023249,5.6651373
366,1715699894.8029,3.0641131,-2.4217126,1.2690061,7.913675,-0.7503375,-3.7582874
367,1715699894.818527,3.1071408,-1.6368043,-0.60336393,6.275225,1.666775,-3.8317125
368,1715699894.83593,2.6253822,-1.0491284,-0.46493885,4.1542873,2.2697124,-4.6657877
369,1715699894.8618844,1.91315,-0.9220183,-0.21070337,3.1306,2.4316876,-5.185675
370,1715699894.878373,1.1707492,-1.1201835,-0.07931193,2.0717125,3.24335,-4.916175
371,1715699894.8938904,0.965948,-1.2507645,0.08868502,1.7095375,3.64815,-4.4548626
372,1715699894.9092314,1.0264984,-1.3600459,0.18827216,1.5486625,4.079625,-3.8839624
373,1715699894.9366076,2.530688,-1.5313915,-0.06961773,1.9141375,4.718725,-3.55685
374,1715699894.9525733,2.6250765,-1.5907186,-0.13986239,2.1495376,4.484425,-3.9479
375,1715699894.9730227,2.4573853,-1.7859327,-0.042507645,2.7619624,3.85275,-4.6946626
376,1715699894.9887125,2.3614678,-2.009786,-0.1212997,3.5993376,3.777125,-4.97585
377,1715699895.0041783,2.706315,-2.132003,-0.49714068,3.9083,3.9582124,-5.0301623
378,1715699895.019958,2.7859328,-2.171055,-0.73955655,3.9370375,4.3065,-5.5180125
379,1715699895.039591,2.8964374,-2.1737003,-0.71487767,3.89015,4.7092376,-5.6672
380,1715699895.0552957,3.3264983,-2.2172325,-0.9245719,4.1107,4.4460626,-6.2743998
381,1715699895.0758276,3.5659482,-2.2486238,-1.0534097,4.2321124,4.0935125,-7.5942626
382,1715699895.1693432,3.7655506,-2.3111162,-1.6332264,4.69975,3.7057624,-10.00065
383,1715699895.1855245,1.575841,-1.7920488,-1.2533181,3.7505875,0.4076875,-10.33835
384,1715699895.208762,1.0150918,-1.4888837,-1.1612692,3.779325,-1.34475,-9.551163
385,1715699895.23695,0.8803211,-1.2575994,-1.3391438,3.5024,-1.8687625,-8.8331375
386,1715699895.252747,0.59377676,-0.96074927,-1.7101988,2.7908375,-2.396075,-8.6702
387,1715699895.2723682,-1.6089755,-2.0005045,-4.6683946,0.863775,-3.77135,-8.1897745
388,1715699895.289524,-3.1650307,-3.84893,-4.9282417,-8.768375,-2.0200124,-4.4655876
389,1715699895.3139749,-3.550153,-6.392768,0.17441896,-12.044038,-0.6202625,-1.3528625
390,1715699895.3372562,-4.6328287,-6.0108104,7.115795,-7.1971626,-1.0241,-0.954525
391,1715699895.360454,-3.1350613,-5.1705356,3.750046,1.318625,1.6614125,0.82555
392,1715699895.3761053,-1.5745107,-3.8263,1.5603517,4.7103376,3.1741874,1.037575
393,1715699895.3915813,-1.3077524,-3.5905201,0.7625841,5.5125127,3.135825,0.99495
394,1715699895.4203894,-1.4330275,-3.443318,-2.0118196,5.490237,2.391125,2.101825
395,1715699895.4369383,-1.2303822,-3.4384253,-1.9320031,4.844675,1.9481,2.9049625
396,1715699895.453084,-0.33353212,-3.2136545,-1.3316054,4.80095,1.5186875,4.5391498
397,1715699895.468862,0.6496483,-3.0667737,-1.4245719,5.045975,1.4942125,4.9022875
398,1715699895.555869,3.5105047,-1.9882722,-0.5835933,1.0704376,0.8870125,8.375125
399,1715699895.5829394,3.655046,-0.8268043,1.3949083,3.4331,1.178925,4.50175
400,1715699895.5985644,1.8538226,-1.141896,0.5658563,5.5625625,1.7765,5.1910377
401,1715699895.6141932,1.7123394,-1.2462844,-0.026911315,5.6637626,2.0917876,5.71615
402,1715699895.6328676,1.845367,-1.3820642,-1.4490367,4.203375,3.356375,7.985175
403,1715699895.654742,3.962997,-1.7253822,-2.2900155,-1.010075,4.653825,10.380975
404,1715699895.670991,3.9745107,-1.756682,-2.140367,-2.525875,4.2394,9.957063
405,1715699895.6867318,2.7530122,-1.9662538,-0.34444955,-5.008025,2.7831376,9.556525
406,1715699895.7111208,1.287156,-2.5174313,0.93414366,-5.022875,2.39965,10.466225
407,1715699895.7388136,2.1538227,-3.3752291,0.34444955,-3.9150374,3.2913375,12.779938
408,1715699895.7544105,4.7508717,-2.8908257,-0.37298164,-5.89215,4.3065,10.852875
409,1715699895.7700942,4.6437306,-2.5439298,-0.13252293,-6.3278875,3.1411874,9.273137
410,1715699895.7856748,3.6760397,-2.188685,0.56074923,-6.1457,0.88165,7.3737125
411,1715699895.8013253,2.1571865,-2.0368042,0.9297707,-4.9377623,-0.7726125,6.8283873
412,1715699895.8149998,1.540474,-2.1379206,0.76380736,-4.44455,-0.017324999,8.363438
413,1715699895.8232384,2.98552,-2.6518807,-0.73955655,-4.44455,-0.017324999,8.363438
414,1715699895.8466947,4.162691,-2.4831803,-0.9902141,-7.3558373,2.999425,8.525275
415,1715699895.9543586,5.49052,-2.21815,1.627523,-4.1685877,-1.015575,3.584625
416,1715699895.9724975,6.347202,-1.930688,3.266361,-2.7677374,3.2679625,-1.038675
417,1715699895.9899054,4.4377217,-2.0859327,5.677171,-0.3474625,3.356375,-1.7012875
418,1715699896.0055187,3.5288534,-1.9103975,3.2577982,5.3868375,0.5313,-2.4308624
419,1715699896.0225003,3.117324,-1.6572936,0.8830734,6.2283373,1.1224124,-3.077525
420,1715699896.049507,3.0521865,-1.3890978,0.4259939,5.4795127,0.893475,-3.89785
421,1715699896.071255,2.0039754,-0.84414375,0.13088685,4.39395,0.5248375,-5.2985625
422,1715699896.096555,0.624052,-0.64495414,-0.6306881,1.76605,2.6181376,-4.967325
423,1715699896.1128094,0.6599389,-0.8199847,-0.505,-0.4156625,4.18935,-3.970175
424,1715699896.1396518,1.6813456,-1.2455658,0.37136087,-1.3903999,4.8241873,-3.0254126
425,1715699896.1551516,1.7797095,-1.2707492,0.56830275,-1.0857,4.7454,-3.0573125
426,1715699896.170895,2.0796177,-1.3402599,0.8506575,0.6560125,3.8154874,-3.1701999
427,1715699896.1865094,2.2165139,-1.3995872,0.64220184,2.0046124,4.4950123,-2.943325
428,1715699896.2021053,2.442003,-1.4216055,0.545367,3.0688624,5.4517374,-2.994475
429,1715699896.217796,3.5332265,-1.6746178,0.21590213,3.647325,5.6348877,-3.42595
430,1715699896.3243415,4.1621866,-1.6224312,-2.0157034,1.2131625,8.33855,-5.239025
431,1715699896.3392043,3.969113,-1.6754282,-0.1792049,1.0203875,8.399325,-6.0836873
432,1715699896.3470948,3.607951,-1.5951071,0.44159022,1.9833,7.520425,-6.2382374
433,1715699896.362997,3.571055,-1.5641131,-0.29246175,3.4907124,6.6671,-6.383025
434,1715699896.3784997,3.571055,-1.5641131,-0.29246175,4.894725,5.8128123,-6.704775
435,1715699896.3942168,3.5108104,-1.682676,-1.5847094,5.9951377,3.5927374,-7.6698875
436,1715699896.4219394,2.2951071,-1.9699236,-2.253211,4.1724377,2.0587876,-9.1102
437,1715699896.4402933,1.4753364,-2.1095872,-1.0236545,3.9743,-0.0078375,-10.198788
438,1715699896.4650228,-0.50091743,-2.6316056,-0.51814985,5.74585,-3.0523624,-10.50665
439,1715699896.4809349,-1.1256881,-2.5683944,-0.81784403,5.6841125,-3.410275,-10.126325
440,1715699896.4967139,-3.3737001,-2.8407798,-3.3214066,4.59965,-3.9609625,-7.8211374
441,1715699896.5233054,-3.239251,-4.089098,-5.5704436,-4.5403876,-1.0709875,-3.0925124
442,1715699896.550313,-3.7524922,-6.182156,3.7556577,-9.087925,-0.137775,-2.1027875
443,1715699896.5655174,-4.479312,-6.0594344,4.9330273,-2.4652374,-1.5076874,-1.1760375
444,1715699896.581707,-5.1751223,-5.698471,4.4007187,-0.0705375,-1.1625625,-0.19813749
445,1715699896.601266,-2.9801223,-4.698272,1.2084557,3.0443876,0.367125,2.149675
446,1715699896.6902223,-0.1656422,-2.2308867,-1.6657493,2.8036249,1.2343374,1.2144
447,1715699896.7088964,1.37237,-2.8570795,-2.2026453,3.813425,1.1011,6.6100373
448,1715699896.724363,1.4795108,-2.6825688,-2.0598319,2.8994625,1.3525875,6.719625
449,1715699896.7411702,1.5141743,-2.208364,-1.0019418,2.8249376,0.909425,7.0200624
450,1715699896.7568116,1.3312998,-2.0480123,-0.7724771,3.5300374,0.4631,7.3566623
451,1715699896.772519,1.3884863,-2.04026,-1.4060092,4.5027122,-0.238975,8.385713
452,1715699896.7880566,1.5275229,-2.088792,-1.6573853,4.6102376,-0.557425,8.963075
453,1715699896.8037014,2.6756423,-2.0775688,-3.1554587,2.2592626,0.301125,10.8977
454,1715699896.8194098,3.3203824,-2.4735014,-3.061269,-1.67475,0.8540125,12.115262
455,1715699896.8387237,3.7443426,-2.932003,-1.9027523,-4.939825,0.2457125,12.269675
456,1715699896.8578913,3.8949084,-2.9425077,-0.31509176,-5.5075626,-1.17535,11.68805
457,1715699896.8720074,4.165856,-2.7270184,0.45157492,-4.6756873,-2.3065624,10.927537
458,1715699896.8799467,4.204174,-2.4824617,0.8209021,-2.9349375,-3.1162999,9.786563
459,1715699896.896017,4.1084557,-2.3641133,0.1348624,-0.9142375,-2.8318124,7.914912
460,1715699896.912113,4.1270185,-2.2415903,-0.20408258,-0.6521625,-2.767875,7.4952626
461,1715699896.9413831,2.0505657,-2.2003057,-0.44720182,-0.925925,-2.2001374,6.7357125
462,1715699896.969116,2.1391437,-2.2977524,-0.9391437,-1.7238375,-2.7934499,8.07785
463,1715699896.9850893,3.1293578,-2.2816515,-1.9393424,-2.78795,-2.749725,7.9564376
464,1715699897.080117,4.2983637,-2.1105044,-0.3432263,-5.1731625,-1.40855,6.0080624
465,1715699897.0957236,4.8567734,-3.208257,0.17359328,-6.881875,-1.9476875,5.019575
466,1715699897.1214867,5.0908256,-2.8915443,1.855153,-6.0583873,-2.2735624,4.9471126
467,1715699897.1418736,5.7717586,-2.68604,2.1168196,-4.8983,-2.9000125,5.016275
468,1715699897.1872752,5.643318,-3.0091743,2.9280276,-6.5654874,1.0968375,1.896125
469,1715699897.2028172,4.943425,-2.3103976,7.380933,-5.1902122,4.418425,0.6433625
470,1715699897.2197602,3.3472936,-2.195,5.5499544,4.066975,-0.7481375,-1.1814
471,1715699897.2631135,3.2130427,-1.5311927,0.5653364,7.3756375,0.7539125,-3.8413374
472,1715699897.2860816,1.5668654,-0.8688074,-0.114785925,4.6773376,2.87155,-4.359025
473,1715699897.3016908,1.2805352,-0.83313453,0.013562691,3.408625,3.9326375,-3.9414375
474,1715699897.31736,1.2402599,-0.9998012,0.34912843,2.666125,4.5238876,-3.3534875
475,1715699897.336979,2.129159,-1.2639143,0.68960243,2.8716874,4.7251873,-2.5950375
476,1715699897.3577626,3.274006,-1.4472018,0.1387309,3.4694,5.108675,-3.5888875
477,1715699897.4660814,3.893165,-1.8067279,-1.0897094,3.6174874,6.238925,-5.7044625
478,1715699897.4869268,3.6681957,-1.8679969,-1.070948,3.8358374,5.5922623,-6.6451
479,1715699897.5078704,3.0519876,-1.8869572,-1.2420031,4.150025,4.2394,-7.4749126
480,1715699897.5502446,2.7941897,-1.9163151,-1.5644189,3.5811875,3.1549375,-8.511388
481,1715699897.5658467,2.6560702,-1.8620795,-1.3865443,3.41825,2.9280624,-8.642425
482,1715699897.581405,2.3038685,-1.7344496,-1.1264068,3.374525,2.155725,-8.758613
483,1715699897.597119,2.0962234,-1.750046,-0.88837916,3.7707999,0.5259375,-9.170837
484,1715699897.6178637,1.5819572,-1.8513762,-0.8202905,3.7707999,0.5259375,-9.170837
485,1715699897.634313,0.63088685,-1.8200763,-0.81050456,4.3907876,-1.5279,-8.446487
486,1715699897.6514118,0.6194648,-1.8179357,-1.0968349,4.4600873,-1.9124875,-7.9245377
487,1715699897.6670742,0.75096333,-2.1696177,0.32863915,4.36425,-2.803075,-8.915225
488,1715699897.6829545,-2.711315,-2.7350612,-2.9469879,4.5453377,-3.5498376,-8.134362
489,1715699897.7148175,-5.583685,-3.383593,-4.9943886,-5.0452876,-1.3968625,-2.522575
490,1715699897.733696,-5.731086,-6.365642,-0.26585627,-12.925,-0.97295,3.449325
491,1715699897.8412151,-0.19633028,-3.521407,-2.801835,9.414625,2.495625,-1.2271875
492,1715699897.8574204,-0.2944954,-3.2642205,-1.0795107,8.142612,2.698025,1.4700125
493,1715699897.8729503,0.072782874,-3.1758409,-0.78490824,8.581512,2.4624875,2.722775
494,1715699897.888673,1.5590214,-2.7802293,-2.163104,8.566663,2.9621625,4.3729124
495,1715699897.9042969,1.4067278,-2.055153,-2.7864373,6.2891126,3.564,5.287975
496,1715699897.934266,0.8248777,-1.519159,-1.9976606,3.8037999,2.992,8.1994
497,1715699897.9463756,0.81763,-1.5687003,-2.0039754,3.2264376,2.713975,9.086687
498,1715699897.9548862,0.90255356,-1.7281346,-1.7750306,2.20385,2.1621876,10.526999
499,1715699897.9788423,2.1716666,-2.5171254,-2.0613608,0.371525,3.6375625,12.93655
500,1715699897.9943595,3.2647247,-2.603058,-2.7076454,-1.7216375,5.530525,13.044212
501,1715699898.0099797,2.708058,-2.879098,-1.0465902,-5.5055,5.97795,12.189788
502,1715699898.0290506,2.3817585,-2.9100919,-0.19622324,-5.6791625,3.81865,11.638
503,1715699898.049792,1.9756421,-3.2868505,0.5599388,-4.91535,2.5647874,11.729575
504,1715699898.0701153,2.648318,-3.2558563,0.09704893,-3.7307875,0.68035,11.489912
505,1715699898.0901613,3.480535,-2.648211,-0.27553517,-3.7808375,2.1344125,10.0838375
506,1715699898.1107118,2.8134556,-2.1686087,0.606315,-3.557125,1.8458,8.040587
507,1715699898.131584,2.5919418,-2.056575,0.6670795,-2.9871874,1.0830874,7.4239
508,1715699898.2088056,1.4702294,-2.6874616,-0.3224312,-0.9227625,-0.6736125,7.0871625
509,1715699898.229863,2.3400612,-1.8625842,-0.6094801,-2.326775,0.199925,6.7186623
510,1715699898.2474258,2.2313914,-2.6372018,0.094296634,-2.8199875,-0.2443375,5.31135
511,1715699898.2629843,2.072783,-2.4892967,0.61834866,-1.7483125,-2.6613126,5.0397873
512,1715699898.2809741,3.3396482,-2.10448,0.16044343,-0.36025,-3.492225,4.895962
513,1715699898.2972257,4.441896,-1.9683028,-1.1912385,-0.605275,-2.111725,4.6327877
514,1715699898.3128705,5.2669725,-2.3880734,-1.467997,-3.2258875,0.8221125,4.1768374
515,1715699898.3418746,5.516208,-3.448012,1.4390367,-4.4647627,-0.052525,2.3617
516,1715699898.357679,1.2269113,-2.7502599,2.4060092,-2.848725,-4.6715627,4.63705
517,1715699898.3899488,7.9916363,-1.9975535,5.646896,-6.695425,9.456013,0.82555
518,1715699898.4221249,5.2291594,-3.299587,3.4010246,6.0974374,-0.63305,-4.950275
519,1715699898.4390864,0.8405658,-2.3030581,-0.4783945,4.995925,-0.5297875,-5.75025
520,1715699898.4541993,0.88084096,-1.664419,-0.40784407,3.8187876,-0.003575,-4.900225
521,1715699898.4621553,1.0086697,-1.2604434,-0.46004587,2.6470125,0.6985,-4.3089747
522,1715699898.4788353,1.1539296,-0.8763456,-0.49185017,0.660275,2.3890624,-3.5824249
523,1715699898.4944892,1.2269113,-0.7809327,-0.18695718,-0.806575,3.5864124,-3.1829875
524,1715699898.644498,2.9846025,-3.4784863,-0.64536697,7.1817627,2.3336499,-7.8617
525,1715699898.6613505,3.5976608,-3.5319114,-1.6105963,6.7621126,1.9075375,-8.802338
526,1715699898.679988,3.3477066,-3.5270183,-1.5405657,5.3879375,1.7573875,-10.328725
527,1715699898.7006938,2.7880735,-3.4569879,-1.2220184,5.0395126,1.3440624,-10.864562
528,1715699898.721014,2.8400612,-3.2432263,-1.6330276,5.0342875,0.98505,-10.9296
529,1715699898.7536523,2.2574925,-2.8429205,-1.8475076,3.0358624,-1.3968625,-11.533637
530,1715699898.7814798,1.7606575,-2.4012234,-1.5255811,0.94682497,-2.0296376,-11.022275
531,1715699898.8111305,1.4868501,-2.2706423,-1.117844,0.1915375,-2.5804625,-10.465125
532,1715699898.8368707,1.2631958,-1.904786,-0.6364985,-0.29315,-3.5615249,-9.031275
533,1715699898.8581855,1.0111161,-1.7737004,-0.15087156,-0.4486625,-2.9085374,-8.857613
534,1715699898.879195,-0.84525996,-2.5710552,-2.434052,-1.0302875,-2.8755374,-7.816875
535,1715699898.9792264,-3.1103976,-5.7979665,4.0050917,-2.914725,0.0358875,2.6621375
536,1715699898.987237,-1.8629969,-4.8069267,2.7916362,-0.335775,1.22045,3.3875875
537,1715699898.995273,-0.85045874,-4.0642204,1.5430123,1.5668125,1.584825,3.4354374
538,1715699899.0209053,0.41172782,-3.311315,0.5150917,3.8762624,1.7392375,2.9646375
539,1715699899.0396109,0.13547401,-3.195107,0.091850154,6.28595,1.45585,2.842125
540,1715699899.055326,0.75637615,-3.372783,-1.3491285,8.095862,1.6317124,3.754025
541,1715699899.0708618,0.9256881,-3.4105961,-1.637416,8.093662,1.7073375,4.09805
542,1715699899.086573,0.9828746,-3.3027523,-1.6988838,8.081975,1.7648125,4.513575
543,1715699899.1021364,1.5238532,-2.8360856,-1.9778745,7.5695124,2.1877625,5.187875
544,1715699899.1178272,1.2908257,-2.4631958,-1.8138684,6.9122624,2.2133374,6.66105
545,1715699899.1370618,1.5626912,-2.2842965,-1.9117279,6.5703,2.1131,7.5612626
546,1715699899.152923,2.1837919,-1.9203823,-1.7826759,5.3217998,2.0843625,9.051488
547,1715699899.16907,2.1837919,-1.9203823,-1.7826759,4.6475,2.06195,9.723725
548,1715699899.1884522,2.9982722,-2.1942966,-1.8719726,2.57455,2.6670876,11.650787
549,1715699899.2041204,3.1898012,-2.5832875,-1.2323089,0.0328625,2.9717875,12.411437
550,1715699899.2200594,3.5610552,-2.6767583,-1.295214,0.0328625,2.9717875,12.411437
551,1715699899.2356148,3.7730885,-2.648425,-1.1092813,-1.8750875,2.5562625,12.174937
552,1715699899.2539062,3.3431194,-2.5605505,-0.21631499,-2.8199875,2.2133374,11.3707
553,1715699899.2705019,3.0639143,-2.5640213,0.311315,-2.7677374,1.787225,10.988175
554,1715699899.354455,2.5086699,-2.948425,-0.46350154,-4.298525,1.7562875,8.238725
555,1715699899.383063,1.7535169,-2.6137614,0.29663607,-4.7001624,2.054525,7.7935
556,1715699899.3994248,2.058104,-2.8292508,0.12018348,-4.3880377,1.9927875,8.201463
557,1715699899.4197512,3.107844,-2.5566819,-0.007844037,-4.7917376,2.0343125,7.524
558,1715699899.444766,2.4251835,-1.8547401,1.3194648,-4.570225,0.4384875,5.727975
559,1715699899.463222,2.9152906,-1.5214068,1.5825688,-2.1542125,-1.4502125,5.5543127
560,1715699899.4788282,5.0151834,-2.0470948,-0.8593272,-1.652475,-0.879175,5.5862126
561,1715699899.5015798,4.63659,-2.2103977,-0.037813455,-5.7079,1.52405,3.700675
562,1715699899.512525,4.466468,-2.6377218,1.3056116,-5.782425,1.077725,3.39075
563,1715699899.5214458,4.32182,-2.7800152,2.184205,-5.1112876,0.2937,3.3427625
564,1715699899.5452974,5.582569,-2.6428134,2.5575995,-2.0348625,-1.603525,3.1510875
565,1715699899.57067,7.258303,-2.2899082,0.6131499,-2.1445875,0.5237375,-0.3152875
566,1715699899.5864437,4.166774,-2.1239603,2.5029511,-2.796475,2.992,-1.1803
567,1715699899.6019557,3.715795,-1.675841,2.966162,-1.2827375,3.135825,-1.43275
568,1715699899.618418,3.3748167,-1.3232416,2.4021406,0.9255125,1.9107,-2.0922
569,1715699899.6337357,3.024572,-1.2439296,2.3701377,1.9151,1.2076625,-2.689775
570,1715699899.6506119,2.6548471,-1.1060092,1.99552,2.9995625,0.76669997,-3.316225
571,1715699899.7437227,1.7015291,-1.4308869,0.99001527,2.7141125,3.3595374,-3.9755375
572,1715699899.7685995,2.8169265,-1.3209939,-0.03058104,3.6738625,4.719825,-3.854125
573,1715699899.8084018,2.6765597,-1.5469878,-0.18695718,3.053875,4.7592874,-6.2041373
574,1715699899.8372824,2.9396484,-1.8120337,-0.25821102,3.7079625,5.7904,-6.0165873
575,1715699899.8527806,3.498777,-1.9907187,-0.7675841,4.285325,5.7349873,-6.3735375
576,1715699899.8685365,3.9722784,-2.0775688,-1.175948,4.2651124,5.226925,-7.3748126
577,1715699899.8841476,4.062584,-2.1598318,-1.2657492,4.167075,5.0095377,-8.017213
578,1715699899.8997996,3.4355812,-2.2804282,-1.0634098,4.0360374,4.401375,-8.982325
579,1715699899.9194324,2.6007187,-2.1251836,-0.87420493,4.1756,3.971,-8.7234125
580,1715699899.9473293,2.471361,-1.9357799,-1.1600459,4.1894875,3.1816125,-8.362337
581,1715699899.9636977,3.0798166,-1.7454588,-1.5549389,3.4907124,2.5169375,-8.38475
582,1715699899.9793468,3.1446483,-1.7700305,-1.4326147,3.0410874,2.1377125,-8.82035
583,1715699899.995095,2.3075383,-1.7573853,-0.3680887,3.241425,0.34265,-9.7482
584,1715699900.021519,1.2239603,-1.8186545,-0.09622324,4.917,-1.7601374,-9.320988
585,1715699900.1119,-2.1007187,-4.6816516,1.0283333,-6.5527,-1.10495,-7.0274873
586,1715699900.1377454,-6.7787924,-6.9062233,1.060046,-5.126275,-2.281125,-1.83865
587,1715699900.1532986,-5.5858254,-7.3199844,4.2508717,-5.92845,-1.4650625,0.5539875
588,1715699900.169002,-4.021713,-6.680229,5.5316973,-3.809575,0.7965375,4.847975
589,1715699900.1845264,-1.246789,-4.7481194,3.9533179,3.3479874,1.1639374,4.5562
590,1715699900.2012465,-0.49266055,-4.232615,2.5861316,4.5953875,1.3578125,4.30265
591,1715699900.2168758,0.6262997,-3.4748166,-0.34659022,7.4949875,1.5527875,3.2608125
592,1715699900.237818,0.50539756,-3.266162,-1.7572935,7.66755,1.8489625,3.2022374
593,1715699900.253344,0.18623854,-3.2185473,-2.0855198,7.40025,1.66045,3.59095
594,1715699900.2837474,0.6536239,-2.9493425,-1.8000001,6.6609125,1.8415375,5.8227124
595,1715699900.3100336,1.1663609,-2.4871562,-2.7059174,5.789575,2.46675,6.4651127
596,1715699900.3274276,1.5319113,-2.241789,-1.7818501,2.9154124,2.9206374,8.818288
597,1715699900.3508906,3.1869571,-2.0912385,-0.79980123,3.0837126,1.1479875,9.027013
598,1715699900.36826,2.7683945,-2.1253822,-0.71701837,3.5843499,0.30855,8.796975
599,1715699900.390185,2.4325228,-2.609893,-1.5295565,2.920775,1.7307125,10.521638
600,1715699900.405842,2.7381191,-2.7768655,-1.8124312,1.6115,3.0229375,11.429275
601,1715699900.5008442,2.1753364,-3.274006,-0.29071864,-1.6108125,0.76669997,10.668625
602,1715699900.516456,2.9455657,-3.4667737,-0.8083639,-2.1797874,1.9097375,10.618575
603,1715699900.5383067,3.6784863,-3.1756423,-0.75974005,-3.707275,2.9601,8.845925
604,1715699900.5539064,3.4844038,-2.7809327,-0.27237004,-3.90115,2.0493,7.7232375
605,1715699900.571132,2.8388379,-2.2508717,0.44108564,-2.764575,-0.879175,6.1433625
606,1715699900.5792122,2.3915443,-1.7686085,0.53241587,-2.0252376,-1.6941375,5.7492876
607,1715699900.5873613,1.9766514,-1.6036696,0.55555046,-1.4543375,-1.8283374,5.5543127
608,1715699900.5952487,1.6554588,-1.7159021,0.37033638,-1.1251625,-1.6973,5.8025
609,1715699900.619645,2.6651375,-1.558211,-0.62477064,-1.7142125,0.029424999,6.6419373
610,1715699900.6384807,4.214878,-1.1851224,-0.49744648,-4.2356873,2.0332124,5.9569125
611,1715699900.6540022,4.608257,-1.0139602,0.30203366,-5.0208125,2.1121376,4.97475
612,1715699900.6696727,4.0842967,-1.1653364,1.4971406,-4.823775,2.2367125,3.0317376
613,1715699900.689634,3.2808409,-1.8359785,1.4815444,-3.4144,1.1086625,3.887125
614,1715699900.7051718,4.6712537,-2.1806269,0.46727827,-3.5102375,0.5652625,5.0259
615,1715699900.723131,7.9916363,-4.134755,1.8141743,-10.924513,7.3627124,4.10025
616,1715699900.7475853,5.0344496,-4.152798,7.9622784,-1.2348875,4.2948127,-2.8144875
617,1715699900.7630417,2.963104,-4.6772633,3.1452599,11.0924,-2.1245124,-3.5952125
618,1715699900.7788153,2.379098,-3.888272,-0.975734,10.590662,-0.1260875,-2.7781875
619,1715699900.8712716,1.3264985,-1.7330276,1.990413,5.264325,0.3139125,-4.7095127
620,1715699900.8869321,1.511422,-1.8981651,1.5022477,5.6254,0.552475,-4.9918
621,1715699900.903145,1.8107033,-2.1894035,0.5797095,5.266525,1.9320124,-5.3934374
622,1715699900.9188128,2.1074464,-2.2706423,-0.07767584,4.2725377,2.8567,-5.2965
623,1715699900.9392705,2.604587,-2.1986697,-0.16524465,3.7409625,3.1134124,-5.4338627
624,1715699900.955098,2.9310858,-2.1342506,-0.29490826,3.5706,3.5096874,-5.78545
625,1715699900.9797559,3.1363914,-2.106835,0.23639143,3.864575,2.831125,-6.9444375
626,1715699901.0126214,3.170535,-2.6723702,-0.9257951,5.9962373,2.9951625,-8.891712
627,1715699901.0353692,3.2055047,-2.6408715,-1.6510704,4.90105,2.5488374,-9.375438
628,1715699901.0583024,2.8366973,-2.3504586,-1.1409786,3.191375,3.1964624,-9.134675
629,1715699901.08725,2.8918502,-1.9118197,-1.156162,2.887775,2.8001876,-8.9056
630,1715699901.1035995,2.8169265,-1.8650305,-1.2440367,2.8664625,2.06305,-9.078162
631,1715699901.1115866,2.729052,-1.850153,-1.3431193,2.7823124,1.4037375,-9.2444
632,1715699901.1396468,2.1755352,-1.8627982,-1.6771712,1.2046375,0.2712875,-9.46165
633,1715699901.169868,1.4074465,-1.646789,-1.1927676,0.4642,0.00495,-9.0079
634,1715699901.268789,-1.3110092,-1.556575,-0.97920495,4.777575,-1.977525,-5.863275
635,1715699901.284434,-2.7572937,-2.6520948,-6.6342506,1.3655125,-2.82755,-4.2524624
636,1715699901.3069365,-5.2363915,-7.2211013,2.0524006,-15.870525,1.615625,2.067725
637,1715699901.3240983,-4.9552445,-6.185321,7.9622784,-8.25385,1.0404625,3.39075
638,1715699901.3403242,-4.2762537,-5.5651374,7.602951,-2.949925,0.6942375,3.0828874
639,1715699901.3611596,-2.9554586,-4.4129515,3.635061,3.5715625,0.941325,2.1624625
640,1715699901.3767674,-1.4742049,-3.133838,0.82721716,5.4305625,2.6500375,2.1593
641,1715699901.3924005,-0.81039757,-2.7038686,-0.061055046,6.0676,2.486,2.1454124
642,1715699901.4080343,-0.23761468,-2.2116208,-2.127936,5.871525,1.8489625,2.6461875
643,1715699901.4241233,0.25729358,-2.1407797,-2.270749,3.7835875,1.8660125,3.481225
644,1715699901.440726,0.26452598,-2.1964374,-1.7560704,3.105025,1.9012125,3.8061376
645,1715699901.456345,0.25698778,-2.185734,-1.122737,2.6459124,1.8330125,4.8214374
646,1715699901.471855,0.46880737,-2.1771712,-1.2100917,2.583075,1.9757375,5.322075
647,1715699901.5011764,0.83322626,-2.172477,-1.3438379,0.9755625,1.5464625,7.414275
648,1715699901.516788,0.8712538,-2.285321,-1.0683028,0.65381247,1.4675375,8.183312
649,1715699901.5340044,1.0811468,-2.440474,-1.1542355,0.1287,0.87848747,9.80045
650,1715699901.5502837,1.4965291,-2.5946941,-1.3930734,-0.2814625,0.3405875,10.50775
651,1715699901.6312814,2.8376148,-3.3164067,0.42038223,-2.629275,-1.1710875,10.319238
652,1715699901.645203,2.9270184,-3.3579051,0.4216055,-2.1883125,-1.4672625,10.295725
653,1715699901.6532176,3.269419,-3.2876608,-0.26585627,-1.3616625,-2.65705,9.660888
654,1715699901.6779273,3.5022478,-3.2812388,-0.7329205,-2.0519125,-2.25225,9.285925
655,1715699901.6935842,3.4490368,-3.1975536,-0.45860854,-2.69005,-1.84965,9.1005745
656,1715699901.7091908,3.1527064,-2.9571867,0.20825687,-3.118225,-1.605725,8.8033
657,1715699901.7248056,2.7164068,-2.4273243,0.32518348,-2.95955,-1.369225,8.51675
658,1715699901.7510939,2.888685,-2.166468,-0.11743119,-2.99255,-1.40965,8.203663
659,1715699901.7803583,3.890719,-1.9184557,-0.68776757,-6.3512626,0.2872375,6.3096
660,1715699901.7960238,2.4605503,-1.8381191,0.6549388,-7.6775875,1.54,5.911125
661,1715699901.8116345,1.8936851,-1.8127371,1.8579053,-8.638437,3.7345,6.2275124
662,1715699901.8410025,2.722936,-1.9201835,1.7946943,-6.6633873,3.78235,5.5787873
663,1715699901.8564773,3.320688,-1.8051989,1.521101,-6.170175,2.306975,4.5742126
664,1715699901.8722718,4.709587,-2.4577982,1.1710551,-5.7184873,0.181775,3.28735
665,1715699901.8874252,5.043731,-2.9503517,1.3585168,-5.9390373,0.61545,2.960375
666,1715699901.903351,5.382676,-3.6465902,2.8121254,-5.2806873,2.3027124,2.4629
667,1715699901.9189916,6.356988,-3.756468,3.2863457,-2.6037,1.96075,1.5830375
668,1715699902.0039537,6.4426146,-3.2351682,3.319572,-2.6037,1.96075,1.5830375
669,1715699902.0259895,2.0752294,-0.96911323,1.065948,4.2128625,1.8000125,-4.207775
670,1715699902.0417693,2.0496485,-0.90906733,0.9224312,3.1306,3.2817125,-4.107675
671,1715699902.0573149,2.2050917,-1.4247706,1.2455658,2.8568375,3.7483876,-4.156625
672,1715699902.0835297,3.1822631,-2.4992814,1.2259939,4.5368123,3.3840125,-5.002525
673,1715699902.109622,3.8665595,-3.0008104,0.26738533,6.7919497,2.6437125,-6.9933877
674,1715699902.126024,3.8890977,-3.0548472,0.0706422,6.78975,2.7225,-7.33645
675,1715699902.150006,3.6120336,-3.2234404,-0.40397555,6.38825,3.4766874,-8.55085
676,1715699902.1618907,3.690933,-3.2141743,-0.53619266,6.2998376,3.9411626,-8.575325
677,1715699902.1732824,4.091636,-3.204893,-0.96116215,6.1282372,4.4108624,-8.8066
678,1715699902.1938953,4.142095,-3.2427063,-1.0392507,5.4604,3.9688,-9.762088
679,1715699902.2128031,4.374511,-3.3115137,-1.017737,5.1781125,3.5597374,-11.009487
680,1715699902.2419627,2.6738992,-3.319572,-0.89327216,4.6380124,2.1141999,-10.943487
681,1715699902.2587023,2.3348625,-3.0555503,-0.95555043,4.3055377,1.85955,-10.415075
682,1715699902.282609,2.7929664,-2.3721714,-1.4782875,2.8238375,1.4345375,-9.73115
683,1715699902.4427488,-0.446789,-2.0380275,-2.036896,-1.5863374,-1.6088874,-3.1724
684,1715699902.45976,-1.8652445,-3.0410857,-2.8518808,-4.6160126,-0.6810375,-2.385075
685,1715699902.4823437,-4.219159,-4.792248,-2.137003,-9.866725,-0.3422375,0.2365
686,1715699902.5112846,-2.8270183,-6.3215137,3.893777,-10.710425,0.24365,1.643675
687,1715699902.5269873,-4.472278,-5.9579053,5.3347554,-2.680425,-0.81743747,-0.430375
688,1715699902.5432632,-4.472278,-5.9579053,5.3347554,0.5952375,-0.8408125,0.3994375
689,1715699902.5634208,-1.4053977,-3.9511774,0.74495417,4.3577876,1.497375,3.702875
690,1715699902.5895627,1.0416973,-3.0872629,-0.7390367,6.0633373,4.0231123,5.4797873
691,1715699902.6190033,1.7408717,-1.7410856,-1.2407798,4.605975,2.6522374,3.5644126
692,1715699902.642827,1.2537155,-1.9746177,-0.6919419,4.9809375,2.6096125,4.74155
693,1715699902.662501,1.9771713,-2.0439296,-1.2883792,5.752175,2.43595,5.9772625
694,1715699902.6897714,2.5303824,-1.8891896,-2.8962233,3.8592124,2.8843374,5.828075
695,1715699902.7891304,3.1271102,-2.2748165,-0.29001528,-3.5294874,1.8000125,11.07975
696,1715699902.8046138,2.885734,-2.5657494,-0.041085627,-4.1248627,1.803175,11.286412
697,1715699902.820389,3.3464832,-2.880321,0.58195716,-4.6234374,0.8028625,11.396137
698,1715699902.8432565,3.2459786,-2.8014219,1.1625841,-3.8053124,-0.3529625,10.730363
699,1715699902.8589628,3.2291589,-2.6303823,0.6383333,-2.3128874,-0.39655,9.929288
700,1715699902.874575,2.7778747,-2.525688,-0.20550458,-2.292675,-0.186725,9.5724745
701,1715699902.8916426,2.5218196,-2.5376146,-0.2730887,-3.3823624,0.3128125,9.307238
702,1715699902.9073577,2.325887,-2.8416972,-0.32263,-5.243425,0.5396875,9.6129
703,1715699902.9234204,2.414266,-3.2810397,0.2343578,-6.7742124,0.487575,9.588425
704,1715699902.9433398,2.462997,-3.2521865,0.5728899,-6.77105,-0.2858625,9.3093
705,1715699902.9590297,3.0541286,-2.5939908,1.1307799,-6.4472375,-0.5542625,8.9067
706,1715699902.9745631,3.303777,-2.1500459,0.97319573,-6.136075,-0.324225,8.48375
707,1715699903.0004294,3.9218197,-2.3543272,0.63099384,-6.5877624,2.038575,6.5247874
708,1715699903.0178845,3.4705353,-2.9456728,0.9599389,-6.879675,2.020425,4.84165
709,1715699903.0436857,3.4087615,-3.1543272,1.2372018,-6.4301877,0.8369625,4.0341125
710,1715699903.059444,4.0877676,-3.2964373,1.212844,-4.6948,-0.675675,3.08715
711,1715699903.1697042,1.8494341,-1.4842966,2.4140673,2.614975,-2.08395,-0.8969125
712,1715699903.1854298,1.6785933,-1.4003057,2.2164066,3.9103625,-2.7913876,-1.3283875
713,1715699903.201004,1.2193731,-1.2173241,1.3949083,5.905625,-3.9120126,-2.1528375
714,1715699903.2166367,0.8683945,-1.0967431,0.5053058,6.3647375,-4.1133122,-2.4415874
715,1715699903.2280774,0.7072324,-1.0379205,0.09215596,6.2486873,-3.4879625,-2.74945
716,1715699903.236634,0.5711468,-0.98175836,-0.11743119,6.01645,-3.2685125,-2.7770875
717,1715699903.2602582,0.14984709,-0.84261465,-0.0941896,4.6539626,-2.92985,-2.6428876
718,1715699903.2758784,0.04617737,-0.68960243,0.18949541,4.05955,-3.307975,-2.2818124
719,1715699903.2914517,0.07472477,-0.6327217,0.38837922,4.0275126,-3.3974874,-2.0942626
720,1715699903.3069887,0.13058104,-0.57808864,0.44943425,4.1287127,-3.3858,-1.90575
721,1715699903.3226056,0.38613153,-0.5703364,0.35229358,4.2884874,-3.022525,-1.6990875
722,1715699903.3446054,0.6333333,-0.5378135,0.24729358,4.269375,-2.4972749,-1.9185375
723,1715699903.3601549,0.6716667,-0.59418964,0.25779817,4.285325,-2.194775,-2.1646626
724,1715699903.381492,0.7802294,-0.81967884,0.1262997,4.4994125,-2.3502874,-2.8325
725,1715699903.4138043,0.82782876,-0.9017278,0.07451071,4.625225,-2.4398,-3.102
726,1715699903.42902,0.8671712,-1.2570795,-0.74025995,3.85605,-2.463175,-3.76145
727,1715699903.4447708,0.7922477,-1.2038685,-0.88084096,3.172125,-2.314125,-3.7549875
728,1715699903.5468814,0.62038225,-0.6698318,0.2261009,-1.8995625,2.4498374,-0.3504875
729,1715699903.584273,0.58134556,-0.37940368,0.41937312,0.11275,1.1022,-0.8553875
730,1715699903.615426,0.5730887,-0.4182416,-0.047400612,0.912725,0.17655,-0.700975
731,1715699903.6446974,0.63700306,-0.41090214,-0.37441897,-0.19085,1.1991374,0.091575
732,1715699903.6660762,0.6506575,-0.28470948,0.04383792,-1.16875,2.4806376,0.8468625
733,1715699903.6881824,0.81662077,-0.20489296,0.27756882,-0.9813375,2.306975,0.96085
734,1715699903.703771,0.96717125,-0.17074923,0.34964833,-0.401775,1.5709375,0.79475
735,1715699903.7194421,1.1001987,-0.17350154,0.298578,-0.1120625,1.2705,0.6359375
736,1715699903.7480793,0.9333333,-0.2254893,0.087767586,0.3034625,0.72833747,0.2248125
737,1715699903.7605965,0.83781344,-0.24250765,-0.013455657,0.170225,0.8646,0.328075
738,1715699903.7718313,0.7656422,-0.23007645,0.010810398,-0.0055,1.1490875,0.5049
739,1715699903.7930574,0.8220183,-0.21009174,0.05351682,-0.3059375,1.69345,0.8883875
