id,timestamp,acc_x,acc_y,acc_z,gyro_x,gyro_y,gyro_z
0,1715699675.1622634,0.753211,-0.6005046,0.20948012,-0.09185,0.0273625,-0.0361625
1,1715699675.182114,0.7634098,-0.5957187,0.21590213,-0.0418,0.0369875,-0.0116875
2,1715699675.206278,0.7560703,-0.5969419,0.20928134,-0.0204875,0.0336875,-0.0020625
3,1715699675.2238877,0.76371557,-0.58593273,0.20336393,0.013612499,0.0210375,0.0224125
4,1715699675.3237092,0.7168196,-0.46850154,0.1728899,0.17985,0.015675,0.0809875
5,1715699675.3415794,0.76441896,-0.38359326,0.12599388,0.0627,0.2905375,0.042625
6,1715699675.3660362,0.7534098,-0.33058104,0.011314985,-0.33467498,1.0404625,-0.0682
7,1715699675.3816345,0.6943884,-0.3028593,-0.05004587,-0.90145,1.769075,-0.1373625
8,1715699675.3971627,0.7119266,-0.25371557,0.033746175,-1.1730125,2.0332124,-0.1736625
9,1715699675.4129033,0.717737,-0.19001529,0.040672783,-1.446775,1.971475,-0.21835
10,1715699675.4357498,1.4311926,-0.045366973,-0.032522935,-1.7589,1.1831875,-0.040425
11,1715699675.466119,2.7922475,0.22426605,-0.2157951,-3.1416,2.326225,-1.743775
12,1715699675.4815772,1.933945,0.08022936,-0.21915902,-3.8330874,3.2806125,-2.2616
13,1715699675.4972203,1.2378135,0.24423547,0.88582563,-5.633375,5.4197,-2.6417875
14,1715699675.524517,2.1174312,0.2916361,1.7661622,-4.583975,5.8617625,-2.34355
15,1715699675.540019,3.0539296,0.37870032,1.8378135,-2.393875,3.927275,-3.7379375
16,1715699675.5664985,4.1606574,0.07441896,0.63781345,-0.654225,1.584825,-6.7175627
17,1715699675.593954,3.8110092,-1.0554588,1.0908257,-2.55255,2.43705,-8.676525
18,1715699675.6113799,3.1046944,-1.5328287,2.4028594,-2.492875,3.1879375,-8.470963
19,1715699675.7156086,2.3400612,-0.7203823,0.5429205,2.634225,4.5461626,-9.097412
20,1715699675.7258456,2.0230427,-0.27717125,0.62854743,2.2496376,4.585625,-8.645725
21,1715699675.7428355,1.7788991,0.5,0.9155963,0.979825,5.03085,-7.1149373
22,1715699675.7514153,2.4669724,0.62986237,0.6959175,0.979825,5.03085,-7.1149373
23,1715699675.766545,2.690214,0.36972475,0.5919419,0.6241125,5.3579626,-7.546275
24,1715699675.7824638,2.625581,0.2479052,0.31203365,0.8157875,5.748875,-8.11195
25,1715699675.7979674,2.566774,0.097553514,0.08359327,0.9021375,5.8202376,-8.157738
26,1715699675.8251712,3.4724772,-0.4833792,-0.5825688,1.69675,5.0021124,-8.505062
27,1715699675.8515546,2.8820643,-0.7909327,-1.0338379,1.6361125,3.9006,-8.845925
28,1715699675.8721006,1.6132569,-0.8322171,-0.6953058,1.2120625,3.336025,-8.363438
29,1715699675.89501,1.8018348,-0.5505657,-0.94209474,0.6006,3.025,-7.0552626
30,1715699675.9183164,0.62334865,-0.42140675,0.0567737,1.83315,1.6071,-5.7066627
31,1715699675.9340446,0.2254893,-0.45799696,0.1814526,2.5469124,0.8679,-5.07595
32,1715699675.9518125,-0.09215596,-0.62252295,-0.15087156,4.5079374,-0.5308875,-3.2170875
33,1715699675.9676049,1.0921559,-0.8016361,-2.2061162,4.9522,0.2116125,-2.4074874
34,1715699675.983226,1.9402599,-0.7989755,-3.6911316,3.696275,1.0542125,-2.5448499
35,1715699675.9988792,2.064725,-0.9224312,-4.628547,3.696275,1.0542125,-2.5448499
36,1715699676.0679862,2.064725,-0.9224312,-4.628547,1.4463625,1.6678749,-3.265075
37,1715699676.0930521,2.4964373,-1.127523,-3.9942966,-1.9613,0.5333625,-0.0650375
38,1715699676.1177082,-0.10530581,-1.2238532,0.009373089,-4.9856124,-1.1039875,-1.0407375
39,1715699676.1336718,-0.2717584,-1.1289449,0.48695716,-4.44345,-1.6248375,-0.681725
40,1715699676.1493807,-0.43527523,-0.9215138,0.6800153,-3.1949499,-2.025375,0.6444625
41,1715699676.16821,-0.0814526,-0.8619725,0.73475534,-2.9871874,-2.1159875,0.92895
42,1715699676.1837494,1.0907186,-0.9129511,0.7510704,-2.8210876,-2.228875,-0.1364
43,1715699676.20543,0.13669725,-1.5445414,1.7737004,-2.2862124,-2.4589124,-2.8356626
44,1715699676.236533,-2.311621,-2.36922,2.1912386,-0.2644125,-1.824075,-2.7302
45,1715699676.2509646,-3.4674773,-2.9442356,1.4117278,1.3431,-0.85153747,-2.333925
46,1715699676.258947,-3.4503515,-3.3398626,0.8781804,0.237325,-1.4843125,-1.4168
47,1715699676.2747462,-2.942003,-3.8147857,1.8978592,-0.5072375,-0.187825,-1.0982125
48,1715699676.290369,-4.337722,-4.4757338,3.6031654,2.3849375,-0.2517625,-1.5382125
49,1715699676.3124113,-5.611514,-4.3729815,1.5650306,5.4263,-1.7985,1.2612875
50,1715699676.332341,-3.64078,-3.8589146,-0.12793578,4.3599873,-0.1175625,4.0277877
51,1715699676.34784,-0.9683027,-2.9164066,0.113149844,2.3934624,2.03225,5.1921372
52,1715699676.3747478,-0.04383792,-2.345367,0.41915905,2.2559624,1.8552874,4.7212
53,1715699676.53715,3.1,-2.3683028,-1.455153,2.244275,4.25755,8.31545
54,1715699676.5580447,3.1010244,-2.2750306,-0.9466819,1.335675,4.96705,8.287812
55,1715699676.5751498,2.8944952,-2.6352751,-0.19215596,0.0999625,5.2408123,8.8661375
56,1715699676.590748,2.7530122,-2.8691132,0.07522936,-0.1439625,4.855125,8.981225
57,1715699676.6063457,2.5214067,-2.7514832,0.10652905,-1.1677876,3.420175,9.521325
58,1715699676.6446767,2.4671712,-2.9190674,0.27053517,-3.252425,3.6524124,9.703512
59,1715699676.67501,1.9024464,-2.9279358,1.2362844,-4.1558,6.31455,9.231612
60,1715699676.6910295,1.8121254,-3.0960245,1.035367,-4.6299,5.9918375,9.2114
61,1715699676.7170937,2.0488226,-3.1805353,0.7944954,-5.160375,4.146725,8.8331375
62,1715699676.7437634,1.908058,-3.8079512,1.5864373,-7.37715,-0.4807,8.0363245
63,1715699676.7593884,2.0798166,-3.8081498,2.0611622,-7.285575,0.0507375,7.9948
64,1715699676.8508701,3.7767587,-4.2299695,2.3430123,-1.0473375,0.8017625,4.3484373
65,1715699676.8752296,4.505306,-2.9085627,3.014679,-0.39325,0.638825,5.85145
66,1715699676.8908458,5.893471,-2.0056117,2.774312,0.77,-0.93885,5.3103876
67,1715699676.918404,5.5948014,-1.4662538,-0.034663606,-1.1198,0.07535,0.464475
68,1715699676.934047,5.3021407,-1.3803211,0.82793576,-2.3672,1.093675,0.683925
69,1715699676.9661834,5.3409786,-0.4448471,2.3359785,-1.60765,1.095875,-0.1810875
70,1715699676.9824872,5.3844037,-0.5199847,1.6469877,1.2142625,-0.7759125,-2.5576375
71,1715699676.9980376,5.0507646,-0.66380733,1.1911315,1.5263875,-0.928125,-3.5398
72,1715699677.0306554,2.5167127,-1.107951,0.9099847,1.569975,-0.80245,-6.571675
73,1715699677.0461938,1.6472018,-0.9022477,-0.37461773,1.0841875,1.1394625,-5.6863127
74,1715699677.0925748,1.5117278,-0.86952597,-0.059128445,-0.689425,2.4849,-5.0898376
75,1715699677.1099646,2.4200766,-1.7986697,1.5420948,1.3484625,1.7892874,-6.5885873
76,1715699677.1255882,2.3402598,-2.1627982,1.5747248,2.5691874,2.06525,-7.0169
77,1715699677.2229106,2.8281345,-2.5896025,-0.22282875,4.1074,0.7420875,-8.728775
78,1715699677.2519584,2.5592203,-2.8775687,0.20928134,5.44005,-0.5564625,-9.0088625
79,1715699677.27055,3.309373,-2.9440367,-0.42099386,5.5605,-0.4211625,-9.640675
80,1715699677.286169,3.2100918,-3.024572,-0.70019877,4.5090375,-0.3166625,-10.7294
81,1715699677.303193,2.6795106,-2.9508715,-0.26922017,4.4484,-1.0454125,-10.999863
82,1715699677.3215952,2.306116,-2.8707492,-0.15646788,4.4589877,-1.8038625,-10.959437
83,1715699677.3372736,1.2737004,-2.051988,-0.3824618,3.8751624,-3.0512624,-9.3423
84,1715699677.3747277,0.66310394,-1.400107,-1.258104,1.788325,-3.290925,-6.688825
85,1715699677.3903604,0.8293578,-1.1484251,-1.8021407,0.642125,-3.36655,-5.58305
86,1715699677.4059782,0.9640214,-0.8292508,-2.3458714,-3.557125,-1.9221125,-4.60625
87,1715699677.4216,0.50183487,-0.96197253,-1.3123394,-5.15075,-0.3370125,-4.5060124
88,1715699677.4371393,-0.36402142,-1.7617737,-1.0643272,-6.4450374,-0.3081375,-4.594425
89,1715699677.457959,-1.5909327,-2.1454587,0.30958718,-7.724475,0.943525,-5.102625
90,1715699677.4933722,-3.851575,-2.9073396,2.2827675,-6.1755376,0.249975,-4.680775
91,1715699677.5089915,-4.0397553,-2.9286392,2.5605505,-5.2371,-0.625625,-4.3291874
92,1715699677.6098442,-2.9873548,-3.5707493,-2.5706422,0.68585,0.8316,3.029675
93,1715699677.6319697,-1.5249695,-3.5082567,-0.34607035,0.2693625,0.6271375,6.4458623
94,1715699677.6507301,0.007844037,-3.1011162,-0.7661621,1.9130375,-0.09295,7.5953627
95,1715699677.6733346,1.5407798,-2.3634098,-1.2366973,0.0818125,1.481425,6.9509
96,1715699677.6941001,0.9321101,-2.0541284,-0.16555046,-1.0505,2.4583626,6.348925
97,1715699677.7357123,1.7337462,-1.6536239,-0.570841,1.0874875,-0.425425,6.2605124
98,1715699677.7563725,1.8909327,-1.4151835,-0.24698776,1.309,-0.83655,4.8928
99,1715699677.777034,1.6249694,-1.4384251,-0.034663606,1.5230875,-0.341275,4.6552
100,1715699677.7976224,1.3281345,-1.7293577,-0.11570337,1.66485,1.6636125,5.2996626
101,1715699677.818055,1.9532111,-1.9142661,-0.535474,0.90956247,3.201825,6.4224873
102,1715699677.8327029,2.858211,-2.0537157,-0.43689603,0.389675,2.9462125,6.2456627
103,1715699677.8411222,2.6365902,-2.0217125,0.5658563,1.1407,0.13915,4.5838375
104,1715699677.85733,1.2041743,-2.3364985,0.7625841,3.4810874,-0.7481375,4.6051497
105,1715699677.8798018,0.729052,-2.3831804,-0.21070337,3.9721,0.6282375,5.8909125
106,1715699677.895658,0.7934709,-2.43711,-0.96992356,3.5226126,1.62415,6.8134
107,1715699677.988669,2.320994,-3.0457647,0.177263,-1.750375,-0.9868375,9.173038
108,1715699678.0044782,3.064832,-3.2341437,-0.1667737,-3.187525,1.0830874,10.517375
109,1715699678.0343242,3.8954127,-2.5995872,0.9677829,-8.1015,4.1947126,8.6702
110,1715699678.0542905,4.1538224,-2.8041744,1.8773701,-7.940625,2.2100375,8.008687
111,1715699678.0715659,4.5485168,-3.2005045,1.9288532,-6.6815376,0.4406875,6.9029126
112,1715699678.0871897,5.2557645,-3.5756423,1.4378135,-6.76885,0.6974,6.62805
113,1715699678.1028101,5.3751225,-3.7083638,1.3653364,-8.212325,2.0801,4.614775
114,1715699678.1183455,5.015902,-3.9121256,2.5166209,-8.778,2.040775,3.6826625
115,1715699678.134625,4.7794037,-3.7071404,3.0813456,-8.408262,-0.0067375,2.8996
116,1715699678.1502607,5.463502,-2.7228286,3.6695259,-6.0999126,-1.570525,2.7803874
117,1715699678.1658273,5.853716,-2.2953057,3.8594344,-5.3670373,-1.5301,2.2658625
118,1715699678.181404,6.7998934,-1.9879664,4.3863454,-4.5073876,-0.981475,1.26445
119,1715699678.2105496,4.7303824,-2.2787004,5.3039756,-0.71389997,-0.408375,-2.81875
120,1715699678.2313023,2.8818502,-1.9147859,3.4110093,2.87815,-0.3507625,-3.2725
121,1715699678.247198,2.708364,-1.2470948,1.8341436,3.7613125,2.6574626,-2.772825
122,1715699678.274753,2.767584,-1.1057034,1.6338379,3.6078625,2.93975,-2.9720626
123,1715699678.3505347,1.9283333,-1.2299695,1.4998013,5.4113126,-0.0451,-5.2985625
124,1715699678.360009,2.2490368,-2.2135627,-0.217737,5.3931623,-0.76835,-7.0541625
125,1715699678.370215,2.161361,-2.2374158,-0.36024466,5.0395126,-1.14235,-7.245975
126,1715699678.3825388,2.32763,-2.3240519,-0.43394494,4.6475,-1.2648625,-7.3566623
127,1715699678.4014914,2.2431192,-2.103257,-0.039342508,4.0095,-0.7183,-7.515475
128,1715699678.4222324,2.6849082,-2.0583029,-0.3500459,3.879425,0.471625,-7.53885
129,1715699678.4428117,2.9587157,-2.1073394,-0.8717584,2.8920374,0.3289,-7.9308624
130,1715699678.4634128,3.2132568,-2.3809328,-0.44862384,2.095225,0.470525,-8.34735
131,1715699678.487713,2.938425,-2.7030582,0.15065749,3.0922375,0.9552125,-8.5519495
132,1715699678.503997,2.8813455,-2.8019419,-0.10010704,3.5567124,0.452375,-8.5082245
133,1715699678.5196025,3.5720642,-2.8075383,-0.7197706,3.645125,-0.7470375,-9.153788
134,1715699678.535247,3.5666668,-2.816101,-0.78368497,3.477925,-1.063425,-9.522425
135,1715699678.5508788,3.0250764,-2.9428134,-0.6058104,2.969725,-1.9817874,-10.341513
136,1715699678.5673828,1.786743,-2.6589146,-0.9279358,2.0185,-2.72745,-9.341337
137,1715699678.5837061,1.5544343,-2.4434252,-1.1726758,1.3996125,-2.92875,-8.6713
138,1715699678.6043508,1.5847094,-2.0995872,-1.4483181,-0.1376375,-2.82755,-7.1308875
139,1715699678.6249993,1.7569878,-1.6040826,-0.8983639,-1.0260249,-2.6868875,-6.6781
140,1715699678.6456692,1.519266,-1.3551528,-1.0021406,-0.78636247,-3.1183624,-6.975375
141,1715699678.747989,-6.235061,-5.1087613,6.292859,-6.644275,0.4236375,-3.02005
142,1715699678.7639875,-5.5397553,-4.8330274,5.870948,3.04755,-0.97405,-1.2357125
143,1715699678.7846653,-4.8737,-4.8474007,3.9137614,6.2827873,-0.7513,-0.75845
144,1715699678.8210638,-1.4015291,-2.753104,-3.2914374,5.1343875,1.2684375,0.731775
145,1715699678.8366973,-1.8769572,-2.6506574,-3.169618,3.359675,1.0916125,1.1611875
146,1715699678.8640664,-1.5406728,-3.1905198,-0.4579052,0.8732625,-0.02695,4.74155
147,1715699678.8796237,-0.58073395,-3.1221254,0.2551529,2.4541,-1.3286625,6.4714375
148,1715699678.8911004,-0.2351682,-3.0938838,0.18368502,3.11355,-1.5173125,6.9177623
149,1715699678.902873,0.68879205,-2.9894037,-0.3614679,3.879425,-0.85676247,7.4782124
150,1715699678.9254804,1.3552446,-2.6037767,-1.116315,3.3319,1.078825,7.74235
151,1715699678.9483554,1.5134557,-2.4570794,-1.1771713,2.9079876,1.54,7.8765497
152,1715699678.979083,1.9742049,-2.2513762,-0.93038225,1.3910875,0.199925,8.0363245
153,1715699678.9946558,2.4235475,-2.2755353,-0.40102446,1.571075,-0.7396125,7.987375
154,1715699679.0193677,2.685627,-2.201529,-0.09714068,1.6828625,-0.0226875,6.990225
155,1715699679.040502,2.3539295,-2.1745107,0.2534098,2.4776125,1.2599125,6.5470624
156,1715699679.1117992,1.7594343,-2.4673853,-0.31243122,-1.3222,1.027675,8.041687
157,1715699679.129977,1.6559633,-2.6428134,-0.06931193,-1.2881,1.05325,8.746925
158,1715699679.1459494,1.7337462,-2.703364,0.14292048,-1.2827375,1.3248125,8.860912
159,1715699679.164309,2.20948,-2.757997,0.15535168,-1.5970625,3.4266374,9.069637
160,1715699679.1852915,2.5762537,-2.5027523,-0.5247706,-2.8859875,4.9116373,7.9756875
161,1715699679.2052112,2.0957189,-2.6435323,-0.5599388,-4.7939377,3.018675,6.9785376
162,1715699679.2326481,2.1035626,-2.5747247,0.7930734,-4.3571,-0.1846625,7.1841
163,1715699679.2484252,2.2724771,-2.4807339,0.5756422,-4.029025,0.3949,7.3194
164,1715699679.272135,2.6378136,-2.964526,-0.58287466,-6.19465,3.3350625,7.0734124
165,1715699679.2876403,2.5977523,-3.24026,-0.037110094,-7.5167127,2.5414126,7.070112
166,1715699679.3033938,3.327523,-3.678899,0.50825685,-7.81605,1.4697375,7.397225
167,1715699679.3208368,5.9579053,-4.580841,0.79866976,-7.81605,0.857175,6.4395375
168,1715699679.3408709,6.0728903,-4.3800154,2.050153,-6.6633873,-0.543675,3.4535875
169,1715699679.3644762,6.0621867,-2.777783,3.9609632,-3.707275,-3.3207624,2.2061875
170,1715699679.385429,6.498578,-1.8057034,4.120994,-1.481975,-0.000275,1.105775
171,1715699679.4010527,6.178593,-2.1000001,3.2394495,-0.6457,1.5602125,0.1683
172,1715699679.4177058,6.178593,-2.1000001,3.2394495,-0.132275,1.7243875,-0.62425
173,1715699679.4982743,2.0681958,-1.0652447,0.9252752,3.5407624,1.297175,-2.98485
174,1715699679.517562,1.879006,-0.8107034,1.0316973,2.901525,1.474,-3.3683374
175,1715699679.5333138,1.8917431,-0.80845565,1.1017278,2.8963,1.49215,-3.4726999
176,1715699679.5488348,2.3949082,-1.4699235,1.3187615,3.9956124,1.6348749,-4.426125
177,1715699679.5645218,2.5718656,-2.2953057,1.0490367,5.8075876,1.2577125,-5.540425
178,1715699679.5807352,2.7022476,-2.9481192,0.4230428,7.3011127,0.25959998,-6.5300126
179,1715699679.5962327,2.761468,-3.011315,-0.024663609,7.63345,-0.678975,-7.17035
180,1715699679.611991,2.7112079,-3.1963303,-0.5794037,7.085925,-1.5310625,-8.4422245
181,1715699679.6398785,2.4645262,-3.3269112,-0.6567737,6.1293373,-1.5503125,-9.32855
182,1715699679.6646419,1.7279359,-3.285627,-0.24240062,4.917,-1.20725,-9.198612
183,1715699679.681444,1.7953057,-3.2376146,-0.21529052,4.537775,-1.0176375,-8.5369625
184,1715699679.7003813,2.035474,-3.1201835,-0.30631498,4.338675,-1.07195,-8.322875
185,1715699679.7231815,2.106223,-2.7469876,-0.21162081,2.94415,-2.196975,-8.696875
186,1715699679.7492754,1.6519878,-2.3953059,0.0091743115,2.6268,-3.443275,-8.1983
187,1715699679.764915,1.6505657,-2.2384253,-0.122018345,2.5020876,-3.70315,-7.90955
188,1715699679.780615,1.6696177,-2.1535168,-0.9361927,2.263525,-3.694625,-7.5889
189,1715699679.796343,1.6696177,-2.1535168,-0.9361927,1.69565,-3.3952875,-7.1553626
190,1715699679.8939214,0.1479052,-1.872783,-3.9603517,-5.005825,-0.09295,-6.08685
191,1715699679.9095669,-1.609893,-3.5712538,-2.708364,-11.024612,3.9048624,-6.0410624
192,1715699679.9351387,-3.7737002,-4.0266056,0.62538224,-11.925787,3.2891374,-5.5543127
193,1715699679.950278,-4.1781807,-3.0946023,5.9201837,-6.405575,0.603625,-5.6810875
194,1715699679.966897,-4.283379,-3.063104,6.205306,-1.8165125,-0.46475,-6.1604123
195,1715699679.9895873,-5.5024467,-4.1167126,3.1965292,2.8078876,-0.323125,-4.9033875
196,1715699680.005318,-6.2270184,-4.079098,1.7173241,2.4040499,1.0723625,-3.0988374
197,1715699680.0208464,-5.424771,-3.8738074,2.008257,4.53255,1.7381375,-0.379225
198,1715699680.0364614,-3.0522935,-3.5424004,0.9397554,5.9642,1.2023,-0.1139875
199,1715699680.0661983,-1.707844,-2.7555506,-2.7652445,3.2957375,-0.02915,0.6743
200,1715699680.0821526,-1.8053975,-2.7653363,-1.7650306,-0.09185,0.429,2.2136126
201,1715699680.1024857,-1.1779816,-2.7047858,0.19949542,0.0551375,-0.1654125,4.70635
202,1715699680.1395254,1.2571865,-2.3426147,-0.26218656,-0.0055,1.2236125,5.467
203,1715699680.1664157,0.4788991,-2.462997,0.14506117,0.154275,1.043625,6.0410624
204,1715699680.1831102,0.7043884,-2.6084557,-0.023960244,0.4621375,0.91905,6.4416
205,1715699680.2761142,2.326101,-3.4767585,-1.4094801,0.7902125,-0.069575,10.048637
206,1715699680.291573,2.9137616,-3.2922478,-0.5953058,0.304425,0.61545,10.344812
207,1715699680.3107293,3.638425,-3.1898012,-0.39246178,0.11165,1.0021,10.006013
208,1715699680.3332293,3.9153976,-2.9796178,-0.44720182,-0.1546875,0.1519375,8.68835
209,1715699680.3510454,3.2474008,-2.8458714,-0.075733945,-0.5819,0.505725,7.2661877
210,1715699680.3667085,2.780841,-2.8946943,0.15779817,-0.5231875,0.606925,7.1160374
211,1715699680.3905098,2.0157034,-2.7963302,0.15749235,-0.0779625,1.01695,7.6943626
212,1715699680.4097419,2.246789,-2.7482111,-0.8845107,-1.7386875,1.5698375,8.7276745
213,1715699680.4249825,2.7583027,-2.716315,-0.1703364,-3.3419375,2.1547625,8.342125
214,1715699680.4460666,2.0256882,-3.019159,1.5738074,-3.9554625,1.2577125,7.077675
215,1715699680.4671466,2.4039755,-3.3010247,0.83628434,-3.0127625,0.78265,7.3321877
216,1715699680.4826152,3.36289,-3.2458715,-0.22385322,-1.802625,0.0848375,8.458175
217,1715699680.506219,5.185015,-3.2859325,-1.3527981,-5.302,1.55705,7.74345
218,1715699680.524936,5.1650305,-4.422217,1.2223241,-6.8242626,1.0159875,6.9168
219,1715699680.5450084,6.051881,-4.988991,2.21815,-5.245625,0.3309625,7.109575
220,1715699680.5675576,7.3502603,-4.3802295,1.2977523,-5.245625,0.3309625,7.109575
221,1715699680.6522617,3.8609633,-1.0918502,2.783792,3.04755,0.4258375,-3.3587124
222,1715699680.6679227,2.6863456,-0.9036698,2.2493427,3.289275,0.48014998,-3.481225
223,1715699680.6836905,2.322737,-0.60570335,1.6958257,3.7048,1.9459,-3.2511876
224,1715699680.6993139,2.4522936,-0.4977523,1.8253824,4.0297127,2.2100375,-3.6784
225,1715699680.714955,2.4050002,-0.5444495,1.7777828,4.6432376,1.463275,-4.3186
226,1715699680.7434583,2.238731,-1.3640214,1.2303822,5.5210376,-0.9527375,-6.3383374
227,1715699680.7591214,1.97737,-1.779312,1.0570796,5.1354876,-0.4871625,-6.69735
228,1715699680.7753005,2.0332263,-2.2120335,0.80285937,4.8148375,-0.068475,-6.52905
229,1715699680.7909622,2.5897093,-2.2689145,0.7855199,4.5474,0.10835,-6.5129623
230,1715699680.8065891,3.2586086,-2.4236543,0.995107,5.03525,-0.43175,-7.5175376
231,1715699680.8221726,3.5076451,-2.582569,0.7815443,5.382575,-0.4263875,-8.2077875
232,1715699680.8379128,3.427324,-2.7319112,0.5409786,5.501925,-0.290125,-8.8737
233,1715699680.8546162,2.9891896,-2.9335322,0.4016361,5.6179748,-0.1463,-9.3380375
234,1715699680.8706176,3.0157952,-2.9742048,0.15168196,5.6381874,-0.185625,-9.301875
235,1715699680.8862948,3.5085628,-3.1316972,-0.22477065,5.2100124,-1.0869375,-9.707775
236,1715699680.905954,3.32263,-3.270535,-0.4932722,4.505875,-1.8198125,-10.460862
237,1715699680.9228015,2.7688072,-3.1672783,-0.6487309,3.4544125,-2.077625,-10.392662
238,1715699680.93855,2.6475077,-2.980627,-0.69215596,2.8738875,-2.1714,-10.109412
239,1715699681.0153453,2.6475077,-2.980627,-0.69215596,2.3093126,-2.2416625,-9.863287
240,1715699681.0370219,1.6302752,-1.9259939,-1.569312,0.6017,-3.5050125,-7.1031127
241,1715699681.0532935,1.7833792,-1.8816514,-1.8800154,-0.756525,-4.1377873,-5.8249125
242,1715699681.068811,2.105,-1.5992813,-1.37237,-1.770725,-4.8739624,-5.7993374
243,1715699681.092358,1.2593273,-1.101636,-0.2053058,-1.94645,-3.90555,-6.4554873
244,1715699681.1149132,-0.37522936,-2.2279358,-3.0155964,-3.3856626,-2.7880874,-5.1239376
245,1715699681.136941,-1.0159022,-3.8040824,-1.8646331,-9.251963,-1.5736874,-4.393125
246,1715699681.153622,-3.2861314,-4.311422,0.96463305,-10.477087,-0.4488,-4.0277877
247,1715699681.1777651,-4.510092,-4.269419,3.0713608,-9.054925,-1.1625625,-2.368025
248,1715699681.197026,-4.0248775,-3.988792,6.056881,-4.5830126,-0.169675,-1.7300249
249,1715699681.2225442,-3.2765596,-4.077676,4.553517,4.42805,0.4054875,-2.8782876
250,1715699681.2420714,-3.023043,-3.846988,0.79796636,7.411937,1.363175,-2.2829125
251,1715699681.2687972,-2.1024466,-2.940367,-1.7450612,5.281375,2.275075,0.1342
252,1715699681.285867,-1.2311927,-2.533945,-1.4665596,3.35225,1.5857875,1.4317875
253,1715699681.3016498,-0.6579052,-2.3623853,-0.92966366,2.6459124,1.4612125,1.93985
254,1715699681.3213992,-0.43597862,-2.3587158,-0.6224312,2.3742125,1.4047,2.2881374
255,1715699681.400505,1.38237,-2.1300764,-0.1374159,2.2251625,3.0729876,5.6384625
256,1715699681.4175327,1.8409786,-1.5482111,-0.76126915,3.9135249,2.5584624,4.9812126
257,1715699681.4332724,1.6535168,-1.4491285,-0.92813456,3.4970374,2.7693875,5.3838124
258,1715699681.448765,1.7037767,-1.2751223,-0.9543273,2.8568375,3.21145,6.045325
259,1715699681.4697242,1.71763,-1.2233486,-1.1481192,2.2485375,3.7398624,6.5802
260,1715699681.4981914,1.2964374,-1.5105963,-0.27389908,-0.2644125,3.2220376,7.5037875
261,1715699681.5253594,0.83619267,-2.2335322,-0.16574924,-1.0995874,3.8825874,9.757825
262,1715699681.5410058,1.2820642,-3.0557644,0.04230887,-2.7325375,4.7326126,12.15995
263,1715699681.5566814,2.5585167,-3.554327,0.03058104,-3.335475,5.2141376,12.677775
264,1715699681.5735657,2.8232415,-3.5910244,0.14097859,-5.0048623,6.1760874,12.503013
265,1715699681.5895665,3.3091743,-3.421407,0.70133024,-5.8645124,5.8938,11.308825
266,1715699681.6052268,3.020994,-3.2619727,1.0527064,-5.6513877,4.1083627,9.3817625
267,1715699681.6209917,2.377569,-3.0797095,1.2424005,-4.7129498,2.5073125,8.605163
268,1715699681.6366196,2.1377215,-3.0594344,1.1894037,-4.5137124,2.2048125,8.544525
269,1715699681.6522381,1.5534098,-3.2353668,0.67125386,-3.422925,-0.1984125,9.2390375
270,1715699681.670072,2.5235474,-3.4555507,0.11651376,-4.24105,0.88165,9.981538
271,1715699681.685562,3.1031651,-2.7970488,0.20366973,-6.7177,3.0782125,8.5338
272,1715699681.7946315,6.0802293,-3.790413,0.09235474,-4.2868376,-0.7470375,4.867225
273,1715699681.811739,5.793884,-3.3115137,1.5069265,-7.217375,1.2992375,2.8485875
274,1715699681.827185,5.349954,-3.2915442,2.70815,-7.113975,1.4430625,2.58115
275,1715699681.8429327,5.389801,-2.351682,4.480734,-4.0077124,0.910525,2.5268376
276,1715699681.8702729,5.853716,-1.1718655,3.624159,0.0977625,0.9999,0.1672
277,1715699681.8858764,4.386957,-1.1105964,2.6015291,1.2621125,1.416525,-2.3947
278,1715699681.901626,3.285734,-1.1504587,2.3787003,1.4773,1.8159624,-2.91665
279,1715699681.9170957,2.2844038,-0.99032116,2.2910244,1.6253875,2.0098374,-2.9007
280,1715699681.9339414,1.6906269,-0.6254893,2.245153,2.024825,2.2239249,-2.4671624
281,1715699681.949558,1.5949082,-0.3833792,2.127324,2.9847126,1.6423,-2.4575374
282,1715699681.9705422,1.8045871,-0.5117278,1.9860398,3.5385625,1.0032,-2.7622375
283,1715699681.986037,2.1979663,-1.1475077,1.5876606,4.4143,0.320375,-3.956425
284,1715699682.013523,1.9187615,-1.7427064,1.4832876,4.824325,0.3576375,-4.8522377
285,1715699682.0306156,1.8094802,-2.1942966,1.1408716,5.7393875,0.384175,-4.849075
286,1715699682.0484238,2.7453668,-2.4756422,0.8319114,6.494675,-0.2805,-5.9483876
287,1715699682.0708625,2.9618807,-2.6025536,0.6593272,6.6374,-0.3922875,-6.6749372
288,1715699682.1549945,3.6960247,-3.9262998,-0.44984707,7.272375,-2.4068,-11.2684
289,1715699682.1809983,2.6446483,-3.3801222,-0.19571866,3.713325,-1.385175,-11.413187
290,1715699682.1966045,2.4683945,-3.1165137,-0.14108562,3.3202124,-1.352175,-10.9307
291,1715699682.2179449,2.4867432,-2.45026,-0.49185017,2.348775,-2.226675,-9.964487
292,1715699682.2419183,2.5653365,-2.2316055,-0.67603976,1.2993749,-3.0012126,-9.879237
293,1715699682.2707613,1.6696177,-2.0980582,-0.63191134,0.087175,-3.6243625,-8.852387
294,1715699682.2921846,1.5585169,-1.8312998,-0.76830274,-0.300575,-4.5266376,-7.5260625
295,1715699682.3076577,1.6302752,-1.4613609,-0.80366975,-0.556325,-4.9814873,-6.7750373
296,1715699682.323306,1.511208,-1.2910244,-1.4378135,-1.010075,-4.741825,-6.7442374
297,1715699682.340772,1.511208,-1.2910244,-1.4378135,-1.6726875,-4.3646626,-6.89865
298,1715699682.3605616,-0.18827216,-2.2894037,-3.1781805,-3.774375,-2.9788,-6.537575
299,1715699682.3836133,-1.9147859,-4.670749,-2.8496482,-10.603863,-1.4383875,-4.9385877
300,1715699682.3991232,-3.043318,-5.806315,-1.3438379,-13.193538,0.0273625,-4.2961874
301,1715699682.4150097,-4.757492,-6.2907186,4.255046,-13.442825,2.2292874,-3.6858249
302,1715699682.4307497,-5.856575,-5.1266055,7.695214,-4.434925,1.736075,-2.3733876
303,1715699682.446411,-4.6406727,-4.906728,5.185627,2.9654624,0.7038625,-1.4029125
304,1715699682.5387783,-1.3593273,-3.2300766,-2.0167124,3.0976,1.5794625,3.0828874
305,1715699682.5565994,0.07319572,-2.8691132,-0.6364985,1.2695374,1.6198875,5.7365
306,1715699682.5723982,0.63720185,-2.8322172,-0.28481653,0.76147497,1.2736624,6.6226873
307,1715699682.5876865,1.1129512,-2.8070335,-0.0031651377,0.31295,1.5527875,7.0904627
308,1715699682.5982623,1.2454587,-2.782676,0.4382263,0.0275,2.29955,7.84245
309,1715699682.6233578,1.6911315,-2.7592201,0.3801223,0.61875,2.8705876,8.943962
310,1715699682.6348484,2.1842968,-2.6413915,0.23149848,1.02465,2.7788749,9.223087
311,1715699682.6557753,3.5640213,-2.0253823,-0.010504588,2.7993624,0.6292,7.7924
312,1715699682.675603,3.238639,-1.9475076,-0.52844036,3.3671,-0.09405,6.754825
313,1715699682.696192,1.5161009,-2.0894954,-0.7307798,2.0290875,0.9818875,7.36945
314,1715699682.7129529,1.5407798,-2.75974,-0.06880734,0.1478125,3.7046626,9.869613
315,1715699682.7285585,1.77289,-3.2229357,0.071666665,-0.52648747,4.6677127,10.84765
316,1715699682.7456825,2.7754283,-3.75841,0.074113145,-2.057275,6.7299376,12.017225
317,1715699682.773088,3.6755352,-3.7183485,-0.049847096,-3.5454376,7.0389,11.380187
318,1715699682.7992404,2.4207952,-3.490413,2.1026454,-1.6812125,0.7794875,8.35065
319,1715699682.815372,2.4425075,-3.133838,1.3492355,-0.6138,0.3949,8.437963
320,1715699682.8376775,2.469832,-3.2446485,0.7005046,-0.3463625,0.6408875,8.4689
321,1715699682.9258301,2.8767583,-3.1978595,1.6311927,-1.4553,-2.2001374,8.75325
322,1715699682.9417148,6.3256884,-3.0738072,-1.2307799,-2.7858875,-0.2613875,9.011063
323,1715699682.957324,6.9649386,-2.6475077,-0.77319574,-8.229375,3.5321,6.5311127
324,1715699682.9736257,6.6491284,-3.1219113,0.32588685,-9.573712,4.5324125,5.5671
325,1715699682.9892197,4.8060093,-3.7412846,3.2458715,-9.259525,4.6655126,4.1716123
326,1715699683.0054233,4.8172326,-3.8508713,4.1334405,-6.4950876,2.26765,4.3206625
327,1715699683.020912,5.4586086,-3.6651375,3.9494345,-4.181375,0.0561,4.4730124
328,1715699683.0363894,7.9916363,-1.9035627,1.2828747,-6.8008876,7.337137,4.081
329,1715699683.0517738,7.9916363,-2.8273242,2.4009175,-7.9354,7.7515626,1.8269625
330,1715699683.0812364,4.190214,-1.8571867,2.4636085,4.807275,-0.60115,-3.5355375
331,1715699683.099557,3.0138686,-1.6929665,1.1845107,4.287525,0.8306375,-4.0235248
332,1715699683.116683,1.6371101,-1.143318,0.7913303,2.4414499,3.2987626,-2.88255
333,1715699683.1474648,1.7862386,-0.46166667,1.384205,2.363625,1.8148625,-2.487375
334,1715699683.1743462,2.7185473,-0.8406728,2.1024466,4.841375,-1.9679,-4.84275
335,1715699683.1895418,2.9687004,-1.3854282,2.1045873,6.18365,-3.189725,-6.3767
336,1715699683.2155604,2.5569878,-2.642309,1.1032568,7.3011127,-1.384075,-8.6042
337,1715699683.3076372,3.4814527,-2.987156,0.8145719,6.6853876,-4.5533123,-10.433225
338,1715699683.3252203,3.6088684,-3.1360855,0.18195719,4.1767,-4.521275,-12.100275
339,1715699683.3408692,3.285734,-3.0174313,-0.43811926,3.5162876,-4.352975,-11.985325
340,1715699683.356468,2.8813455,-2.8311927,-0.5547401,2.835525,-4.21025,-11.6699
341,1715699683.3747296,2.5735934,-2.3401682,-0.63577986,0.675125,-4.21135,-10.10295
342,1715699683.4032028,1.9827676,-1.9501529,-0.55107033,-1.6897374,-3.9631624,-8.11085
343,1715699683.419669,1.4385321,-1.7771714,-0.38103977,-2.0306,-4.5245748,-6.551325
344,1715699683.43521,1.383792,-1.678792,-0.50866973,-1.9240375,-5.2509875,-5.6799874
345,1715699683.457377,1.6883793,-1.687049,-1.5961314,-3.4494624,-4.1399875,-3.179825
346,1715699683.4746995,1.9314984,-1.7386392,-1.4448471,-4.4988623,-2.8084376,-2.5001626
347,1715699683.4903076,1.9988837,-1.5294648,-0.9860398,-5.4927125,-1.2573,-2.015475
348,1715699683.5058258,1.7830734,-1.1741132,-0.76319575,-5.4927125,-1.063425,-2.031425
349,1715699683.5286593,1.8030581,-1.1609633,-1.671361,-6.0424376,-0.4967875,-2.4734874
350,1715699683.5532234,0.58848625,-2.5864375,-1.38237,-8.448825,1.0489875,-5.3763876
351,1715699683.5750148,-2.6745107,-4.2623854,-0.37053517,-11.35915,2.4572625,-6.2712374
352,1715699683.5942428,-4.1479053,-5.155856,1.7302753,-11.6776,3.3402874,-6.369275
353,1715699683.6724951,-4.1479053,-5.155856,1.7302753,-9.662125,4.0710998,-6.0165873
354,1715699683.6876905,-0.97197247,-3.0350611,-3.4941895,5.3271623,2.006675,1.0802
355,1715699683.704786,-1.3314984,-2.983792,-3.3252754,3.5982375,2.60535,1.7428125
356,1715699683.7319767,-0.47970948,-2.7184556,-0.7231346,0.47808748,2.8822749,5.2634997
357,1715699683.7482657,0.40611622,-2.3946023,-0.53700304,0.8072625,0.4065875,6.1103625
358,1715699683.7664607,0.5650306,-2.4192662,-0.51162076,0.4536125,0.3799125,6.3798623
359,1715699683.7835133,0.88490826,-2.4215138,-0.2687003,-0.957825,2.0087376,7.1405125
360,1715699683.813967,1.1612692,-2.7429204,0.68123853,-2.209625,3.994375,8.946025
361,1715699683.8295953,1.4441437,-2.763104,0.5585168,-1.937925,4.704975,10.230824
362,1715699683.8532245,2.672171,-2.6685016,-0.3677829,-2.745325,3.9986374,9.998588
363,1715699683.8759723,2.4041743,-2.6330276,0.11896025,-3.540075,3.37755,9.0963125
364,1715699683.8917038,1.8653363,-2.9622784,0.7613608,-3.6774375,3.0985625,9.017525
365,1715699683.9137723,1.7272171,-3.284205,0.8902141,-3.6466374,4.1691375,9.372137
366,1715699683.9296196,1.6159022,-3.3794036,0.85382265,-3.7137375,4.334275,9.570275
367,1715699683.9485416,2.2441437,-3.6432264,0.54750764,-3.8297875,3.3818126,9.80155
368,1715699683.9771583,3.0892966,-3.086743,0.21906728,-4.1281624,0.9700625,8.110988
369,1715699684.1083019,1.5859327,-3.6017277,2.1819572,-7.2205377,-0.6543625,6.0401
370,1715699684.1250577,4.361575,-3.5536242,1.7858257,-5.2701,-1.5065875,7.850975
371,1715699684.1442056,6.3359785,-2.6525993,0.7267125,-4.347475,-1.34255,8.1642
372,1715699684.15979,6.7567735,-2.335581,0.76769114,-5.851725,1.62745,5.0813127
373,1715699684.1765716,5.0861316,-3.2946944,2.895107,-7.2364874,2.325125,2.283875
374,1715699684.1920123,5.0861316,-3.2946944,2.895107,-6.4728127,0.520575,2.031425
375,1715699684.2059963,5.1735015,-3.0706422,4.142003,-2.7325375,-3.1268876,2.6994
376,1715699684.2141092,5.683899,-2.8371103,3.964526,-1.7727875,-3.3495,3.0712
377,1715699684.222034,7.8347554,-1.7995872,1.7782875,-1.7887375,-0.762025,4.1034126
378,1715699684.2379622,7.9916363,-1.4615749,1.5464832,-3.7158,1.885125,3.3396
379,1715699684.2534747,6.2283335,-1.6588225,5.9221253,-4.4540377,4.4193873,0.631675
380,1715699684.2767665,2.179205,-2.3677828,1.9447553,5.1173377,0.9285375,-3.2181876
381,1715699684.3188431,2.0171254,-1.3246636,0.69347095,4.2917876,0.5259375,-2.8037624
382,1715699684.352623,2.1524007,-0.90264523,0.86116207,4.3461,0.165825,-3.1053
383,1715699684.4500315,3.410199,-2.545673,0.9273242,5.026725,0.1137125,-9.371175
384,1715699684.477515,3.0651376,-3.0443425,0.64659023,6.293375,-0.238975,-10.415075
385,1715699684.4931512,3.0514832,-3.0862384,0.44790518,6.377525,-0.473275,-10.44175
386,1715699684.5087438,3.3247707,-3.1219113,-0.10591744,6.1325,-1.3041875,-10.64415
387,1715699684.535142,2.9931653,-2.9205964,-0.7978593,3.9103625,-0.6661875,-11.165
388,1715699684.5531416,2.5004127,-2.6247706,-0.7544343,2.3412125,0.17435,-10.538688
389,1715699684.5779266,2.2233486,-2.2105963,-0.29561162,1.6094375,0.2701875,-9.625688
390,1715699684.6052988,1.8299695,-1.8095871,-0.3551529,1.59665,-0.0397375,-9.204937
391,1715699684.6209047,1.741896,-1.6616668,-0.82252294,0.9755625,-1.8187125,-7.4908624
392,1715699684.648437,1.1882722,-1.430581,-1.0238532,0.0232375,-2.228875,-6.518325
393,1715699684.6781926,1.337003,-1.3046942,-0.78980124,-0.8012125,-2.3738,-5.3241377
394,1715699684.7037332,1.4416974,-1.4123394,-0.519159,-1.07085,-2.144725,-5.0952
395,1715699684.7243252,0.899893,-1.0720643,0.05035168,-0.0534875,-2.7636125,-4.87355
396,1715699684.80954,0.54373085,-0.97665143,-0.2429205,0.8595125,-3.273875,-4.6583624
397,1715699684.827091,-3.8261926,-3.7100916,1.6079512,-6.8828373,0.8124875,-6.0347376
398,1715699684.8431516,-6.3185477,-4.0346637,5.5821557,-5.0697627,2.5306876,-4.6083126
399,1715699684.858793,-4.796636,-3.906315,5.067477,3.141325,2.2719126,-1.4008499
400,1715699684.8785803,-2.015795,-3.575841,1.2193731,5.30585,2.022625,-0.6743
401,1715699684.89734,0.16860856,-2.9200766,-1.8082569,6.5054,1.1160874,0.2322375
402,1715699684.912899,0.11253823,-2.4470947,-2.6800153,2.195325,2.5306876,0.4494875
403,1715699684.928551,-0.99071866,-2.6735933,-1.3237462,0.1733875,3.9485874,1.6894625
404,1715699684.945198,-0.37278286,-3.1800153,0.56269115,-0.318725,4.330975,2.64715
405,1715699684.9633527,-0.37278286,-3.1800153,0.56269115,0.089237496,3.7365625,3.4695375
406,1715699684.9790215,-0.086743124,-3.2502599,-0.0598318,4.49845,0.721875,4.5859
407,1715699684.9964178,-0.03230887,-3.1954129,-0.6763455,3.5503874,1.9320124,6.047525
408,1715699685.0123315,0.5046942,-2.91763,-0.56207955,3.0251374,2.4103749,7.023225
409,1715699685.0287094,0.7133486,-2.8553517,-0.49469417,2.921875,2.5179,7.4663873
410,1715699685.0443444,2.2724771,-2.5781806,-1.348425,1.522125,3.9252124,9.36155
411,1715699685.059972,3.619572,-2.3231347,-1.1896025,0.24805,4.1947126,9.481862
412,1715699685.0808,3.4287462,-1.5511774,0.8366972,0.3598375,2.30065,6.39155
413,1715699685.0964344,2.7422018,-1.72763,0.3349694,0.6549125,2.275075,6.3564873
414,1715699685.112139,2.7422018,-1.72763,0.3349694,1.05545,2.8290625,6.6589875
415,1715699685.1965137,2.5730886,-3.6654432,0.5360856,-6.5621877,6.7588124,12.226088
416,1715699685.2122414,3.6164067,-3.5509634,0.84678894,-7.3601,4.5546875,10.949813
417,1715699685.2279005,3.8971407,-3.437202,1.0285474,-7.301525,3.8974376,10.2212
418,1715699685.2436223,2.7085626,-3.303777,1.5969418,-5.632275,0.335225,7.50585
419,1715699685.2555401,1.9742049,-3.3347554,1.3458716,-4.7502127,-0.4434375,7.5229
420,1715699685.2642727,1.6652446,-3.455046,0.93221706,-4.5882373,-0.1398375,8.3942375
421,1715699685.2879078,2.1640215,-3.969006,0.65860856,-7.2791123,2.9291625,10.210612
422,1715699685.3193145,4.155352,-3.4301682,1.112737,-8.79505,2.982375,8.915225
423,1715699685.3354535,4.8891897,-3.169526,1.3087615,-8.79505,2.982375,8.915225
424,1715699685.3629103,1.8243579,-4.05474,2.0460703,-7.890575,2.3901625,4.611475
425,1715699685.3802795,2.3715596,-4.4110093,2.3384252,-7.7009625,1.9757375,5.8397627
426,1715699685.3960164,7.038838,-4.3443427,1.9776759,-7.1395497,0.1775125,4.94175
427,1715699685.4116783,6.8548474,-4.141789,2.47289,-6.7219625,-2.6635125,0.700975
428,1715699685.4273205,6.2076454,-4.1181498,3.0115137,-6.4939876,-3.3526626,0.3089625
429,1715699685.4566004,4.5373087,-2.3977523,4.680841,-3.8575625,-0.7225625,3.08495
430,1715699685.4806669,6.548119,-1.4312997,7.0741134,-1.7610999,5.9609,1.43275
431,1715699685.5012126,5.1400614,-1.5975535,6.199694,1.6190625,5.74145,-0.5017375
432,1715699685.5790038,0.80152905,-1.3661621,0.0235474,7.405475,-1.855975,-3.717725
433,1715699685.595702,1.8660551,-1.1259938,1.2814527,1.7617875,1.7978125,-2.5641
434,1715699685.6118903,2.2753363,-1.9006116,2.954633,3.55465,-0.40507498,-4.256725
435,1715699685.635581,2.4762537,-2.6685016,3.3995874,7.29905,-2.11695,-5.473325
436,1715699685.6544833,2.8713608,-3.4177368,1.7075381,10.327487,-2.508,-7.0307875
437,1715699685.6809478,3.945459,-3.4867432,-0.081345566,9.504137,-2.1756625,-8.82145
438,1715699685.6966257,4.182676,-3.508058,-0.5301682,7.1924872,-2.1373,-10.688837
439,1715699685.7167494,3.1754282,-3.7747247,0.56605506,6.3008,-2.1660376,-12.317662
440,1715699685.7330265,3.083899,-3.736896,0.46402138,6.3712,-2.2075624,-12.2793
441,1715699685.7502425,3.0595262,-3.6845105,-0.24698776,6.1782875,-2.3247125,-12.072638
442,1715699685.7813902,3.1361928,-3.098272,-1.363104,2.9079876,-3.2599876,-12.21
443,1715699685.8018136,2.2313914,-2.7394495,-0.85056573,0.72421247,-2.6538875,-11.398337
444,1715699685.8189266,2.0400612,-2.4642203,-0.57818043,0.0573375,-2.7732375,-9.807875
445,1715699685.834832,1.9005047,-2.082676,-0.49591744,-0.0342375,-2.8147626,-9.3423
446,1715699685.8505592,1.661575,-1.7649388,-0.3798165,-0.049225,-3.33135,-8.664838
447,1715699685.8813894,1.6559633,-1.6360856,-0.604786,-0.0204875,-4.4488125,-7.4993873
448,1715699685.981694,-2.087569,-1.7227371,-3.9842968,-5.6120625,0.2531375,-1.981375
449,1715699685.9972286,-0.8477064,-3.5534098,-1.1915444,-13.198763,1.3068,-1.06315
450,1715699686.0129395,-1.3568808,-6.3659477,-0.7656422,-13.510887,3.8814874,-5.3934374
451,1715699686.0284173,-1.9382265,-4.290719,5.457997,-11.49115,-0.60225,-6.3063
452,1715699686.0441036,-7.0250764,-5.5251837,7.634251,-0.36025,0.535425,-5.9420624
453,1715699686.059787,-7.0250764,-5.5251837,7.634251,3.4364,1.3589125,-4.662625
454,1715699686.075836,-3.4671712,-5.25841,1.2440367,10.526725,0.7613375,-0.6765
455,1715699686.0962868,-0.71233946,-1.8461773,-5.0596333,2.5213375,3.2913375,-3.01785
456,1715699686.119664,-1.5006117,-1.4256881,-3.9010243,1.4889874,2.4561625,-2.806925
457,1715699686.1359684,-1.0204893,-0.8465903,-1.3350612,-0.2303125,1.3941125,1.577675
458,1715699686.1515653,0.71651375,-1.6273241,-0.8781804,-1.2571625,1.1320375,1.9239
459,1715699686.1818798,-1.0908257,-3.0447552,2.3825688,0.0221375,0.3256,3.315125
460,1715699686.1974907,-0.6207951,-3.1926606,1.4598318,2.5606625,0.68255,4.5519376
461,1715699686.223412,0.042706423,-3.061162,-0.3831804,2.9005625,1.583725,6.652525
462,1715699686.2391977,1.0819572,-2.7889907,-1.2796178,2.1388125,1.8063375,7.3099127
463,1715699686.2548335,1.4931651,-2.5254893,-1.3721713,-0.0097624995,2.225025,7.9415874
464,1715699686.3379111,1.7769573,-3.4865446,-0.52282876,-1.4361875,2.7597625,10.921075
465,1715699686.3555567,1.9700305,-3.8182416,-0.5067278,-2.72085,3.573625,12.083363
466,1715699686.3825808,3.6252754,-4.62263,-0.66411316,-5.580025,3.74935,13.1634245
467,1715699686.3980956,4.4750304,-4.6909328,0.54974,-6.6539,3.862375,12.8449745
468,1715699686.4137344,4.6558566,-4.522324,1.1179358,-7.3217373,1.6732374,10.4918
469,1715699686.4293423,4.646896,-4.2520947,1.4852141,-6.6122375,0.7123875,9.049425
470,1715699686.4451032,4.103563,-3.977783,1.7634099,-5.648225,0.014575,7.6858373
471,1715699686.4607325,2.8771713,-3.6108103,1.6053058,-3.338775,-1.3201375,6.39375
472,1715699686.4870975,2.348517,-3.3344498,0.5301682,-2.594075,-0.931425,6.22325
473,1715699686.502649,2.348517,-3.3010247,0.19561163,-2.7421625,-0.8589625,6.2392
474,1715699686.518379,2.1882722,-2.942309,-0.5293578,-4.4614625,-0.86955,6.3116627
475,1715699686.5370135,2.137202,-3.053104,0.24169725,-6.3822,-0.238975,6.7090373
476,1715699686.5550299,2.2570794,-3.17289,0.38521406,-6.6400123,-0.4158,6.9103374
477,1715699686.582974,6.0105963,-3.7025535,0.8018348,-9.844313,0.0603625,6.6994123
478,1715699686.598467,6.481957,-3.7852142,1.5489297,-10.359938,0.20955,6.097575
479,1715699686.6142352,7.216514,-4.5552444,2.1761467,-10.4654,0.3042875,4.6605625
480,1715699686.729815,0.7729817,-2.1056118,-1.4133487,11.722975,-0.29645,-5.5776873
481,1715699686.746869,0.8939908,-1.5804281,-1.837003,7.4481,2.4050124,-3.6367376
482,1715699686.7625444,1.3594342,-0.24036697,0.30448014,1.4378375,2.7779124,-2.1646626
483,1715699686.7832525,2.0847094,-0.6944954,1.5405657,1.4997125,2.2207625,-3.549425
484,1715699686.7988586,1.705,-1.8091743,2.309893,3.3554125,1.62745,-5.04295
485,1715699686.8148503,1.3825688,-2.4099846,2.5649388,5.3015876,0.42473748,-5.557475
486,1715699686.8304508,1.2915443,-2.9883792,1.9965291,7.4844,-0.7055125,-5.14305
487,1715699686.846256,2.6707492,-2.7748165,1.3424007,7.726125,-0.2187625,-4.7575
488,1715699686.8541856,2.6707492,-2.7748165,1.3424007,7.694225,0.351175,-4.7447124
489,1715699686.8824303,4.656376,-2.709679,1.1015291,7.9413123,1.5422,-7.714575
490,1715699686.8983216,4.613868,-3.20948,0.54943424,9.0673,-0.3592875,-9.675737
491,1715699686.9139056,4.613868,-3.20948,0.54943424,9.0695,-1.4810125,-10.84325
492,1715699686.9307845,4.2092814,-3.588792,-0.35270643,8.969262,-1.639825,-11.0276375
493,1715699686.946531,3.1820643,-3.4942968,-1.4966362,6.6694374,-2.28635,-11.715825
494,1715699686.9655588,2.3393426,-3.0196788,-1.4483181,2.7951,-0.87065,-10.835825
495,1715699686.9839637,1.6925535,-2.5722783,-0.8691131,1.5785,-1.1444125,-9.778037
496,1715699686.9996052,1.6218195,-2.425581,-0.8129511,1.3814625,-1.595,-9.454225
497,1715699687.1110656,1.3046942,-0.5658563,-0.9559633,-0.5094375,-3.87145,-3.92975
498,1715699687.126569,0.9293578,-0.50347096,-0.8901071,-0.66275,-4.07715,-4.0682125
499,1715699687.1460907,0.17380734,-0.21640673,-1.3064221,-0.875875,-3.3804374,-4.0533624
500,1715699687.161817,0.17380734,-0.21640673,-1.3064221,-1.0377125,-2.7721374,-3.9692125
501,1715699687.1842122,-0.26961774,-1.5951071,-1.443838,-8.367838,0.2542375,-2.2636626
502,1715699687.19984,-0.70958716,-3.2775686,0.5409786,-10.184075,1.176725,-4.3516
503,1715699687.2281194,-4.0432262,-3.9472935,6.58604,-6.7827373,1.532575,-6.25625
504,1715699687.2436986,-4.414878,-3.8765597,3.816208,3.6174874,0.64735,-4.1278872
505,1715699687.259228,-2.5085628,-3.8879664,-0.1008104,6.7013373,-1.215775,-2.671625
506,1715699687.2842565,-2.0324159,-3.5907187,-2.3297706,1.4090999,1.69235,-3.3523874
507,1715699687.300016,-2.9302754,-2.9376147,1.1573853,1.0756625,1.8660125,0.177925
508,1715699687.3155034,-1.075948,-2.6685016,-0.6469878,2.4531374,1.1704,1.441275
509,1715699687.331132,-1.075948,-2.6685016,-0.6469878,2.9601,0.3906375,2.489575
510,1715699687.3467574,-0.30255353,-2.3733945,-1.17737,2.3678875,0.1530375,3.2799249
511,1715699687.3650334,-0.08654434,-2.0537157,-1.2474006,1.4048375,0.6004625,4.0874624
512,1715699687.3788671,0.07879205,-2.027324,-1.3525994,0.3023625,1.2045,4.628525
513,1715699687.3869052,0.2459786,-2.0153975,-1.248425,-0.436975,1.5433,4.9780498
514,1715699687.4808211,1.7545414,-1.9587156,0.18073395,-2.073225,2.2495,8.7383995
515,1715699687.496879,1.904587,-1.8286393,0.17411315,-1.9762875,1.9916875,8.647787
516,1715699687.5125566,1.8968349,-1.8923547,-0.057186548,-2.1190126,2.054525,8.481688
517,1715699687.5281568,1.887049,-1.9331346,-0.08735474,-2.1883125,2.088625,8.472062
518,1715699687.5480943,1.933945,-2.3055046,-0.014480123,-3.6433375,2.0769374,8.556212
519,1715699687.5845878,2.587263,-2.1169267,0.7420031,-3.06075,-1.048575,7.1649876
520,1715699687.6035247,2.6599388,-1.8837922,0.61834866,-1.701425,-2.31935,6.4469624
521,1715699687.6191373,2.3253822,-1.783792,0.23955658,-1.3435125,-2.142525,6.249925
522,1715699687.6346762,2.179006,-1.7780887,0.11723241,-1.27105,-1.4607999,6.264775
523,1715699687.6503282,1.6512692,-1.9441437,-0.30876148,-2.01355,-0.1463,6.9199624
524,1715699687.6666362,1.9485167,-2.16422,-0.12007645,-3.7723124,0.825275,7.9618
525,1715699687.6953754,2.7376146,-1.9416974,0.959526,-4.3209376,-1.8858125,7.0637875
526,1715699687.711884,2.9940827,-1.7173241,1.9706422,-1.5896375,-4.98575,5.3625
527,1715699687.7275295,2.9963303,-1.6222172,1.7875688,1.0960125,-5.8146,5.1847124
528,1715699687.7432506,3.0733945,-1.5609633,0.28073394,1.7106375,-4.085675,5.945225
529,1715699687.7587988,3.3687003,-1.5933793,-0.7747248,0.9692375,-2.11695,6.985
530,1715699687.7848,4.2949085,-1.8845108,-1.5358869,-0.3804625,-0.7673875,8.0363245
531,1715699687.9098482,4.646896,0.8436239,0.58827215,2.40625,-3.645675,-2.4767876
532,1715699687.921124,2.5484252,0.51203364,1.2167125,-0.682,-1.8304,-3.8285499
533,1715699687.9325871,1.6813456,0.072477065,2.0270185,-1.6971625,-0.863225,-3.7444
534,1715699687.9534602,1.329159,-0.29429665,5.066055,-0.49665,-0.2336125,-3.3044
535,1715699687.9690568,1.593685,-0.47217128,5.798471,5.1770124,-1.17315,-4.4826374
536,1715699687.993979,2.454939,-1.1525993,5.1392508,6.426475,-1.199825,-4.982175
537,1715699688.018634,3.4399543,-1.6817584,1.3653364,5.653175,1.549625,-7.430225
538,1715699688.0425036,4.110703,-1.3944954,1.3861315,4.201175,4.3863873,-7.26935
539,1715699688.0585191,4.715398,-1.4154893,0.9905198,4.504775,4.8508625,-7.5612626
540,1715699688.0850127,6.348211,-1.7925535,-0.50744647,5.314375,5.191725,-10.021962
541,1715699688.1004748,6.3379207,-2.0429206,-0.9828746,5.586075,4.770975,-11.18315
542,1715699688.1195102,4.862584,-2.7248776,-2.601422,4.3236876,3.659975,-12.7193
543,1715699688.1351209,4.6864376,-2.7450612,-2.6680887,3.6312375,3.6130874,-12.53065
544,1715699688.153587,4.7508717,-2.761162,-2.4638073,3.0069876,3.489475,-12.435912
545,1715699688.246091,2.167997,-1.1631039,0.22996941,0.48235,-1.3916374,-7.3588624
546,1715699688.2616105,3.075841,-0.97278285,0.011314985,1.117325,-1.485275,-7.1201625
547,1715699688.2850296,2.4986699,-1.1672783,0.29399082,1.1385,-1.6589375,-8.188675
548,1715699688.300657,0.6323089,-0.9097859,0.8889909,2.196425,-1.975325,-7.3514376
549,1715699688.3227403,0.032721713,-0.76555043,0.6199847,4.118125,-3.443275,-5.9910126
550,1715699688.34596,-0.7006116,-0.888578,-0.33639145,4.404675,-4.661937,-5.6299376
551,1715699688.3651435,-1.3411775,-1.2831804,-1.4692202,1.3132625,-4.0132127,-4.830925
552,1715699688.393351,-3.0344496,-3.0347555,0.8323089,-5.5257125,0.672925,-4.3089747
553,1715699688.408968,-3.7305808,-3.332309,3.5855198,-4.6831126,2.1344125,-2.9678
554,1715699688.4245872,-3.8128443,-3.270535,4.45974,-4.6831126,2.1344125,-2.9678
555,1715699688.4374826,-2.589801,-2.8105044,3.7409785,2.4244,1.3281125,-1.5307875
556,1715699688.4488108,-0.12610091,-2.1888838,-0.08665138,4.4526625,1.0223125,-1.1473
557,1715699688.4690976,0.5303823,-2.032217,-1.5227369,4.456925,1.2056,-1.9430125
558,1715699688.4848585,-0.11732416,-1.8779817,-1.5012232,2.5287626,0.47795,-2.674925
559,1715699688.500532,-0.93711007,-2.3790061,-1.3042814,1.6605875,0.5845125,-1.4988875
560,1715699688.5159993,-1.071055,-2.5420032,-1.4033638,1.2780625,0.76669997,-0.86185
561,1715699688.531769,-1.2746178,-2.6357799,-1.3833792,0.539825,0.992475,-0.006325
562,1715699688.6165283,0.6182416,-2.4481192,0.22629969,0.1766875,0.708125,6.25845
563,1715699688.6463683,2.5550458,-1.6375077,-2.1487308,-2.2031624,2.5872,6.3553877
564,1715699688.6618805,2.708058,-1.6145719,-1.8004128,-3.5517626,2.812975,6.0410624
565,1715699688.6850789,1.5826758,-1.6346636,0.8157034,-2.4545126,0.3267,5.6799874
566,1715699688.7008698,1.3003058,-1.7474005,0.59051985,-1.1709499,-0.307175,6.0495872
567,1715699688.7163296,1.2080581,-1.8750305,-0.015902141,-0.4571875,-0.7577625,6.52905
568,1715699688.7370632,1.4494342,-2.4795108,-0.74974006,-2.679325,1.3866875,9.05795
569,1715699688.7528243,1.6764526,-2.7506576,-0.19602446,-5.0549126,2.8928626,10.6249
570,1715699688.769786,2.3558562,-3.0076451,0.27370033,-5.5746627,2.0502625,11.195937
571,1715699688.7855082,4.187049,-2.766055,1.3324159,-5.3755627,-0.0792,10.921075
572,1715699688.8025234,4.4313912,-2.5991895,1.67289,-3.625325,-3.8619626,9.001437
573,1715699688.8180892,4.187049,-2.4283333,1.8264068,-2.121075,-4.68325,7.7605
574,1715699688.8439038,2.5735934,-2.5188532,0.66931194,-1.6363875,-2.11805,8.313388
575,1715699688.8595672,2.6572936,-2.6323087,0.2148777,-3.9864,0.2212375,10.363925
576,1715699688.878797,3.9815445,-2.8922477,1.1398624,-5.1359,0.8102875,10.605787
577,1715699688.8960645,4.224358,-2.8602448,1.6116208,-5.52145,-0.77907497,9.618262
578,1715699688.912418,4.337416,-2.859526,2.6092813,-5.52145,-0.77907497,9.618262
579,1715699689.0095084,6.389404,-3.1455657,3.6362844,-12.445675,1.5613124,4.3665876
580,1715699689.0259988,5.73659,-2.7751224,4.6627984,-11.381425,0.724075,3.8083375
581,1715699689.0545166,3.7870488,0.53394496,2.1624923,-0.9483375,-4.4957,2.8026624
582,1715699689.0702713,3.9642203,0.6806269,1.133532,0.5335,-3.5498376,1.7683874
583,1715699689.1065798,2.8232415,0.48022935,1.5925535,-1.8239375,-0.1431375,-1.22925
584,1715699689.1227071,1.8735933,0.059220184,2.6515749,-1.03565,0.2116125,-1.9674875
585,1715699689.1578803,0.40152904,-0.65545875,2.425275,5.4305625,-1.5599375,-1.6511
586,1715699689.1865878,0.07319572,-0.72304285,1.1125382,6.6077,-2.7306125,-1.392325
587,1715699689.2040112,0.0034709482,-0.72212535,0.72833335,6.9144626,-3.3133376,-1.258125
588,1715699689.2234828,-0.05259939,-0.7357798,0.33077982,6.9751,-4.1570373,-1.1664125
589,1715699689.2389505,-0.095305815,-0.71426606,0.21509175,6.8462625,-4.47865,-1.1408376
590,1715699689.257871,0.18960245,-0.77237004,0.0725841,6.1645374,-5.162575,-1.1174625
591,1715699689.2866745,0.5083639,-0.80948013,-0.10570336,5.434825,-5.1924124,-1.2559249
592,1715699689.389001,1.0833793,-1.1907187,0.10233945,0.2267375,0.873125,-1.7928625
593,1715699689.4146411,1.1775688,-1.036896,0.037201837,-0.267575,1.0362,-2.596
594,1715699689.43354,0.8766514,-1.0151834,0.02090214,-0.5072375,1.69345,-2.6301
595,1715699689.4492886,0.57920486,-0.9519878,0.0,-0.637175,2.3783374,-2.236025
596,1715699689.464919,0.44637614,-0.87411314,-0.0012232416,-0.6351125,2.528625,-1.9537375
597,1715699689.4866176,0.36004588,-0.70325685,0.001529052,-0.5126,2.3453374,-1.408275
598,1715699689.5035233,0.5377217,-0.54148316,-0.0432263,-0.26015,1.55595,-0.9224875
599,1715699689.5164456,0.56035167,-0.47603974,-0.11151376,-0.1973125,1.28865,-0.852225
600,1715699689.5455966,0.6103976,-0.36279815,-0.1579052,-0.5861625,1.2343374,-0.5369375
601,1715699689.5630195,0.641896,-0.33016822,-0.012737003,-0.82362497,1.7116,-0.259875
602,1715699689.5869644,0.7143731,-0.26299694,0.13577981,-0.76505,1.970375,-0.069299996
603,1715699689.6033719,0.99796635,-0.19082569,0.11671253,-0.4731375,1.9991125,-0.075625
604,1715699689.618645,1.0062233,-0.1737003,0.12701835,-0.18975,1.463275,-0.293975
605,1715699689.6380932,0.8845107,-0.07441896,0.31784403,-0.0620125,1.2641749,-0.32065
606,1715699689.6617265,0.8764526,-0.061666664,0.2742049,0.388575,0.8688625,-0.2396625
607,1715699689.6872284,0.8764526,-0.061666664,0.2742049,0.5473875,0.8944375,-0.18535
608,1715699689.7497044,0.8817584,-0.04678899,0.18654434,0.5473875,0.8944375,-0.18535
609,1715699689.7718422,0.8386392,-0.20275229,0.45157492,0.94888747,2.342175,0.8107
610,1715699689.795708,1.1114221,-0.17247707,0.19857799,1.216325,1.2832875,0.59015
611,1715699689.811406,1.0884862,-0.18298166,0.114373095,1.1759,0.7420875,0.397375
612,1715699689.8370593,0.8188532,-0.26279816,0.12527522,0.711425,0.396,0.2908125
613,1715699689.8527157,0.7602446,-0.32334864,0.32885322,0.28105,1.0542125,0.7063375
614,1715699689.8681717,0.81854737,-0.32110092,0.49021405,0.4035625,1.4100626,1.1132
615,1715699689.8880856,1.006529,-0.2971407,0.47970948,0.5473875,1.3034999,1.16545
616,1715699689.9037268,1.1894953,-0.2169266,0.4420948,0.82005,0.6303,0.7393375
617,1715699689.9237843,1.0184557,-0.2008104,0.29541287,0.928675,-0.0462,0.2385625
618,1715699689.9365149,0.88766056,-0.20325689,0.2343578,0.8402625,-0.2134,0.1651375
619,1715699689.9490867,0.74240065,-0.22029051,0.13527523,0.34814999,0.199925,0.35475
620,1715699689.965864,0.7268043,-0.21100919,0.14659022,0.1819125,0.3713875,0.4346375
621,1715699689.9809263,0.77492356,-0.19174312,0.41203365,-0.336875,0.994675,0.6945125
622,1715699689.9920154,0.8740061,-0.1614679,0.54169726,-0.3133625,1.076625,0.716925
623,1715699690.0002577,0.99215597,-0.12802753,0.5782875,-0.22605,0.95094997,0.633875
624,1715699690.0185513,1.038731,-0.08073395,0.5670795,0.1563375,0.0177375,0.0628375
625,1715699690.0369081,0.948211,-0.08073395,0.4753364,0.264,-0.38279998,-0.125675
626,1715699690.053473,0.85301226,-0.12029052,0.40478593,0.1915375,-0.660825,-0.2385625
