id,timestamp,acc_x,acc_y,acc_z,gyro_x,gyro_y,gyro_z
0,1715699779.7010305,0.70753825,-0.630581,0.29785934,0.014712499,-0.2017125,0.1469875
1,1715699779.714129,0.70753825,-0.630581,0.29785934,0.0413875,-0.20693749,0.1683
2,1715699779.7315261,0.7107034,-0.62986237,0.3105046,0.084975,-0.2443375,0.1799875
3,1715699779.8763683,0.6977523,-0.6855199,0.25779817,-0.4486625,0.320375,-0.076725
4,1715699779.8920872,0.6375076,-0.70744646,0.29368502,-0.4657125,0.5493125,-0.0639375
5,1715699779.9168258,0.59938836,-0.7118196,0.28053516,-0.4433,0.6920375,-0.043725
6,1715699779.933912,0.57818043,-0.69010705,0.25463304,-0.4092,0.5984,-0.0543125
7,1715699779.9495003,0.57155967,-0.6834862,0.24025993,-0.3389375,0.2138125,-0.08525
8,1715699779.9651556,0.5669725,-0.6864373,0.23394495,-0.317625,0.099825,-0.090475
9,1715699779.980674,0.57695717,-0.70203364,0.20214067,-0.3144625,-0.0121,-0.0702625
10,1715699780.00213,0.55259943,-0.7218196,0.17044343,-0.3986125,0.0188375,0.0031625
11,1715699780.0246592,0.56788987,-0.73669726,0.1462844,-0.6265875,0.454575,0.192775
12,1715699780.0402737,0.56035167,-0.73506117,0.1714526,-0.6936875,0.5908375,0.2343
13,1715699780.0560246,0.5108104,-0.69888383,0.23639143,-0.6862625,0.6356625,0.330275
14,1715699780.071648,0.5359786,-0.71651375,0.26422018,-0.4923875,0.4609,0.44
15,1715699780.0873122,0.565948,-0.73230886,0.26319572,-0.350625,0.27445,0.4750625
16,1715699780.1024418,0.6513761,-0.74750763,0.1728899,-0.0768625,-0.2165625,0.515625
17,1715699780.198418,0.6728899,-0.71457183,0.060657494,-0.05555,-0.4445375,0.496375
18,1715699780.2166135,1.3391438,-0.37992355,-0.23649846,-2.0615375,-0.5522,-0.1736625
19,1715699780.2330103,1.6790979,-0.15493883,-0.22772172,-2.58555,-0.373175,-0.2481875
20,1715699780.2580974,2.3395567,0.5171254,-0.049541287,-3.7637875,0.537625,-1.2804
21,1715699780.2750244,2.2401683,0.7247706,0.23149848,-5.036762,2.138675,-2.7974374
22,1715699780.3093836,2.9457645,0.34750766,0.7960245,-6.1232877,2.7523375,-5.1910377
23,1715699780.325033,2.485734,-0.48093274,1.7697247,-6.287325,2.325125,-5.7886124
24,1715699780.3407078,2.1472018,-0.6251835,2.1998012,-5.732375,2.5669875,-5.7908125
25,1715699780.3564322,2.5919418,-0.7781804,2.6356728,-4.5264997,2.9354875,-5.27725
26,1715699780.391669,4.052294,-1.5157951,2.153211,-0.6479,4.4193873,-5.3860126
27,1715699780.4185128,3.9581041,-1.7954129,1.866468,1.7734749,5.701025,-4.4303875
28,1715699780.442991,4.956376,-2.001942,0.6998012,4.0371375,4.7986126,-3.6326125
29,1715699780.4594333,4.767691,-1.7939909,0.13925077,4.170375,4.535575,-3.6315124
30,1715699780.488827,4.6402597,-1.45474,0.25148317,3.8037999,5.0853,-4.3228626
31,1715699780.59109,4.4413915,-2.3216057,0.030382263,7.16155,4.485525,-8.811825
32,1715699780.6188874,3.8053057,-2.4731958,-0.25851682,7.069975,4.5227876,-9.676838
33,1715699780.6387484,3.9986696,-2.119373,-1.4851223,6.9059377,4.198975,-9.895187
34,1715699780.6543312,3.4966362,-1.9086697,-1.8929664,5.9503126,2.9238,-10.635625
35,1715699780.6699934,2.6007187,-1.5142661,-2.411315,4.8862,1.6284125,-10.47365
36,1715699780.6856773,2.1536238,-1.2922477,-2.6187615,4.202275,0.4844125,-10.185038
37,1715699780.701373,1.0634098,-1.0750306,-2.4288533,2.40735,-1.2956625,-8.774563
38,1715699780.719108,0.46961775,-1.0845107,-2.051789,1.69785,-1.7356625,-6.6248875
39,1715699780.7348037,1.1129512,-0.8980582,-1.8973547,1.4645125,-1.2040875,-5.0620623
40,1715699780.760687,2.1732874,-1.2628899,-2.4735932,0.9596125,-1.8357625,-6.2957125
41,1715699780.7875566,0.77981657,-1.3859327,-2.0825686,0.1852125,-4.0419497,-5.6959376
42,1715699780.803699,-0.050657492,-1.3622783,-1.1827675,-0.3634125,-3.3963876,-2.6109874
43,1715699780.811868,0.6674771,-1.4235475,-0.77492356,-0.3634125,-3.3963876,-2.6109874
44,1715699780.8295166,0.45443425,-1.9411775,-3.170535,-0.2792625,-3.9737499,-1.9452125
45,1715699780.845025,0.35585627,-2.071055,-4.2234406,-2.496175,-4.0888376,-1.239975
46,1715699780.8607337,0.561055,-2.7599387,-2.9833791,-8.032337,-2.666675,-0.0895125
47,1715699780.975814,-3.9548469,-4.8383336,3.326407,1.4133625,-0.9942625,-4.646675
48,1715699781.020173,-2.3123395,-3.6937766,0.969526,-1.27105,-0.847275,4.5742126
49,1715699781.0483878,-1.5218196,-3.1555505,2.251789,-0.384725,-0.845075,4.77565
50,1715699781.0650122,-0.90264523,-2.8880734,1.7262998,0.5281375,1.888425,4.9044876
51,1715699781.0806649,-0.060137615,-2.5010245,0.87258404,0.5687,3.9815874,4.4218626
52,1715699781.0961623,0.6016361,-2.256269,0.6356728,0.980925,2.90895,4.1694126
53,1715699781.1205165,1.0855199,-2.019266,0.8655505,3.560975,0.9563125,4.0022125
54,1715699781.1359885,1.4321101,-1.8484251,0.78429663,4.2246876,1.2087625,4.360125
55,1715699781.1659646,4.2285476,-1.2516819,-1.1952142,5.010775,3.1326625,4.611475
56,1715699781.1947918,3.447095,-0.6032569,-1.8266054,3.6696,3.521375,3.7976124
57,1715699781.2207978,2.4874618,-0.6598318,-2.0100918,1.874675,3.7035625,4.6765122
58,1715699781.2509604,1.329159,-1.25974,-1.3301681,-1.313675,3.5534124,7.800925
59,1715699781.3507664,3.3464832,-3.5289447,-0.2534098,-4.030125,-1.5375249,13.119838
60,1715699781.3662279,4.0676913,-4.000505,0.20928134,-3.978975,-1.51195,14.143525
61,1715699781.3820357,6.2503514,-3.9278288,-0.25799695,-3.9363499,-1.2265,13.704625
62,1715699781.402265,7.4059176,-2.6169264,-1.0341438,-5.4522877,-0.90585,10.214875
63,1715699781.4252386,4.8762536,-1.4827676,1.4356729,-4.7854123,-3.1332126,6.637675
64,1715699781.4473891,3.8917432,-1.505,0.20856269,-2.0156126,-5.3714375,6.973175
65,1715699781.467218,5.216514,-1.4979663,-0.2933792,-5.2465873,-1.909325,7.7551374
66,1715699781.4831607,5.221101,-1.2133486,0.091330275,-6.02745,-1.1295625,7.211875
67,1715699781.5058799,5.736086,-0.11070337,1.4220184,-5.6854873,-2.5111625,4.530625
68,1715699781.5345001,3.4956114,0.1683945,3.4640214,-2.4407625,-3.4964874,3.249125
69,1715699781.561952,6.6925535,4.0686088,-5.403257,0.5132875,-4.8302374,8.647787
70,1715699781.5777304,7.9916363,-3.556575,-4.8802295,-13.8252125,4.8008122,11.095838
71,1715699781.596054,6.112951,-2.1959174,7.9622784,-11.512463,8.409912,-3.498275
72,1715699781.6220357,6.088272,-4.8654437,3.1811469,15.1756,-0.9559,-6.5885873
73,1715699781.7154949,2.611422,-0.8817584,3.4771714,1.83425,2.6543,-3.9095376
74,1715699781.7317445,3.2979662,-0.8912386,2.3172326,5.2952623,2.0917876,-4.73825
75,1715699781.7479088,3.358517,-0.91172785,-0.38103977,6.1048627,2.3518,-6.518325
76,1715699781.7636175,3.2957187,-0.8753364,-0.79541284,5.433725,2.273975,-6.8443375
77,1715699781.7817955,3.3284402,-1.2495413,-0.81325686,3.576925,2.1036124,-7.681575
78,1715699781.7974102,3.3984709,-1.5462844,-0.70019877,3.172125,1.9927875,-8.035225
79,1715699781.8223538,2.972584,-1.937003,-0.42446482,3.0230749,1.482525,-8.5519495
80,1715699781.8449836,3.1253824,-2.0971406,-0.7017278,2.6714876,1.92995,-8.9578495
81,1715699781.8542738,3.1624923,-2.155459,-0.75932723,2.6714876,1.92995,-8.9578495
82,1715699781.8704019,3.0892966,-2.1327217,-0.746896,2.5606625,2.0246875,-9.042
83,1715699781.8799124,3.0126455,-2.0929663,-0.6592202,2.2858,1.6454625,-9.201775
84,1715699781.8960087,2.9350612,-2.0831804,-0.435474,2.3167374,1.0564125,-9.386024
85,1715699781.9226775,2.3001988,-1.8640214,-0.41937312,2.57455,0.3949,-9.2752
86,1715699781.9385574,2.246789,-1.8386391,-0.43200308,2.6214375,-0.12925,-8.880025
87,1715699781.9618745,2.2506576,-1.4513762,-0.7287462,1.9397125,-0.4434375,-7.5505376
88,1715699781.9911568,1.6637156,-1.1838992,-0.6521865,1.5838625,-1.233925,-7.397225
89,1715699782.0071018,1.39552,-1.0794036,-0.7719725,1.2546875,-1.789975,-6.4821625
90,1715699782.1075044,-0.911208,-1.3117279,-3.4517891,-1.716275,-3.3889625,-4.240775
91,1715699782.123169,-1.6721714,-1.8102906,-3.7492356,-4.686275,-2.7104,-3.1307375
92,1715699782.1389246,-2.33211,-2.4770641,-2.7698317,-7.5486126,-1.503425,-1.728925
93,1715699782.1545436,-2.482156,-3.4608562,-0.10428134,-10.551613,-0.8877,0.19607499
94,1715699782.1833878,-2.4455657,-3.9693122,5.9163146,-7.8458877,-0.7481375,-1.408275
95,1715699782.1990204,-3.065948,-4.0568805,5.157492,-1.4766124,-0.013062499,-1.9909999
96,1715699782.2235343,-3.1450613,-3.8541284,3.8601375,1.6680125,1.3685375,-1.3656499
97,1715699782.240873,-2.7802293,-3.7159023,3.1594343,3.28075,1.35685,-1.037575
98,1715699782.2570488,-2.5993884,-3.7615747,-0.083486244,4.8148375,0.8646,-1.2474
99,1715699782.2915752,-3.5718653,-3.9319115,0.2038685,4.09035,1.094775,-0.1395625
100,1715699782.307972,-3.3715596,-4.1235476,0.7363914,5.1407123,1.769075,2.707925
101,1715699782.3237646,-2.5395567,-4.0783944,0.4205963,5.87895,1.922525,3.8328125
102,1715699782.339867,0.435367,-3.470642,-1.5376147,6.292275,3.2498124,5.5350623
103,1715699782.3556159,1.5605505,-2.6247706,-2.8640215,5.164225,1.7093999,5.457375
104,1715699782.3712096,1.1653364,-2.1278286,-3.0514832,3.7324374,1.2694,5.338025
105,1715699782.380362,0.5764526,-1.8718655,-2.748318,2.1069124,1.4942125,5.7919126
106,1715699782.392687,0.30316514,-1.7686085,-2.1028593,0.7486875,1.516625,6.586525
107,1715699782.498651,2.2502599,-1.6446483,-1.7357798,7.813575,1.8063375,1.525425
108,1715699782.5244713,1.520688,-1.2634097,-2.6665597,4.5601873,4.0519876,3.1062624
109,1715699782.5410712,0.985734,-1.3474005,-2.634358,-0.69685,5.2556624,5.7897124
110,1715699782.5708628,1.2029511,-2.003165,-1.1976606,-4.9867125,4.9680123,9.066475
111,1715699782.5865886,1.2691132,-2.762691,-0.22629969,-6.6496377,4.0178876,10.8977
112,1715699782.6088097,2.1305811,-3.2670796,0.15535168,-7.335625,4.8327127,11.847825
113,1715699782.6253698,2.8008106,-3.3825688,0.31151375,-8.532975,6.4700623,11.1672
114,1715699782.641456,2.9633029,-3.4152906,0.6068348,-8.855687,6.0919375,10.165788
115,1715699782.6570656,3.241789,-3.2844036,1.1176299,-7.5422873,1.4697375,7.8370876
116,1715699782.6834564,3.1190672,-2.9039755,1.2065291,-5.578925,-1.772925,6.1796627
117,1715699782.6989813,2.26922,-2.4089756,0.7144801,-4.51055,-3.1428375,5.960212
118,1715699782.7197149,2.3336391,-2.1332262,0.790107,-4.64585,-2.9990125,6.5993123
119,1715699782.7360187,3.240367,-2.2357798,0.5084557,-5.1326,-0.93665,7.8276
120,1715699782.7516928,5.5666666,-2.4827676,0.16922018,-6.6133375,0.202125,6.9700127
121,1715699782.7673569,5.928853,-2.6899083,0.5731957,-7.2364874,-0.2932875,5.6651373
122,1715699782.8618457,5.7768655,-0.094082564,1.7497401,-4.8269377,-0.491425,1.9441125
123,1715699782.8824904,7.9916363,-0.974419,5.574419,-6.745475,3.9304376,1.6586624
124,1715699782.9088118,4.238532,-2.195214,5.284404,7.9520373,-1.58015,-3.871175
125,1715699782.9214509,3.6361926,-2.51448,2.514373,9.750125,-1.5918375,-4.5060124
126,1715699782.9456267,2.8664677,-1.8652445,-0.75004584,7.60155,-0.0567875,-4.3206625
127,1715699782.9611776,2.6824617,-1.396636,-0.893578,6.0355625,0.24365,-4.3121376
128,1715699782.976831,1.6188532,-0.55076456,0.27737004,1.4442999,2.4189,-3.971275
129,1715699782.9985554,1.3779817,-0.60591745,0.53750765,0.6793875,2.94085,-3.6826625
130,1715699783.016075,1.3510704,-0.74189603,0.95412844,0.0584375,3.41275,-3.11905
131,1715699783.0439792,2.446682,-1.272477,1.2943884,1.1077,2.950475,-3.3268125
132,1715699783.0643935,2.8256881,-1.6707493,1.212844,2.4946625,3.049475,-3.8765376
133,1715699783.080052,3.1378136,-2.0761468,0.99857795,2.8802125,3.1378875,-4.0085373
134,1715699783.0978107,3.3352752,-2.3006115,0.90408254,4.8126373,3.8121874,-4.587
135,1715699783.1255307,3.7321103,-2.9750307,-0.07451071,7.381,2.9259999,-5.9164877
136,1715699783.1529593,3.8458714,-3.2583027,-1.0187614,7.7528,1.4836249,-7.57515
137,1715699783.2454405,2.5457644,-3.275948,-1.1941895,4.7114377,-3.8768125,-11.18315
138,1715699783.264162,1.9966362,-2.8416972,-0.8442354,3.6152875,-4.74925,-10.569488
139,1715699783.2862206,1.7088684,-2.4190671,-1.1175382,2.498925,-4.88565,-9.4457
140,1715699783.3030488,1.7781804,-2.001942,-1.3321102,0.6793875,-4.4968,-8.271725
141,1715699783.3259866,1.367477,-1.5669725,-0.617737,0.24805,-5.3862877,-7.919175
142,1715699783.341634,0.4288532,-1.1960245,-0.82640666,0.6463875,-6.30245,-7.5101123
143,1715699783.3593218,-0.924159,-1.2394495,-3.6906269,-1.5235,-4.977225,-5.708725
144,1715699783.3764677,-1.1638073,-1.9211009,-5.330994,-5.614125,-4.2975626,-4.16405
145,1715699783.395905,-0.9995871,-4.5687003,-2.3134558,-13.846525,-0.6287875,-2.5832124
146,1715699783.416023,-2.8658564,-5.401636,3.8205965,-12.941088,-1.023,-2.3265
147,1715699783.4324698,-2.7091744,-5.463196,5.4377217,-11.472037,-0.776875,-2.6354625
148,1715699783.446464,-3.2427063,-5.199801,7.5824623,-7.8522124,0.1978625,-3.4291124
149,1715699783.4544954,-3.7120335,-5.0175385,7.322523,-7.8522124,0.1978625,-3.4291124
150,1715699783.462641,-3.9658563,-4.733945,6.1750307,0.3683625,0.4258375,-3.348125
151,1715699783.4785326,-3.872064,-4.401529,4.696529,3.0965,0.935,-2.4404874
152,1715699783.4938385,-1.6086698,-3.5107036,1.4842049,6.14955,1.566675,-0.8735375
153,1715699783.5105855,-0.49877676,-3.0848165,-0.62120795,6.0292373,1.6902875,-1.0140625
154,1715699783.6418269,-0.056987766,-3.1980581,0.24781345,2.8292,0.8636375,4.2024126
155,1715699783.6619167,1.1124312,-2.4512691,-0.23802753,1.4090999,1.514425,7.1075125
156,1715699783.6819124,2.0689144,-2.1376147,-0.37217125,1.93325,1.4878875,7.695462
157,1715699783.697521,3.4253821,-1.5828747,-0.9962232,1.5093375,2.0194626,6.8369126
158,1715699783.7268884,2.9272172,-1.372477,-0.25454128,0.793375,2.5403125,5.85365
159,1715699783.748596,2.7068348,-1.5228287,-0.53894496,0.92125,2.4487374,6.2766
160,1715699783.7761383,2.3842049,-1.7881805,-1.1612692,-0.8855,2.5306876,7.8489122
161,1715699783.7918518,2.564526,-1.9375076,-1.3491285,-2.7028375,2.9365876,9.199575
162,1715699783.8110764,2.856162,-2.4851224,-1.2686086,-5.5449624,3.6950374,10.192463
163,1715699783.8268635,2.8881805,-2.8966362,-0.6987768,-7.1630626,3.403125,10.57485
164,1715699783.8491232,3.1164067,-3.4797096,0.6614679,-8.0014,0.960575,10.736825
165,1715699783.8657532,3.400719,-3.4326146,0.94362384,-7.6786876,0.1722875,10.503488
166,1715699783.8820465,4.0149846,-2.9524922,1.407844,-5.2317376,-2.15215,8.88745
167,1715699783.8998487,3.72263,-2.5930734,0.4372018,-4.198425,-1.4928375,6.8261876
168,1715699784.0119476,7.2058105,-2.0754282,0.8121254,-6.813675,-1.3618,5.235725
169,1715699784.0277436,5.293578,-2.5200765,2.6159022,-7.71375,-1.9955375,3.8691125
170,1715699784.0433798,4.732003,-2.3101988,3.3876605,-7.2727876,-1.9551125,4.1023126
171,1715699784.0588388,4.721101,-1.7915443,4.0397553,-5.8953123,-1.7516125,4.6488748
172,1715699784.077913,6.7867427,-0.57247704,2.7669725,-3.56565,-0.608575,3.248025
173,1715699784.093544,6.1148777,-0.18715596,1.8157035,-4.1771126,-0.509575,3.316225
174,1715699784.109139,7.663196,-1.4857339,5.3398623,-5.86025,4.95,0.632775
175,1715699784.1280594,4.1989756,-2.411208,6.579404,-2.3043625,4.6794,-1.6308875
176,1715699784.1455357,3.4882722,-2.6296635,5.4633026,5.4465127,-0.1431375,-3.3928125
177,1715699784.175562,3.2842968,-2.469312,1.1940825,8.58055,0.2787125,-3.7060375
178,1715699784.1910188,2.6084557,-1.2087615,-0.6331346,7.2095375,0.7016625,-4.0288873
179,1715699784.2071314,2.1055045,-0.78746176,-0.36533642,3.2797875,2.055625,-4.1597877
180,1715699784.2282531,1.4838991,-0.71457183,0.29296637,0.6304375,4.129675,-3.4046376
181,1715699784.2448974,1.5182415,-1.0344495,1.2401682,0.0328625,4.3267126,-2.9507499
182,1715699784.262565,1.8030581,-1.2768655,1.9147859,1.6797,3.1625,-2.7676
183,1715699784.2781703,2.109893,-1.4090673,1.7324159,2.7493124,2.8567,-2.843225
184,1715699784.2937944,2.529159,-1.6322172,1.3536239,3.593975,2.9013875,-3.112725
185,1715699784.3766432,2.9842966,-2.3150918,0.3083639,5.54235,3.625875,-4.1619873
186,1715699784.3985481,3.1314986,-3.6927676,0.06891437,10.088925,-0.725725,-7.447275
187,1715699784.420647,3.4414833,-3.8730888,-0.6897095,9.1036,-2.5058,-10.20635
188,1715699784.4425225,2.6087615,-3.5863457,-0.72558105,7.306475,-2.4162874,-11.069162
189,1715699784.4580133,2.1706421,-3.188578,-0.5144802,6.3317375,-2.8414376,-10.867863
190,1715699784.4744866,2.1842968,-3.0140672,-0.64414376,6.04945,-3.1513624,-10.61115
191,1715699784.4901485,2.4447553,-2.7231345,-0.9096789,5.5455127,-3.7852376,-10.452337
192,1715699784.5064654,2.1816514,-2.29185,-1.3359786,3.629175,-4.269925,-10.054
193,1715699784.528885,1.5770643,-1.7717584,-1.6205963,1.063975,-4.134625,-8.574363
194,1715699784.54453,1.4065291,-1.7036698,-1.6911315,0.2959,-4.183575,-8.020375
195,1715699784.5748422,0.6053058,-1.2844037,-1.045367,-0.3581875,-4.8324375,-6.6462
196,1715699784.602584,-0.3051988,-1.4022478,-3.9932723,-3.1310124,-5.4150248,-3.59315
197,1715699784.6288807,1.025994,-3.0100918,-2.556575,-8.142062,-3.326125,-1.8332875
198,1715699784.653857,0.088073395,-4.544037,-0.093470946,-13.148712,-0.9931625,-4.2376122
199,1715699784.677586,-0.43995416,-5.363104,1.8703364,-13.105124,-1.10495,-5.3827124
200,1715699784.7728474,0.575948,-3.0809326,-2.1592202,5.5412498,0.9392625,-2.2275
201,1715699784.7940228,-0.86096334,-2.777783,-2.283899,2.161225,0.0848375,-1.50315
202,1715699784.8251953,-0.743318,-3.3312995,0.6381193,0.5878125,0.503525,1.3443375
203,1715699784.8422081,0.12232416,-3.0809326,0.13925077,2.447775,0.9700625,3.6645124
204,1715699784.857859,1.6705352,-2.2132568,-1.4175383,1.6190625,2.6437125,4.7169375
205,1715699784.8733773,1.8900152,-1.8953059,-1.4898013,0.5036625,3.406425,4.87575
206,1715699784.8903482,1.775734,-1.8576912,-1.0019418,-0.1887875,3.3648999,5.1484127
207,1715699784.9141455,2.9594343,-1.6680887,0.77787465,2.23795,0.5259375,5.7897124
208,1715699784.93168,3.567691,-1.5121254,0.24637616,3.5589125,0.7198125,5.4786873
209,1715699784.947347,3.5827675,-1.4256881,-0.48746175,4.8296876,2.0076375,5.151575
210,1715699784.9812758,2.64026,-1.4842966,-1.2510704,3.18175,4.39065,7.952175
211,1715699784.9980652,2.697049,-1.646789,-2.22263,2.3007874,3.911325,8.967338
212,1715699785.0135984,2.758104,-2.0892966,-2.7635014,-0.1302125,1.8469,11.033962
213,1715699785.0293293,3.3641133,-2.4192662,-2.698364,-2.233,0.9370625,12.373075
214,1715699785.0385737,3.753104,-2.6318042,-2.4046943,-3.5017126,0.5418875,12.956762
215,1715699785.0611064,4.0179358,-2.932003,-1.5432262,-4.9259377,0.3256,13.571525
216,1715699785.1516619,5.75026,-3.1238532,-0.5335321,-4.5882373,-5.1572123,9.097412
217,1715699785.167132,5.8527064,-2.5188532,-0.25821102,-7.200325,-3.795825,7.9629
218,1715699785.1967196,4.85841,-2.0341437,1.4322171,-7.693537,-3.0256875,7.260825
219,1715699785.214588,5.728242,-1.9424006,1.4607491,-7.0010877,-2.245925,6.7953873
220,1715699785.2306693,6.4467893,-1.970948,1.1237462,-7.3888373,-1.9273375,5.8249125
221,1715699785.246411,5.8454585,-2.1761467,2.5126452,-7.7873125,-2.6805625,4.2546625
222,1715699785.2619586,5.4558563,-1.9118197,3.3031652,-6.155325,-3.8214,4.343075
223,1715699785.2791739,7.9916363,-1.7661622,2.969312,-5.269,-4.61505,4.580675
224,1715699785.295029,7.9916363,-1.3378135,2.975428,-5.108125,-3.5294874,2.823975
225,1715699785.3106792,5.931804,-0.15056574,1.2842966,-6.77215,-3.3281875,3.575
226,1715699785.3303657,4.8738074,-2.2525995,7.9622784,-10.147912,6.7662373,0.9417375
227,1715699785.3457565,5.035367,-4.525275,4.7247705,15.35765,-0.895125,-3.1147876
228,1715699785.3773334,3.5693119,-4.3351684,-1.2796178,14.705763,0.5066875,-4.26855
229,1715699785.3952181,2.4325228,-1.995107,-2.443318,8.841525,0.17545,-4.1608872
230,1715699785.4115293,2.090107,-1.229052,-1.9493425,6.767475,0.0540375,-4.124725
231,1715699785.431866,1.07237,-0.11264526,0.10233945,2.885575,1.1693,-3.7827625
232,1715699785.530918,3.3494344,-1.2621865,0.31253824,3.5035,4.2084627,-3.8083375
233,1715699785.5474114,3.7653363,-1.1308869,-0.20845565,3.4810874,4.9361124,-5.2729874
234,1715699785.5622773,3.9683943,-1.2038685,-0.35851684,3.5908124,4.5835624,-5.742825
235,1715699785.5705104,3.8309937,-1.4538227,-0.24770641,3.9263124,4.2169876,-6.4108
236,1715699785.578549,3.7695262,-1.6407797,-0.1888838,4.2427,4.183025,-6.7846622
237,1715699785.6019106,4.2505655,-2.0639145,-0.38298166,5.1269627,4.0733,-7.6709876
238,1715699785.6173413,4.351575,-2.475841,-0.8983639,5.4241,3.8868499,-8.089675
239,1715699785.643313,3.980841,-2.6357799,-1.1988838,5.416675,3.575825,-9.746138
240,1715699785.659469,3.656269,-2.637416,-1.1898012,5.2696877,3.3658624,-9.893125
241,1715699785.675234,2.9848166,-2.533746,-1.2859328,4.9181,2.394425,-9.73335
242,1715699785.699235,1.7725842,-2.1481192,-1.0562692,3.965775,1.4760625,-8.308988
243,1715699785.7153687,1.314786,-2.0126452,-0.81784403,3.8369374,1.2150875,-7.6858373
244,1715699785.7316916,0.51203364,-1.7051988,-0.10519878,4.3311124,-0.014162499,-5.052575
245,1715699785.747153,1.540474,-1.6407797,-0.57380736,5.2558,-2.6464624,-3.8754375
246,1715699785.7786012,2.9406729,-1.503364,-2.2446482,3.7644749,-3.3154,-5.2304997
247,1715699785.794192,2.6277215,-1.5308869,-2.0323088,2.5713875,-3.038475,-5.9250126
248,1715699785.8098304,1.3635015,-1.3663608,-0.7465902,1.9779375,-3.527425,-6.435275
249,1715699785.8947718,-1.7400613,-2.1064222,-5.4337463,-8.651225,-0.2145,0.091575
250,1715699785.9131398,-4.6326146,-4.1264067,7.9622784,1.251525,0.335225,-5.7567124
251,1715699785.9319549,-5.827523,-4.5738072,6.176254,5.2441125,0.722975,-4.8245997
252,1715699785.9554586,-3.6831803,-3.6737003,1.0050917,7.407675,1.0830874,-0.9150625
253,1715699785.9712157,-1.5801224,-2.6745107,-1.9820644,6.1219125,1.04995,-0.7403
254,1715699785.9930115,-2.0368042,-2.4504588,-2.4640214,4.1735373,0.98285,-0.8383375
255,1715699786.008803,-2.4217126,-2.8,-1.3282416,0.704,0.80396247,-0.023375
256,1715699786.0322905,-1.5342507,-3.2488225,1.8959175,2.7993624,0.34375,3.127575
257,1715699786.064662,0.6513761,-2.551575,-1.6657493,2.4594624,2.8120124,4.2739124
258,1715699786.0804183,0.93374616,-2.2664678,-1.2118196,-0.434775,2.2133374,5.07815
259,1715699786.1273189,1.0699235,-2.3835933,-0.8463762,-1.1474375,1.9512625,5.3678627
260,1715699786.1437545,1.8299695,-2.6753364,0.8802294,0.4973375,1.4111625,6.3617125
261,1715699786.1593494,3.8409784,-1.9784862,0.3830734,2.1538,1.5763,5.1537747
262,1715699786.1901698,2.2924619,-1.5359786,-1.7462844,2.2559624,3.1944,4.1630874
263,1715699786.29187,2.5638075,-2.4299695,-0.091330275,-3.0085,0.421575,9.9858
264,1715699786.3147683,3.5901072,-3.275428,-1.4485168,-4.7086873,-0.6523,11.539963
265,1715699786.3361623,4.110703,-3.8851223,-1.4506575,-8.1494875,-0.020624999,11.88935
266,1715699786.352802,5.6946025,-3.7440364,1.0829816,-9.041038,-1.974225,10.532225
267,1715699786.3691335,5.7907186,-3.0081499,2.4028594,-7.287637,-3.57005,9.122988
268,1715699786.3915079,5.6758413,-1.4727829,0.6038685,-1.433025,-5.4641123,5.809925
269,1715699786.4069803,5.206728,-1.3593273,-0.35321102,-2.4044626,-3.8608625,5.3411875
270,1715699786.4338524,4.4769573,-2.0383334,2.1778746,-5.0474873,-2.5771625,6.4108
271,1715699786.4496057,5.006835,-1.6665597,3.4881804,-3.068175,-4.61395,6.3116627
272,1715699786.467882,6.140979,-0.30917433,1.3322171,1.7202625,-4.9379,4.5859
273,1715699786.4834855,5.909373,0.04678899,-1.173899,1.7202625,-4.9379,4.5859
274,1715699786.5032797,4.210505,1.6798165,0.31203365,-2.95735,-1.0784125,7.245975
275,1715699786.5339491,7.9916363,-1.9228288,1.7631958,-10.680588,5.8724875,2.8879125
276,1715699786.5492127,7.784909,-0.96717125,7.109985,-7.27705,5.8938,-2.37875
277,1715699786.5652938,3.622523,-2.1986697,5.3974466,5.27285,-0.2591875,-4.411275
278,1715699786.6591341,1.6410856,-0.6237462,2.0109022,1.0949125,2.50085,-4.3473372
279,1715699786.6753829,1.8884863,-0.83781344,1.5525994,3.1295,1.9267875,-4.7510376
280,1715699786.6977186,2.529159,-1.3192661,0.24270643,3.3617375,2.680975,-5.3614
281,1715699786.7145886,2.6101987,-1.3776758,0.09357798,2.8941,3.2742875,-5.58195
282,1715699786.7344284,3.1666665,-1.2626911,0.055550456,2.7204375,3.2338624,-5.8419623
283,1715699786.7500298,3.4040825,-1.2402599,0.10652905,2.70985,3.487275,-6.248825
284,1715699786.7656417,3.738425,-1.4200765,0.51162076,3.6056626,3.0900376,-7.3673873
285,1715699786.7812724,4.395,-1.9550458,0.6175382,5.0576625,2.393325,-9.229412
286,1715699786.7967803,4.183379,-2.2738073,0.3991896,5.7586374,2.5392125,-10.015637
287,1715699786.8125422,4.0606575,-2.6687002,-0.7621865,6.3754625,2.3794374,-10.91475
288,1715699786.8344076,3.8316972,-2.5633028,-1.7513763,5.2100124,1.69455,-11.286412
289,1715699786.8551447,3.2888837,-2.334052,-1.7886851,3.92315,1.3195875,-11.2140875
290,1715699786.875981,2.3610551,-1.780841,-1.512951,2.396625,0.37675,-10.13815
291,1715699786.9023063,2.2152905,-1.5597401,-1.446789,1.3206875,-0.6512,-8.684088
292,1715699786.9179251,2.4827676,-1.4625841,-1.5842049,0.6656375,-1.2573,-8.0363245
293,1715699786.9356658,1.9971408,-1.3776758,-1.2351682,-0.6414375,-1.8357625,-7.3216
294,1715699787.065051,-0.4938838,-2.2587156,-1.8861315,-8.023812,-1.4042875,-5.151575
295,1715699787.0840914,-0.9577982,-4.418547,1.442003,-9.7878,-0.809875,-6.32665
296,1715699787.1025949,-2.4297707,-5.2708406,4.444144,-7.367525,-0.7129375,-7.3557
297,1715699787.1190774,-5.632722,-5.7862387,4.9205966,-1.03345,-0.19525,-5.8909125
298,1715699787.1388018,-5.071361,-5.1976604,2.8135626,2.3508375,2.899325,0.5198875
299,1715699787.152905,-1.7432264,-3.913349,1.6735934,3.069825,3.2679625,1.1430374
300,1715699787.1768942,0.9633028,-2.7155964,-0.7768654,4.6006126,2.2122376,-0.56993747
301,1715699787.1926384,-0.43558106,-2.5881803,-1.2754282,3.0592375,1.5933499,-1.8684875
302,1715699787.2082546,-1.3420031,-2.596942,-0.97848624,2.5521374,1.615625,-1.374175
303,1715699787.2362485,0.48613152,-2.998884,-1.1456728,1.872475,1.433575,2.14225
304,1715699787.2618933,0.037813455,-2.2274158,-1.0214068,0.1170125,1.497375,2.5757875
305,1715699787.2774796,0.1274159,-2.0590215,-0.75932723,-0.5115,1.6764,3.4940126
306,1715699787.3076878,1.495107,-2.3553517,-0.26655963,-1.2199,2.0482,4.966225
307,1715699787.4337099,2.2450612,-1.4069266,-1.0868502,-4.1685877,1.3600125,10.551475
308,1715699787.4495943,2.7832873,-2.1386392,-0.6119266,-4.9292374,-0.4189625,11.99055
309,1715699787.4660332,4.6053977,-2.9559634,-1.1796176,-6.9542,-0.8419125,12.39645
310,1715699787.4818046,4.7524924,-3.0604434,-0.7988838,-8.079225,-0.87285,11.592213
311,1715699787.497317,4.5550456,-3.1658561,0.6024465,-8.4073,-1.791075,9.982637
312,1715699787.5130157,4.4550457,-3.0748165,1.082263,-7.8106875,-2.5782626,9.476638
313,1715699787.5363584,3.947905,-2.9061162,1.0610551,-4.8886747,-5.18925,8.798075
314,1715699787.5618317,4.5196786,-2.9972477,-0.26360857,-4.300725,-5.59405,9.246463
315,1715699787.5925925,4.397446,-2.146896,1.3780887,-7.2642627,-3.274975,6.2178874
316,1715699787.6081693,4.1247706,-1.9189602,1.6779816,-6.204275,-4.03975,6.25625
317,1715699787.636613,5.2413917,-2.1305811,0.5319113,-5.2658377,-4.4584374,5.2421875
318,1715699787.6522195,4.1685014,-2.0698318,1.1650306,-6.5186,-3.9919,4.67335
319,1715699787.6677763,5.4108105,-1.6266055,1.5862385,-6.914875,-3.6595626,5.505225
320,1715699787.6883378,6.4753366,-1.6231346,1.4180428,-7.4272,-3.43585,5.3178124
321,1715699787.7098734,7.9916363,-2.0952141,1.5904129,-9.522562,-3.4038124,3.5569875
322,1715699787.7989829,1.7491285,-2.5412843,-2.6094801,10.57045,2.8631625,-5.0205374
323,1715699787.8215818,0.99041283,-1.0198777,-1.9185475,4.3896875,3.370125,-2.688675
324,1715699787.8459563,1.3405657,-0.5798165,-0.48470947,0.9851875,3.7717624,-1.813075
325,1715699787.861739,1.4755352,-0.59418964,0.5692202,0.0968,3.4255376,-1.93985
326,1715699787.8772047,1.5964373,-1.0747248,1.4913303,0.5718625,4.4748,-2.7312999
327,1715699787.892867,1.4091743,-1.2024465,1.6135627,0.8243125,4.803975,-2.7707624
328,1715699787.9085894,1.6937768,-1.3696177,1.7729815,1.5796,5.00005,-2.5161126
329,1715699787.9274871,2.402951,-1.2148777,1.3233486,3.289275,4.940375,-2.3500125
330,1715699787.9437354,2.7680886,-1.1062232,1.1312996,3.55465,4.9083376,-2.3585374
331,1715699787.9594862,3.3489296,-0.9790979,0.81478596,3.82415,5.075675,-2.68125
332,1715699787.9831617,4.044235,-1.1013303,0.66911316,4.9383125,5.1970873,-4.5742126
333,1715699787.998647,3.9796176,-1.1782875,0.56218654,5.364425,5.2855,-5.0375876
334,1715699788.0374503,4.179006,-1.5415902,-1.1626911,5.8491125,5.3142376,-6.8358126
335,1715699788.053251,4.2512693,-1.4188533,-1.3533181,4.691225,5.87675,-7.242675
336,1715699788.0711305,4.311728,-1.4083639,-1.3362844,4.186325,5.6252623,-7.9308624
337,1715699788.0872216,4.027936,-1.521101,-0.85279816,4.3066373,5.06825,-8.223875
338,1715699788.1970148,1.3881804,-1.0186543,-0.5259939,2.9293,-0.7407125,-7.074375
339,1715699788.2112556,0.6809327,-0.92885315,0.13802752,3.8517876,-2.55695,-6.5481625
340,1715699788.227208,0.8959174,-0.8541285,-0.46808872,4.9138374,-3.5476375,-5.9048
341,1715699788.242973,0.6133486,-1.0034709,-0.6784863,4.893625,-2.837175,-6.6248875
342,1715699788.2657862,-1.3112079,-1.9448471,-1.7897094,4.411,-2.6379375,-7.5942626
343,1715699788.2867706,-4.3280272,-3.467997,-3.0395567,-9.395787,-0.219725,-1.7235625
344,1715699788.313925,-3.2427063,-5.041896,4.157905,-12.013237,0.570625,-0.42075
345,1715699788.3386135,-2.5666666,-4.3912387,7.2869573,-3.9875,-0.6054125,-1.5200624
346,1715699788.3650453,-2.9639144,-3.7857337,2.5534098,4.3791,2.5051124,-0.2024
347,1715699788.389382,-0.4033639,-3.416514,-0.052492358,5.0054126,4.1350374,1.3965875
348,1715699788.4186878,-0.5980581,-3.112844,-2.4445412,1.9193625,1.1639374,0.8767
349,1715699788.436314,-0.76646787,-3.2215137,-0.3878746,0.54945,0.1285625,2.5832124
350,1715699788.4532094,-0.76646787,-3.2215137,-0.3878746,0.8157875,-0.16225,3.265075
351,1715699788.4763288,-0.5439297,-3.258104,-0.049847096,1.1012375,-0.154825,4.2802377
352,1715699788.6547081,-0.5439297,-3.258104,-0.049847096,2.7493124,1.0660375,5.4264374
353,1715699788.6819727,2.470841,-0.46432725,-0.09888379,-0.438075,3.0122125,6.1945124
354,1715699788.697467,2.2219114,-0.9486239,-1.0719725,-2.08285,2.4635875,8.3996
355,1715699788.7130816,1.9787921,-1.2185475,-1.2376148,-3.202375,2.0780375,9.382862
356,1715699788.7349088,3.5127373,-2.401422,-1.735581,-7.5571375,-0.12925,10.9285
357,1715699788.744388,3.562997,-2.5808408,-0.9445413,-8.645863,-0.46475,10.027325
358,1715699788.7571938,2.7024465,-2.7413914,0.5289449,-8.156913,-2.2138875,9.281662
359,1715699788.7762804,3.042202,-2.8206882,0.15137614,-7.31115,-3.8193374,9.701312
360,1715699788.7918663,4.8899083,-3.0721712,-1.3787004,-7.4794497,-4.554275,10.243612
361,1715699788.8197834,6.8070335,-3.9829817,-1.2363914,-13.979625,-2.0669,8.71915
362,1715699788.8463473,7.0764527,-3.4870489,5.650046,-11.756388,-4.589475,5.541525
363,1715699788.9541757,4.512125,-2.3187616,6.465642,-8.723687,2.7938626,3.1670375
364,1715699788.973139,4.664419,-1.7768655,7.0882716,2.311375,0.0540375,1.9174374
365,1715699788.9887085,5.9725842,-1.6661621,2.9751222,7.16045,0.1211375,-1.83755
366,1715699789.0160797,2.5916362,-1.7314984,0.56116205,7.4853625,2.2196624,-4.16735
367,1715699789.0406082,1.058211,-0.6948012,-0.13252293,3.763375,2.3731124,-2.61635
368,1715699789.0560741,1.4726759,-0.35117736,0.2534098,2.7385874,2.7086124,-2.4916375
369,1715699789.0726502,1.7776759,-0.31896025,1.5247707,2.430725,2.4135375,-3.0573125
370,1715699789.0882218,2.1926606,-0.8497401,1.9108104,3.74,2.6202,-4.0011125
371,1715699789.1038938,2.3043883,-1.2121253,1.7866513,4.5122,2.8578,-4.3643875
372,1715699789.1195352,3.1927676,-1.435474,0.8518808,5.551975,4.02215,-4.817175
373,1715699789.1474495,4.04526,-1.5375077,0.37105504,6.021675,4.0359,-5.862175
374,1715699789.1631663,4.3579054,-1.5267125,0.11192661,6.1133876,4.1072626,-6.1848874
375,1715699789.1786962,5.1376147,-1.8801223,-0.4029511,6.0898747,4.6814623,-9.526688
376,1715699789.2019606,3.4016361,-2.1813455,-0.3148777,6.0995,4.2180877,-10.0188
377,1715699789.2175856,4.5196786,-2.0129511,-0.9633028,6.25295,3.8303375,-9.8643875
378,1715699789.2409563,4.5196786,-2.0129511,-0.9633028,6.092075,3.271125,-10.141313
379,1715699789.3254867,1.7704436,-0.88827217,-1.6554588,2.6692874,-0.6384125,-9.482963
380,1715699789.341242,1.6881804,-0.73669726,-2.3022478,1.265275,-1.4320625,-8.007587
381,1715699789.3569334,2.5347555,-0.5500459,-2.7542355,-0.69795,-0.8663875,-7.935125
382,1715699789.3725288,1.383792,-0.85168195,-0.6506575,-1.8282,-0.8333875,-8.00965
383,1715699789.388227,1.2090672,-0.69235474,0.84139144,-1.045275,-1.639825,-6.8539624
384,1715699789.4045527,0.96524465,-0.67400616,1.3422018,0.5335,-2.294875,-6.4235873
385,1715699789.4201934,0.67217124,-1.0223241,1.4166209,1.9130375,-3.0938876,-6.0549498
386,1715699789.4418442,0.34995413,-1.0254892,-0.97695714,5.484875,-4.5670624,-4.3197
387,1715699789.4656837,0.13689603,-1.3761468,-4.4809327,-2.273425,-3.4549625,-4.3239627
388,1715699789.4814441,-1.2228287,-2.0061162,-5.5683947,-8.476462,-2.549525,-3.0914125
389,1715699789.4970765,-1.4498471,-6.1125383,1.0490367,-13.523675,-1.0549,-2.2242
390,1715699789.5125916,-1.9662538,-6.476453,4.516101,-14.254487,-1.1870375,-2.4618
391,1715699789.5422602,-2.7198777,-5.7716665,5.575841,2.3156376,-0.2239875,-1.3369125
392,1715699789.5588531,-1.2499541,-5.036804,1.5102905,4.0222874,1.9650124,-0.969375
393,1715699789.5745304,-0.29500002,-3.9439297,-0.27431193,3.1678624,3.7663999,-1.3134
394,1715699789.5902364,-0.52629966,-3.5309942,-0.35126913,2.820675,3.4351625,-1.541375
395,1715699789.6059115,-1.2641132,-3.0865443,-0.68776757,3.17955,2.5073125,-0.9235875
396,1715699789.705598,1.4252752,-2.0099847,1.0217125,-0.5157625,1.2854875,4.3643875
397,1715699789.7214973,1.4489297,-2.1505659,0.44842508,1.0181875,1.431375,4.7691875
398,1715699789.7428434,1.6850153,-2.1757338,-0.23455657,1.201475,2.1141999,5.456275
399,1715699789.7625399,2.0654435,-1.8948013,-0.5891896,0.68694997,2.4710126,6.1061
400,1715699789.7781746,2.3675842,-1.3832874,-0.35585627,0.407825,2.393325,6.2616124
401,1715699789.793885,2.621208,-1.240474,-0.30489296,0.4940375,2.2175999,6.42455
402,1715699789.8020341,2.7896025,-1.0993884,-0.3856269,0.6037625,1.9064375,6.5066376
403,1715699789.8259895,1.915902,-1.1767584,-0.7912385,0.523875,1.769075,7.1308875
404,1715699789.8533125,2.1475077,-1.5889908,-2.1860397,-1.0921625,1.2013375,10.0880995
405,1715699789.8689728,2.6685016,-1.9147859,-2.7656422,-2.9019375,1.159675,11.145887
406,1715699789.9016058,4.0267124,-4.59867,-0.87105507,-10.838162,-0.6725125,13.529862
407,1715699789.9172606,4.1221256,-4.8346634,0.084816515,-10.908563,-1.216875,13.519275
408,1715699789.9415987,5.338532,-4.7041745,0.57808864,-8.598975,-1.6440874,11.51975
409,1715699789.966343,5.7416973,-3.8702295,0.06380734,-9.040075,-2.446125,8.842762
410,1715699789.9927025,4.3239603,-3.0725842,1.0932722,-6.321425,-5.3299127,6.719625
411,1715699790.0752873,7.4316053,-2.396529,-0.9650306,-7.5497127,-4.0046873,6.49495
412,1715699790.0961187,7.514266,-3.5524006,2.6869571,-9.834687,-3.0768375,3.22135
413,1715699790.1117215,6.2701373,-2.8278286,5.1352754,-5.2221127,-4.6545124,2.806925
414,1715699790.1283576,6.0643272,-0.9680887,2.0606575,-0.8097375,-5.8411374,3.32365
415,1715699790.1539898,5.832523,0.8360857,-3.1822631,-5.565175,-5.2457623,7.4217
416,1715699790.1787095,3.5166206,-2.8910244,7.9622784,7.844375,-1.8294375,-3.4291124
417,1715699790.1943266,4.6105046,-3.4620795,5.762997,12.128875,-2.7721374,-4.4517
418,1715699790.2099476,2.862584,-3.2439299,0.12405199,11.857312,1.465475,-6.0879498
419,1715699790.2254114,1.8961315,-2.9279358,-0.6096789,8.081975,1.8127999,-4.30045
420,1715699790.2443898,1.0072324,-0.91590214,-2.478899,4.93735,2.1621876,-3.2384
421,1715699790.2599819,1.3933792,-0.3379205,-1.1446483,-0.22605,3.5256374,-2.3296626
422,1715699790.2755167,1.4462844,-0.48093274,-0.39296636,-1.3275625,3.707825,-2.31055
423,1715699790.291229,1.0416973,-0.9202905,1.9034711,-1.734425,2.9653249,-2.2957
424,1715699790.3066986,1.1197706,-1.0447553,2.3784862,-0.8119375,3.133625,-1.9930625
425,1715699790.3223424,2.1811469,-1.0312997,1.9823699,1.0586125,4.39065,-1.60435
426,1715699790.3371294,2.8703363,-1.0102905,1.3209021,1.990725,4.8786373,-1.8940625
427,1715699790.3591995,3.680627,-1.0456728,0.6131499,3.678125,5.0958877,-3.3374
428,1715699790.4651268,4.492355,-3.2112079,-1.2318043,8.288637,3.524675,-9.473337
429,1715699790.493336,3.7814524,-2.8949082,-1.3882722,7.3330126,2.1877625,-10.664363
430,1715699790.5152009,3.2606575,-2.6991897,-1.5212079,6.7386,1.043625,-10.989275
431,1715699790.5456548,2.4069266,-2.1729817,-1.8653363,4.558125,-0.642675,-10.47365
432,1715699790.5759091,1.7594343,-1.6793119,-1.4737003,2.564925,-1.3041875,-9.084625
433,1715699790.5996668,2.029358,-1.2926606,-1.2986697,1.8767375,-3.0171626,-8.106587
434,1715699790.6297648,1.604893,-1.4377217,-0.90519875,1.688225,-4.44565,-8.269663
435,1715699790.6501613,0.6809327,-1.1877676,-0.41732416,1.8618875,-4.774825,-7.4344873
436,1715699790.6714208,-0.57859325,-1.4071406,-2.029358,1.4975125,-3.7574625,-6.6473
437,1715699790.696528,-0.73619264,-3.2981653,-4.9524007,-10.6678,-2.8477626,-1.0055375
438,1715699790.714136,0.14036697,-6.5914373,2.2642202,-16.0281,-0.56705,-2.85065
439,1715699790.7297423,-1.5174311,-6.182156,7.1577983,-12.77265,-1.065625,-4.2493
440,1715699790.745394,-3.9548469,-5.4814525,6.944236,-2.056175,-1.4298625,-4.476175
441,1715699790.7611885,-3.988792,-5.4292507,5.5643272,-2.056175,-1.4298625,-4.476175
442,1715699790.823579,-3.988792,-5.4292507,5.5643272,0.592075,-0.729025,-3.701775
443,1715699790.8453777,-2.3308868,-3.2768657,-1.1390367,2.5862374,2.1929874,0.529375
444,1715699790.8597198,-1.2350612,-3.0362844,-1.0943884,1.451725,2.005575,4.048
445,1715699790.8727958,-0.29591742,-2.79052,-1.2003058,0.9659375,1.955525,5.1654625
446,1715699790.8923254,1.1490368,-2.10448,-1.420688,-0.3752375,1.6806625,5.8386626
447,1715699790.9078343,1.2629969,-1.9477063,-1.2771713,-1.4947625,1.2386,5.85365
448,1715699790.923587,0.9647247,-2.0150917,-0.495,-2.595175,0.91368747,6.1945124
449,1715699790.9460104,1.275734,-2.1337461,0.2690061,-2.41945,0.8124875,7.037112
450,1715699790.9612794,1.3393425,-2.1559634,0.24025993,-2.225575,0.825275,7.1905622
451,1715699790.981683,2.003471,-2.0444496,0.0051987767,-1.4106125,1.05105,7.509012
452,1715699790.9971256,2.0085626,-1.9401681,-0.1640214,-1.1891,1.1086625,7.7125125
453,1715699791.0273998,2.9147859,-1.4527981,-0.00081039756,-0.83325,0.34375,7.2949247
454,1715699791.046093,2.9201834,-1.1525993,-0.4801223,-0.62865,0.5643,7.8541374
455,1715699791.0616715,3.1251833,-1.1557646,-0.8764526,-1.278475,0.80079997,8.0650625
456,1715699791.0772777,3.2408717,-1.2021407,-0.9794037,-2.0956376,0.78045,8.205725
457,1715699791.0968597,3.169618,-1.693471,-0.86697245,-3.9843376,-0.2602875,8.408125
458,1715699791.1128721,3.0492356,-1.8828746,-0.6623853,-4.34115,-0.727925,8.474125
459,1715699791.1305509,3.2144802,-2.1881804,-0.4283333,-4.4647627,-2.18625,8.785288
460,1715699791.3248725,7.664113,-2.300413,-0.71732414,-6.7773747,-4.7386622,4.7191377
461,1715699791.3452995,7.8396482,-2.873899,1.5247707,-7.4837127,-4.8409624,4.106575
462,1715699791.361538,7.625382,-1.3115138,3.9782872,-3.353625,-5.230775,2.5322
463,1715699791.3770306,7.9916363,-1.005,-2.5714526,-11.202538,-1.3948,7.09995
464,1715699791.3927073,7.9916363,-3.7848165,1.7201834,-15.10355,5.0213623,4.9374876
465,1715699791.4054508,6.915397,-3.2300766,7.9622784,-12.80675,7.065575,0.4921125
466,1715699791.4254327,3.1427066,-2.0085626,7.9622784,4.9468374,-0.4871625,-1.53505
467,1715699791.4456744,3.6715596,-2.0712538,2.806529,8.6614,1.3578125,-2.368025
468,1715699791.4628882,3.3313913,-1.8454587,1.430474,9.867275,1.699775,-4.5508375
469,1715699791.4784899,2.3273242,-0.89663607,-0.5296636,7.035875,2.7671876,-5.5020623
470,1715699791.4985566,0.6206881,-0.17420489,-0.9511774,2.74505,3.5906749,-4.3825374
471,1715699791.5934749,3.411208,-0.9544343,1.1489297,3.3213124,5.3877997,-5.2058873
472,1715699791.613012,4.0809326,-1.4715596,0.14292048,4.5133,5.5198,-6.46195
473,1715699791.6314106,4.2688074,-1.7737004,-0.3053058,4.7818375,5.5177374,-6.9774375
474,1715699791.647147,4.5707493,-1.8767585,-0.37828746,4.877675,5.346275,-7.2491374
475,1715699791.6626794,4.727416,-2.0180428,-0.55891436,5.0076127,5.2375126,-7.7380877
476,1715699791.6783109,5.2157955,-2.3469877,-0.5118196,5.81185,3.9975374,-9.525587
477,1715699791.7026455,4.593379,-2.5403671,-0.70611626,6.4414625,3.5085876,-10.77945
478,1715699791.7184374,4.359832,-2.5461774,-0.95035166,6.6097627,2.9473126,-11.01265
479,1715699791.743662,3.2767584,-2.1888838,-1.9439296,5.0980873,1.348325,-11.092538
480,1715699791.7597558,2.9436238,-1.8102906,-1.9349695,3.8539875,-0.0462,-10.503488
481,1715699791.7769039,2.2268043,-1.4750305,-1.4426147,2.1516,-1.771825,-9.643837
482,1715699791.7932143,2.024266,-1.4308869,-1.2988838,1.8885624,-1.9135875,-9.375438
483,1715699791.8088088,1.7540214,-1.3256881,-0.75076455,1.2302125,-2.6379375,-7.987375
484,1715699791.8244495,1.7205964,-1.2963303,-0.66360855,1.250425,-2.72635,-7.513275
485,1715699791.8477862,2.074205,-1.127523,-0.19969419,2.213475,-3.5615249,-7.379075
486,1715699791.8635442,1.0763456,-1.182156,-0.36738533,3.105025,-4.623575,-7.8978624
487,1715699791.8940725,-1.1318043,-1.8091743,-3.5496483,2.785475,-4.9655375,-6.7260876
488,1715699791.9952118,0.45198774,-4.838838,1.5635015,5.5114126,3.0537374,0.9076375
489,1715699792.0108368,0.8776759,-3.3300767,-0.1274159,5.5924,3.98475,-1.3304499
490,1715699792.0264494,0.68532115,-3.164419,-0.07084098,6.1452875,3.7888124,-1.798225
491,1715699792.0488153,-1.7617737,-3.312737,-2.3358867,6.27,2.612775,-0.6540875
492,1715699792.0686011,-1.9189602,-3.183899,-2.2402601,3.191375,2.0152,2.9294374
493,1715699792.084345,0.951789,-2.8019419,-1.193471,1.6776375,1.465475,5.540425
494,1715699792.0999403,1.5871559,-2.5088685,-1.2332263,1.49435,1.5442625,5.61825
495,1715699792.115638,1.665948,-1.8303822,-1.2676911,0.1841125,1.79575,5.6703625
496,1715699792.1312175,1.4350611,-1.6866513,-0.6262997,-0.9057125,1.6891875,6.7238874
497,1715699792.1490269,1.8462844,-1.6836851,-0.51620793,-0.96635,1.573,6.9785376
498,1715699792.168548,3.325994,-1.2994955,-0.44831803,-0.707575,1.66045,6.770775
499,1715699792.1851797,2.8062232,-0.96197253,-0.5623853,0.220275,1.1011,5.556375
500,1715699792.2019303,2.220688,-0.92588687,-0.8988838,0.338525,1.1075625,5.6618376
501,1715699792.217554,2.1450613,-1.1060092,-1.95026,-1.5896375,1.5698375,7.2193
502,1715699792.2332652,1.8487309,-1.4706422,-1.6039755,-2.7677374,0.942425,8.024637
503,1715699792.2490795,1.8487309,-1.4706422,-1.6039755,-3.626425,0.6078875,8.819387
504,1715699792.2647016,1.8131498,-2.157905,-0.7934709,-4.8653,-0.1005125,10.769825
505,1715699792.3671293,3.478593,-2.7692204,0.23761468,-5.6610126,-4.9165874,9.077063
506,1715699792.3922482,4.1690063,-2.7443426,0.14414373,-5.4415627,-4.7524123,9.2390375
507,1715699792.4077365,4.495306,-2.7268043,-0.0053975536,-5.4415627,-4.7524123,9.2390375
508,1715699792.428922,5.474419,-1.9697249,0.10336392,-8.612863,-2.6411,5.3849125
509,1715699792.458114,4.7376146,-2.0626912,1.0976605,-9.005975,-2.2394624,4.6861377
510,1715699792.4832635,5.4349694,-2.1510704,2.0445414,-5.413925,-3.6573625,4.1523623
511,1715699792.4992363,6.3689146,-1.8513762,1.1356728,-4.5318623,-3.5413125,3.1244125
512,1715699792.5233274,6.230275,-1.9814526,1.3656422,-5.8793626,-3.0001125,1.3656499
513,1715699792.53957,6.115795,-2.4778745,3.4183486,-5.5672374,-2.7487624,1.1419375
514,1715699792.5720844,6.840168,-0.9954128,3.519679,-2.3065624,-1.6302,0.212025
515,1715699792.5966258,5.123043,-0.7613608,3.4633029,-2.3342,0.7975,-2.030325
516,1715699792.6122398,2.7090673,-1.0249695,4.1959176,-0.2366375,1.5208875,-2.4096875
517,1715699792.6279216,2.3171253,-0.96126914,4.0616665,0.8595125,1.584825,-2.2594
518,1715699792.6467133,2.1398623,-0.87145257,4.042202,2.9814124,2.3623874,-2.1220374
519,1715699792.749459,3.7577982,-0.86096334,-0.033746175,2.9739876,6.7640376,-3.7827625
520,1715699792.77376,4.0574923,-0.640367,-0.28267583,2.3775125,7.285025,-5.1537747
521,1715699792.7957408,3.7462845,-0.7833792,-0.19163609,2.6874375,7.4320126,-5.458475
522,1715699792.8156796,4.3946943,-0.7426147,-0.61967885,2.8419874,7.5013123,-5.4179125
523,1715699792.8312838,4.70133,-0.80478597,-0.8314985,2.7599,7.756925,-6.098675
524,1715699792.8511944,4.4120336,-0.9693119,-0.6299694,3.3213124,7.436275,-6.5663123
525,1715699792.866725,4.164113,-1.0207951,-0.6714526,3.8592124,6.897275,-6.620625
526,1715699792.882306,4.159939,-1.0349694,-0.9760397,4.2213874,6.4455876,-6.652525
527,1715699792.8991313,3.943532,-1.1182417,-1.7357798,3.9370375,5.024525,-7.43875
528,1715699792.934057,3.2986696,-1.1704434,-1.363104,3.6323376,3.824975,-7.9766498
529,1715699792.9565432,2.337309,-1.2514832,-0.787156,4.15965,1.9234875,-7.8029876
530,1715699792.9766848,1.5271101,-1.2863456,-0.8157034,5.1429124,-0.4200625,-7.1649876
531,1715699792.9921453,2.7522936,-1.4132569,-1.8677828,4.8158,-0.9868375,-7.529225
532,1715699793.0056114,2.090321,-1.4477065,-1.3069266,4.1031375,-1.2914,-8.01185
533,1715699793.0242114,0.8022477,-1.3253822,0.10897554,4.505875,-1.9327,-7.6113124
534,1715699793.1355088,-5.95974,-5.413563,7.9622784,-2.223375,-0.05995,-2.0666249
535,1715699793.1520119,-2.5490367,-4.8412848,2.275428,7.4853625,1.7881875,0.901175
536,1715699793.167637,-0.63099384,-4.1620793,-0.15107034,7.3821,2.4849,0.97473747
537,1715699793.1971319,-0.81671256,-2.1781805,-1.9635016,2.1165376,3.5864124,-1.8236625
538,1715699793.2127035,-2.095413,-2.493685,-1.7057033,1.4389375,3.1156125,-1.1504625
539,1715699793.2292535,-1.263104,-2.8034708,-1.1451529,-0.082225,1.598575,2.908125
540,1715699793.2449043,0.24770641,-2.6257951,-1.0311927,0.2096875,0.468325,4.379375
541,1715699793.2767825,0.28551987,-2.1898012,-2.3442354,-0.72985,0.771925,4.4869
542,1715699793.2924173,-0.22466362,-2.088272,-2.2768655,-1.8728875,1.0734625,5.000325
543,1715699793.3132765,0.06594801,-2.2384253,-1.4814526,-3.7222624,1.6104,7.227825
544,1715699793.3367484,0.8234404,-2.1783946,-1.583685,-4.5467124,1.0478874,8.714888
545,1715699793.3613517,1.4333334,-1.9618808,-1.3825688,-5.4660373,0.120037496,8.985487
546,1715699793.376858,1.6686085,-1.8989755,-1.3284403,-5.7707376,-0.43395,8.9749
547,1715699793.3930423,1.9255811,-1.9919419,-0.91253823,-6.2778373,-1.2530375,8.92265
548,1715699793.408688,2.0423088,-2.17737,-0.7988838,-6.4504,-1.5087875,9.0079
549,1715699793.5069702,2.8179357,-2.0577981,0.7461774,-3.97045,-4.504225,4.1173
550,1715699793.524101,2.708058,-1.9716667,0.8472018,-2.6665375,-5.4150248,3.076425
551,1715699793.5418756,2.1918502,-1.9065291,0.8625841,-1.3233,-5.93175,2.825075
552,1715699793.550014,2.0120337,-1.9021407,0.49744648,-0.7715125,-5.736775,3.2693374
553,1715699793.5737681,2.0344496,-1.8783946,0.15240061,-1.06755,-4.9251122,4.2813373
554,1715699793.5895402,2.3312995,-1.7903211,-0.29847094,-1.6247,-4.75145,4.7223
555,1715699793.6050541,2.80133,-1.6362844,0.29836392,-2.3277376,-4.674725,5.0653625
556,1715699793.6207905,3.480535,-1.6082568,0.60733944,-1.6247,-5.061375,4.5912623
557,1715699793.6364021,3.6359787,-1.611208,0.43139145,-0.909975,-5.8251877,4.2120376
558,1715699793.6643724,3.3457646,-1.4115138,-0.3939908,-1.111275,-5.511,4.784175
559,1715699793.7034688,5.3641133,-2.1785934,1.2011162,-9.037875,-1.98495,5.2826123
560,1715699793.7190762,5.336086,-2.1386392,2.030887,-9.26805,-2.1126876,5.0983624
561,1715699793.734699,4.740367,-1.31763,4.585734,-5.2903123,-4.0462127,4.072475
562,1715699793.753369,5.708976,-0.416315,2.8565748,-0.6873625,-5.35535,2.91995
563,1715699793.7689838,5.523547,0.015091743,1.3854282,-0.4923875,-4.8697,1.8833375
564,1715699793.7921808,5.210902,-0.045366973,1.3126452,-2.796475,-1.269125,-0.1566125
565,1715699793.8991556,0.6865443,-1.1228287,0.29980123,5.5082498,-1.132725,-1.542475
566,1715699793.914775,0.51498467,-1.1326147,0.35474008,5.4241,-1.2274625,-1.4955875
567,1715699793.9304154,0.2543272,-1.0689144,0.57951075,5.6755877,-1.620575,-1.2815
568,1715699793.9504435,0.18868501,-1.043318,0.65688074,5.906725,-1.788875,-1.204775
569,1715699793.9665956,0.20652905,-1.0501529,0.59980124,6.7439623,-2.3695376,-1.1419375
570,1715699793.9828422,0.26503056,-1.0740061,0.27298164,7.1754375,-2.819025,-1.2559249
571,1715699793.9984286,0.3016361,-1.0869572,0.1833792,7.1808,-2.8776,-1.2911249
572,1715699794.0219858,0.69285935,-1.0347553,-0.29683486,6.6034374,-2.7902875,-1.5659875
573,1715699794.032674,0.7963303,-0.9651376,-0.49449542,5.3879375,-2.2501874,-1.97285
574,1715699794.0606244,0.8832875,-0.8672783,-0.54139143,3.1252375,-0.85153747,-2.31165
575,1715699794.091889,0.83833337,-0.96860856,-0.48960248,1.974775,-0.0759,-2.1368876
576,1715699794.1200566,0.7844037,-0.77848625,-0.17503057,0.5952375,0.286275,-1.932425
577,1715699794.1355278,0.74923545,-0.79918957,-0.053929668,0.4343625,0.3650625,-1.848275
578,1715699794.1526756,0.7817584,-0.6689144,0.15749235,0.3876125,0.451275,-1.4040124
579,1715699794.1686525,0.79418963,-0.670841,0.2,0.5218125,0.44275,-1.3849
580,1715699794.2738557,0.55279815,-0.50264525,-0.08665138,2.091925,-0.8589625,-0.766975
581,1715699794.293831,0.78073394,-0.37655962,-0.23282877,1.9897625,-0.6298875,-0.43353748
582,1715699794.3094282,0.8420031,-0.26055047,-0.47522935,1.5838625,-0.2250875,-0.496375
583,1715699794.325068,0.80805814,-0.25963303,-0.49082568,1.4315125,-0.14739999,-0.5102625
584,1715699794.3406935,0.7978593,-0.17319572,-0.43394494,1.05765,0.1467125,-0.430375
585,1715699794.3574734,0.78490824,-0.14729358,-0.50600916,0.9851875,0.17435,-0.4153875
586,1715699794.382712,0.73221713,-0.10631499,-0.7050917,0.659175,0.1925,-0.2481875
587,1715699794.398349,0.78298163,-0.09143731,-0.70581037,-0.029975,0.1467125,0.127875
588,1715699794.4171846,0.95749235,-0.082155965,-0.75096333,-1.1474375,0.6004625,0.30153748
589,1715699794.4422197,0.89694196,-0.103669725,-0.3670795,-1.6918,0.9818875,0.4527875
590,1715699794.4580188,0.9139602,-0.11050459,-0.24454129,-1.8282,1.1682,0.5379
591,1715699794.4877636,1.1155963,-0.081957184,0.118241586,-1.0164,1.0159875,0.347325
