id,timestamp,acc_x,acc_y,acc_z,gyro_x,gyro_y,gyro_z
0,1715699727.3943794,0.53619266,-0.74801224,0.49285936,-0.7255875,0.436425,-0.144925
1,1715699727.4018762,0.5396483,-0.7364985,0.5219113,-0.657525,0.44385,-0.1054625
2,1715699727.4117963,0.5330275,-0.7154893,0.54801226,-0.520025,0.42473748,-0.0639375
3,1715699727.4229462,0.5445413,-0.6955199,0.5409786,-0.368775,0.37895,-0.0202125
4,1715699727.4309292,0.5732875,-0.6825688,0.50917435,-0.1940125,0.2872375,0.0011
5,1715699727.4389172,0.588685,-0.67992353,0.4806269,-0.0759,0.1871375,-0.0020625
6,1715699727.4536054,0.59551984,-0.67747706,0.46605504,0.0232375,0.0677875,-0.0042625
7,1715699727.4702063,0.6182416,-0.68379205,0.42894495,0.1755875,-0.0386375,0.0053625
8,1715699727.4782689,0.62966365,-0.6859327,0.395,0.1915375,-0.02585,0.0022
9,1715699727.5084074,0.61701834,-0.67328745,0.36697248,0.1287,0.100925,0.026675
10,1715699727.5367339,0.7600459,-0.6032569,0.37400612,0.0605,0.083875,-0.0020625
11,1715699727.5623531,0.95524466,-0.47634557,0.32619268,-0.0801625,0.0253,-0.5102625
12,1715699727.5919425,0.7257951,-0.3933792,0.382263,-0.3889875,0.3586,-0.7797625
13,1715699727.612215,0.60845566,-0.3587156,0.4830734,-0.52648747,1.194875,-0.7530875
14,1715699727.628018,0.61457187,-0.34770644,0.5067278,-0.4316125,1.2736624,-0.7819625
15,1715699727.6434846,0.5274159,-0.29357797,0.46188074,-0.12265,0.9700625,-1.0003124
16,1715699727.659269,0.6194648,-0.23669724,0.3415902,0.15853749,0.2701875,-1.1046749
17,1715699727.674875,0.6557645,-0.22374618,0.2512691,0.15853749,0.2701875,-1.1046749
18,1715699727.7745664,0.16279817,-0.50825685,0.22466362,0.1639,-0.46048748,-0.7723375
19,1715699727.790143,-0.055550456,-0.61181957,0.08185015,0.5781875,-0.9409125,-0.7189875
20,1715699727.8076954,-0.20071866,-0.7352752,-0.074923545,0.7018,-1.1466125,-0.564575
21,1715699727.8287714,-0.17931193,-1.1653364,-0.4307798,0.18727499,-1.3244,0.2578125
22,1715699727.8448303,-0.1614679,-1.2368044,-0.4461774,0.000825,-1.3319625,0.4112625
23,1715699727.8604293,-0.124357805,-1.430581,-0.36319572,-0.587125,-1.3968625,0.9928875
24,1715699727.8760855,0.07420489,-1.6805352,-0.12813456,-1.2252625,-1.471525,2.5172124
25,1715699727.8918543,0.5552447,-1.7486238,0.040672783,-1.263625,-1.5822124,2.6866124
26,1715699727.9073687,1.1614679,-1.5333333,0.14995413,-1.3179375,-1.64615,2.8708625
27,1715699727.9266236,1.3928593,-1.0552447,0.36961773,-1.4606625,-1.5769875,2.3936
28,1715699727.9451866,1.3692201,-0.83628434,0.4833792,-1.3903999,-1.4128125,2.185975
29,1715699727.9693193,1.3792049,-0.39429662,0.5438379,-0.6073375,-0.73755,1.6000875
30,1715699727.985028,1.9512691,-0.18857798,-0.187263,-0.1450625,-1.014475,0.8383375
31,1715699728.0007176,2.3022478,-0.020382263,-0.9267125,-1.2519375,-1.41185,-0.36107498
32,1715699728.0296862,1.987156,-0.0795107,-0.3670795,-4.519075,0.00495,-1.4221625
33,1715699728.0451863,2.020795,-0.048730887,0.1509633,-5.0804873,0.435325,-1.1994125
34,1715699728.0618956,2.4615748,0.027522936,0.5150917,-5.0804873,0.435325,-1.1994125
35,1715699728.1517425,4.24393,-1.856682,1.450046,0.7156875,2.3464375,-5.979325
36,1715699728.1678748,4.4333334,-1.7637156,1.0901071,1.470975,2.6318874,-5.947425
37,1715699728.1834936,4.9733944,-1.7635016,0.67909783,2.5180376,2.87155,-6.3776627
38,1715699728.20451,4.739557,-1.7649388,0.42282873,3.846425,2.9387875,-7.4547
39,1715699728.2302377,4.0911317,-1.654633,-0.02977064,5.0087123,3.4841125,-8.764937
40,1715699728.2458923,3.4777827,-1.47237,-0.07859327,4.9416122,4.0902123,-9.0195875
41,1715699728.2615066,2.928945,-1.1282415,-0.39123854,4.4675126,4.299075,-8.9098625
42,1715699728.277005,2.733945,-1.0410857,-0.5599388,4.184125,4.3087,-8.867237
43,1715699728.2927492,2.9006116,-1.0149847,-1.0026453,2.84625,4.2959123,-8.598838
44,1715699728.3083854,3.2937768,-1.2261009,-0.7385321,1.957725,3.7024624,-8.910962
45,1715699728.330233,3.3816512,-1.5965291,-0.37461773,1.5571874,3.7717624,-9.590625
46,1715699728.345876,3.4595258,-1.7495412,0.054541286,1.7084374,3.7621374,-9.861088
47,1715699728.3613803,3.0761468,-1.861055,0.016009174,2.7897375,3.1571374,-10.499225
48,1715699728.3772247,2.7892966,-1.7237462,-0.52844036,3.1252375,2.8939624,-10.536488
49,1715699728.4022918,2.4239602,-1.6094801,-0.8144801,3.1295,1.9746375,-10.583375
50,1715699728.4223418,1.6218195,-1.025994,-1.6200765,1.689325,1.5709375,-9.401012
51,1715699728.4436786,1.7916361,-0.74628437,-1.7130429,0.9361,1.531475,-8.795875
52,1715699728.5482907,2.0153975,-0.5637156,-2.3220184,-2.4822874,-0.0482625,-4.445375
53,1715699728.5650823,0.3733945,-0.71039754,0.003058104,-2.003925,0.9455875,-4.2823
54,1715699728.5807962,-0.3051988,-0.6666667,0.55779815,-0.1524875,0.35433748,-3.515325
55,1715699728.5963342,-0.12365443,-1.0032569,-0.78909785,3.6940749,-3.426225,-1.7215
56,1715699728.6148777,0.9006116,-1.2119267,-3.4680886,1.9289875,-3.206775,-1.9025875
57,1715699728.6306403,0.93230885,-1.3696177,-4.2961316,-0.39435,-2.229975,-2.201925
58,1715699728.6474798,-0.10948012,-1.8545413,-2.9683027,-5.529975,-0.945175,-1.594725
59,1715699728.6646335,-0.028639143,-2.287263,-0.40122324,-6.4695125,-0.9090125,-1.338975
60,1715699728.6801367,0.03027523,-2.4085627,0.69785935,-5.4373,-1.5375249,-1.8332875
61,1715699728.6964417,-0.87339455,-2.8014219,0.70500004,-3.436675,-3.2184625,-2.7429874
62,1715699728.7121851,-2.0611622,-3.1509633,0.9277217,-4.0770125,-1.9551125,-1.947275
63,1715699728.7297943,-2.4109023,-3.303257,2.2393425,-4.2345877,-1.5736874,-1.373075
64,1715699728.7540627,-1.5996943,-3.5068347,3.2280276,-1.6300625,-1.88265,-0.99605
65,1715699728.7697415,-2.006315,-3.924572,2.233945,1.15885,-1.369225,-2.74725
66,1715699728.785187,-2.785321,-4.1010246,1.6362844,1.2813625,-0.9783125,-2.8293376
67,1715699728.8009422,-3.8972478,-4.484205,0.65126914,-0.5402375,0.960575,-0.90337497
68,1715699728.894523,0.91233945,-2.5842967,0.6082569,3.865675,2.53825,3.0988374
69,1715699728.9150774,2.7427063,-1.7864373,-0.012232416,5.1568,2.9653249,4.4218626
70,1715699728.932205,2.7427063,-1.7864373,-0.012232416,5.47635,2.8950624,4.6327877
71,1715699728.9478087,2.9828746,-1.4540213,-0.06769113,6.6748,3.221075,4.4218626
72,1715699728.9634953,3.0721712,-0.8316973,-1.9876605,6.6939125,3.9730625,4.13105
73,1715699728.9929967,1.5388379,-0.45555046,-2.2472937,2.1165376,5.4484377,6.1177874
74,1715699729.0031314,1.7001071,-0.5946942,-2.0735016,0.7007,5.7275624,7.210775
75,1715699729.0195286,2.0937767,-0.6559633,-1.8221254,-0.23567499,5.5017877,7.699725
76,1715699729.0352268,2.0488226,-0.9316973,-1.2093731,-1.57355,4.384325,8.397537
77,1715699729.051863,1.848211,-1.4916362,-1.3994954,-3.5805,4.15415,10.200988
78,1715699729.0674999,1.7466819,-1.787156,-1.3362844,-4.467925,4.1094623,10.825237
79,1715699729.0829782,1.8345567,-2.9269114,-0.80347097,-6.3790374,3.44905,12.553062
80,1715699729.0987365,2.1103976,-3.5658565,-0.4371101,-7.012775,3.1219375,13.329662
81,1715699729.1160269,4.0687003,-3.5336392,0.43088686,-6.894525,1.1906124,12.9439745
82,1715699729.1326375,3.67237,-3.299587,0.75932723,-5.7707376,0.1467125,10.9318
83,1715699729.147853,2.5494342,-3.003257,1.087156,-4.365625,0.3586,10.23825
84,1715699729.1641881,2.193578,-2.975734,1.0365902,-3.726525,0.1903,10.3884
85,1715699729.184382,2.8647246,-3.3928592,0.076039754,-2.1008625,-1.3968625,11.127737
86,1715699729.200059,2.8647246,-3.3928592,0.076039754,-1.9740875,-1.74735,10.663262
87,1715699729.2831762,4.275948,-2.44026,1.9755352,-5.834675,-1.639825,6.534275
88,1715699729.2993217,5.5745106,-1.330474,2.5827675,-3.9991875,-3.5583625,4.9130125
89,1715699729.3149025,5.9151835,-1.2731957,2.5077524,-3.6136374,-2.7231874,3.939375
90,1715699729.3322232,4.8721714,-1.8220184,2.311315,-3.2088375,-1.150875,2.0516374
91,1715699729.3477633,4.320994,-1.7122325,2.7428136,-3.2088375,-1.496,1.87055
92,1715699729.3634403,4.669113,-1.5501529,2.9090672,-3.0745,-1.5310625,2.2860749
93,1715699729.3790786,5.181147,-1.0006117,3.7085626,-3.1821625,1.7392375,2.0933
94,1715699729.394625,5.671147,-1.3005046,4.0536237,-2.4226124,2.33585,1.677775
95,1715699729.4132233,5.956468,-1.8413914,4.102752,-0.033275,1.7796625,-0.0884125
96,1715699729.4322233,4.9685016,-2.1148777,2.6456728,3.01235,1.1149875,-2.114475
97,1715699729.4554484,4.2236543,-2.0061162,1.4708409,3.5333376,1.1565125,-2.7676
98,1715699729.472064,3.824358,-1.6924617,0.7669725,2.8045876,1.9405375,-3.0211499
99,1715699729.4876792,3.7328289,-1.5469878,0.8069266,2.462625,2.1078749,-3.1851876
100,1715699729.5031636,3.3140674,-0.9122324,0.7747248,1.9523625,2.207975,-4.088425
101,1715699729.5325334,2.528945,-0.87166667,1.0195719,2.1250625,2.3868625,-5.4872127
102,1715699729.5441475,2.440061,-0.954633,0.95585626,2.2229624,2.5584624,-5.5884123
103,1715699729.5686526,2.2941895,-1.1713609,0.62120795,2.5788126,3.3743875,-5.7684
104,1715699729.6483195,2.2050917,-1.3908257,0.5873548,2.5788126,3.3743875,-5.7684
105,1715699729.6737554,2.3670795,-2.82763,-0.62752295,6.7067,3.3765874,-6.720725
106,1715699729.6918862,2.1086698,-2.7943883,-0.5067278,6.369,3.7398624,-6.1518874
107,1715699729.7090025,2.738532,-2.769526,-0.24311928,5.9951377,4.955225,-5.4775877
108,1715699729.7475083,2.785734,-2.785627,-0.02324159,7.5823,1.044725,-6.7494626
109,1715699729.7711897,1.7694191,-2.711422,0.078899086,7.8326874,0.1029875,-6.6132
110,1715699729.7868018,0.95698774,-2.4780886,0.2119266,8.211912,-1.0591625,-5.6703625
111,1715699729.8025563,2.7050917,-2.1027522,-0.9350612,7.9413123,-1.838925,-5.0972624
112,1715699729.8215637,3.1397552,-1.7805351,-1.37237,5.84815,-3.156725,-7.2331877
113,1715699729.8375046,2.4730887,-1.7423089,-0.9823701,3.7824874,-3.6712499,-8.3762245
114,1715699729.8531008,1.5805352,-1.6672783,-0.87737,3.057175,-3.40175,-8.006488
115,1715699729.868833,1.1075382,-1.4799236,-1.1124312,2.4904,-3.444375,-7.3833375
116,1715699729.8862476,0.99571866,-1.1030581,-1.998578,-0.5435375,-4.4680624,-5.632
117,1715699729.9019983,1.111208,-1.0932722,-1.3977523,-1.7078875,-4.065325,-5.643825
118,1715699729.917618,1.1475995,-1.5589144,-0.916208,-1.7727875,-3.6477375,-5.9932127
119,1715699729.9344153,-0.39602447,-2.0577981,-2.014266,-2.8359375,-3.799125,-6.42565
120,1715699729.950718,-1.2977523,-2.1627982,-2.009373,-4.8951373,-3.307975,-5.8834877
121,1715699730.0542743,-2.183991,-3.4457645,1.1640214,1.1375375,-0.3837625,0.45485
122,1715699730.0689282,-1.2628899,-3.3335319,1.2053058,1.5593874,0.3597,-0.11825
123,1715699730.076924,-1.5030581,-3.3645258,1.1635016,2.1452749,0.8668,-0.71802497
124,1715699730.1013567,-2.3167126,-3.7022476,-0.059128445,4.7487,0.8977375,-1.0652125
125,1715699730.1185205,-2.1204891,-3.8851223,-1.4667736,5.5540376,1.7136625,1.173975
126,1715699730.1355426,-1.204786,-3.6427064,-2.507951,3.5024,1.363175,3.6741376
127,1715699730.1522105,-0.34545872,-2.987156,-2.4095871,0.1500125,1.3088624,5.4082875
128,1715699730.1678948,-0.030382263,-2.7401683,-1.719159,-0.9301875,0.9956375,6.3031373
129,1715699730.1836264,0.4373089,-2.446376,-0.64506114,-1.6556375,0.13915,7.64225
130,1715699730.20527,1.4238532,-2.5874617,-0.24414372,-1.826,0.47795,8.858712
131,1715699730.226906,3.0001988,-2.0651376,0.13363914,-2.6494875,4.82955,8.521012
132,1715699730.2431293,3.0763457,-1.8991896,0.24587157,-2.427975,3.78345,8.058738
133,1715699730.2586162,3.1666665,-1.7575994,0.38134557,-2.0317,2.6426125,7.6687875
134,1715699730.2742653,2.8916361,-1.5424006,0.21681957,-0.5786,0.9733625,6.5428
135,1715699730.2901852,2.1496484,-1.6971407,-0.27431193,-0.201575,0.81455,6.7761374
136,1715699730.3058648,1.9290521,-1.8291591,-0.54750764,-0.4668125,1.1501875,7.1820374
137,1715699730.3350635,1.5686086,-2.6160092,-0.7390367,-2.0263374,1.989625,8.882225
138,1715699730.4298887,2.8181498,-3.0196788,1.3702294,-4.080175,-2.6837249,7.60815
139,1715699730.4488456,2.3575995,-3.135581,0.5050917,-2.7603126,-3.3847,7.37055
140,1715699730.4645805,2.5750306,-3.2539296,-0.30703363,-4.196225,-2.245925,7.5538373
141,1715699730.480084,2.6184556,-3.321101,-0.25974005,-5.38725,-1.5279,7.6709876
142,1715699730.4986641,2.947202,-3.2050917,0.18704893,-6.913775,-0.9761125,7.7221375
143,1715699730.5196583,3.5864375,-2.7123394,0.91804284,-8.31985,-0.85676247,6.0677376
144,1715699730.5352993,3.493685,-2.8268044,1.5090673,-8.3391,-0.4519625,4.994
145,1715699730.5527053,2.887156,-3.583379,2.2405658,-7.34415,-1.0773125,4.0363126
146,1715699730.568462,2.8928595,-3.467997,2.208058,-5.9401374,-3.1428375,4.7510376
147,1715699730.595337,5.7971406,-2.348211,1.1586086,-6.40035,-2.1234124,4.57325
148,1715699730.6109543,6.738945,-2.5598319,1.5508715,-7.7978997,-1.081575,3.4524875
149,1715699730.6361403,6.7426143,-2.8700306,3.3915446,-7.98325,-0.26345,2.000625
150,1715699730.651849,5.086437,-1.2612691,5.8628902,-3.8542626,-2.0222125,2.590775
151,1715699730.6742232,7.9916363,-1.3588226,6.507447,-3.2779999,2.8631625,2.1795125
152,1715699730.6897867,7.9916363,-1.240474,7.514878,4.4152627,5.159825,-4.071375
153,1715699730.706787,4.812538,-3.5107036,3.5179358,11.253275,1.076625,-6.8497
154,1715699730.8093374,2.32763,-0.49316514,-0.12181956,2.4679875,1.4399,-5.8045626
155,1715699730.8359601,2.6101987,-0.7879664,0.45331803,1.0938125,2.039675,-6.5418377
156,1715699730.8517532,2.6658564,-1.3285474,0.7850153,1.1779625,3.465,-6.486425
157,1715699730.8672407,2.8447554,-1.4254893,1.0251836,2.3849375,4.046625,-6.1870875
158,1715699730.882995,3.5019422,-1.5721712,1.0500458,3.086875,3.977325,-6.2764626
159,1715699730.9366522,3.337003,-2.4700305,-0.34117737,5.40925,2.4209626,-9.034437
160,1715699730.9531825,3.2764528,-2.4868503,-0.29001528,5.4038873,2.33475,-9.004738
161,1715699730.9687233,3.398777,-2.3912387,-0.14159021,5.721375,1.2354375,-9.000475
162,1715699731.0150523,2.238731,-2.112951,-0.788578,4.726425,-0.53405,-9.66625
163,1715699731.0367582,1.4984709,-1.8172325,-0.6364985,3.711125,-1.0773125,-8.741563
164,1715699731.0532877,0.80764526,-1.4510703,-0.21548928,2.7897375,-1.8314999,-6.8773375
165,1715699731.0688887,0.95790523,-1.1489297,-0.0041743116,3.2434876,-3.3517,-4.77455
166,1715699731.0843961,1.6281346,-1.0074465,-0.6690061,3.3724625,-3.5572624,-4.4889627
167,1715699731.1918921,0.46911314,-0.8572936,-1.0245719,-1.5118124,-2.7423,-1.518
168,1715699731.2075088,0.30775228,-0.9591284,-1.985734,-2.3108249,-2.6527874,-2.1124125
169,1715699731.2374184,-0.6248777,-2.5680888,-1.2745107,-8.585225,-0.36781248,-4.1332498
170,1715699731.2537339,-2.1715596,-3.9668653,2.276957,-9.894362,0.9147875,-5.4286375
171,1715699731.2693343,-3.2963302,-4.269725,4.2816515,-9.152963,0.9722625,-5.6991
172,1715699731.285956,-5.6857343,-4.522829,5.283991,-0.250525,-1.6952375,-4.3047123
173,1715699731.3155704,-4.865642,-4.3266053,1.5442355,1.555125,-0.2272875,-1.1152625
174,1715699731.3351212,-1.9720643,-3.0704434,1.9848164,0.9191875,1.0404625,0.8789
175,1715699731.3510237,-1.9720643,-3.0704434,1.9848164,2.2400124,0.8306375,1.0674125
176,1715699731.3665135,-0.94077986,-2.7655504,0.96707946,3.8369374,0.9466875,0.616825
177,1715699731.3893938,-1.0752293,-2.6745107,-0.2733945,3.746325,2.0354125,1.8077124
178,1715699731.419394,-0.16605504,-2.5327218,-1.1045872,2.54265,1.52625,3.601675
179,1715699731.4391048,0.0005045872,-2.096636,-0.934052,1.35905,1.785025,4.7947626
180,1715699731.454595,0.61967885,-1.9504588,-0.7266055,-0.0342375,1.7051375,6.199875
181,1715699731.5595422,3.088792,-1.4953059,-1.2088685,-1.27325,3.7802875,8.242988
182,1715699731.585283,2.9833791,-2.0262997,-0.5557645,-3.424025,4.0594125,8.035225
183,1715699731.6016018,2.022737,-2.456575,1.1456728,-1.8079875,3.3936374,9.168775
184,1715699731.6171987,2.2716668,-2.424159,0.69347095,-1.2582625,2.3975875,9.180463
185,1715699731.6427858,2.351483,-2.5703366,-0.10622324,-1.7290624,0.488675,8.602
186,1715699731.660447,2.348517,-2.6979663,0.0050000004,-2.9605124,-0.237875,7.9468126
187,1715699731.6840398,2.156988,-2.7065291,0.5289449,-2.898775,-1.2200375,7.9288
188,1715699731.6997,2.7153976,-2.8311927,0.24006115,-2.9403,-1.4917375,8.426275
189,1715699731.7212217,2.9799235,-2.8302753,0.16605504,-3.4431374,-0.9207,8.555113
190,1715699731.7390118,3.1220183,-2.7609632,0.5079511,-4.84715,0.771925,8.563638
191,1715699731.755303,3.3992813,-2.4458716,0.9201835,-5.0975375,0.81785,8.034263
192,1715699731.7718723,3.6413918,-1.8484251,1.0705352,-4.4477124,-1.672825,6.631212
193,1715699731.7925434,3.0898013,-1.1198776,1.5151834,-3.3345125,-3.543375,6.1455626
194,1715699731.812203,2.9284403,-0.87931186,0.9397554,-3.202375,-1.420375,6.76335
195,1715699731.8390298,4.840872,-1.707844,0.065550454,-5.211525,2.342175,6.5129623
196,1715699731.8547716,5.1316056,-2.0936852,-0.20336393,-7.453875,1.9427375,4.966225
197,1715699731.9564445,5.103976,-1.591942,5.1604433,3.171025,4.617525,-3.2159874
198,1715699731.9722555,3.9,-1.8447554,3.7542355,5.17165,3.3627,-3.5430999
199,1715699732.0020912,2.522324,-0.9092814,-0.79958713,3.1689625,3.2168124,-2.31055
200,1715699732.0177124,2.2217126,-0.5798165,-0.43516818,1.386825,2.8843374,-2.1283624
201,1715699732.0381138,1.5175382,-0.28888378,2.0109022,1.2205875,0.8625375,-2.757975
202,1715699732.0659528,1.121208,-0.52905196,2.343318,3.171025,-0.2591875,-3.211725
203,1715699732.0814748,1.1558563,-0.6549388,2.2571867,4.7444377,0.318175,-3.5644126
204,1715699732.0971909,2.1804283,-1.2992814,1.4197707,5.0556,0.7847125,-3.9276874
205,1715699732.1231432,2.5154893,-1.6831805,0.8979664,5.8246374,1.0703,-5.11225
206,1715699732.151921,2.993379,-1.8615749,0.6775688,6.4563127,0.064625,-6.9433374
207,1715699732.167529,3.1295564,-2.0588226,0.21712539,6.15175,0.4598,-7.6943626
208,1715699732.1849508,3.2264066,-2.314786,0.035779815,5.769225,0.8465875,-8.018175
209,1715699732.2014213,3.2904127,-2.4892967,0.06483181,5.350675,1.3077625,-8.192938
210,1715699732.2401967,3.5554588,-3.255153,0.5409786,6.0036626,0.561,-9.304075
211,1715699732.3245187,1.8175383,-1.7365903,-1.7352751,-0.22605,-0.813175,-7.8222375
212,1715699732.3403308,1.7745107,-1.4055046,-1.546896,-1.4586,-1.064525,-6.908275
213,1715699732.3558254,1.843318,-1.398364,-1.3769572,-1.602425,-1.384075,-6.738875
214,1715699732.3715632,1.5514832,-1.566055,-1.3830733,-1.701425,-2.42275,-6.453425
215,1715699732.3870602,1.2312998,-1.6253823,-1.1634098,-1.8420875,-2.6006749,-6.0944123
216,1715699732.4156237,0.5111162,-1.4003057,-0.73680425,-1.0632875,-2.15435,-4.0255876
217,1715699732.4411068,1.7020336,-1.2201835,-3.020994,-1.47345,-1.24355,-3.6207874
218,1715699732.4573002,1.7335321,-1.6668656,-3.676254,-3.8596249,-1.2370875,-4.7905
219,1715699732.4730852,-0.66493887,-2.811208,-1.3576912,-7.555075,-0.9164375,-5.8312373
220,1715699732.4988291,-2.6745107,-3.2383332,2.075841,-6.390725,0.6249375,-3.4291124
221,1715699732.5147746,-3.3876605,-3.7930734,2.9229357,-5.125175,0.3832125,-4.1045127
222,1715699732.5408914,-6.1393423,-4.627722,4.08104,0.439725,0.0540375,-3.7103
223,1715699732.5591478,-6.056376,-4.8202906,2.7914374,2.8952,1.1224124,-1.594725
224,1715699732.5750716,-5.265948,-4.670948,1.8771713,3.6334374,1.9735374,-0.1491875
225,1715699732.590813,-2.3030581,-3.9568808,-0.16769113,4.2161627,2.26545,1.760825
226,1715699732.6063886,-0.81284404,-3.4111161,-0.94912845,3.8784626,2.442275,1.90465
227,1715699732.7117522,3.194694,-3.1733947,-2.5520947,5.2707872,4.2596126,8.116213
228,1715699732.7255847,2.7622783,-2.5762537,-2.4842966,4.3151627,3.6375625,7.819075
229,1715699732.7336051,2.7622783,-2.5762537,-2.4842966,3.7357376,2.511575,7.849875
230,1715699732.749157,2.3780887,-2.2738073,-2.072783,2.819575,1.651925,8.319713
231,1715699732.7654233,2.1081498,-2.2720642,-1.8892967,1.2057375,2.2506,9.826025
232,1715699732.781838,2.4500458,-2.5092814,-1.069526,-0.29425,2.5339875,11.040425
233,1715699732.797482,2.641483,-2.7602446,-0.45198774,-0.8023125,2.7278626,11.41855
234,1715699732.81294,3.0534098,-3.2087615,0.16972478,-1.0197,3.37865,11.7403
235,1715699732.8373718,3.7084556,-3.0093732,-0.11151376,-2.6261125,6.307125,10.463062
236,1715699732.853301,3.2195718,-3.0725842,0.3312997,-4.37525,6.1644,8.882225
237,1715699732.8804543,2.856162,-2.8771713,1.0712539,-2.65595,1.2566125,8.696875
238,1715699732.8960464,2.9501529,-2.6974466,0.7318043,-2.1542125,0.301125,8.346388
239,1715699732.911387,2.4561622,-2.5335321,0.14189602,-2.1349626,-0.1793,7.6923
240,1715699732.9265785,1.7025535,-2.7326148,0.19490826,-2.8007374,0.4896375,7.6517377
241,1715699732.9442444,1.6971407,-2.901728,0.38154435,-3.810675,1.5794625,8.0982
242,1715699732.959675,2.283899,-2.8602448,0.4953058,-4.0066123,2.0482,7.9256372
243,1715699732.9760885,2.2863455,-2.730688,0.340367,-4.282575,2.1173625,7.192625
244,1715699732.9917264,2.225795,-2.7233486,0.335474,-4.3635626,2.124925,7.070112
245,1715699733.0893342,3.2183487,-2.947202,3.1467888,-6.93825,3.6236749,4.394225
246,1715699733.1050298,4.372783,-3.1277218,2.3071406,-3.9736125,-0.957,2.641925
247,1715699733.120678,4.926101,-3.6363914,1.2958257,-3.2566874,-5.198875,1.8247625
248,1715699733.1553118,6.0865445,-2.7373087,0.916315,-7.1460123,-1.032625,4.6924624
249,1715699733.1822283,5.2599387,-2.3975534,7.9622784,1.1023375,5.2716126,-3.0146875
250,1715699733.2066388,3.2525992,-3.7911315,3.8613608,10.512837,-1.7942375,-4.2717123
251,1715699733.2224054,2.4491284,-2.6877675,-0.27237004,10.885737,-2.7124624,-4.9907
252,1715699733.24284,2.1567738,-1.9697249,-1.9740062,8.178912,-0.8067125,-4.6743126
253,1715699733.2547534,1.8909327,-0.6256881,-1.2862386,1.7095375,2.0493,-3.7219875
254,1715699733.2655315,1.9171255,-0.524159,-0.45596328,-0.083325,2.8257625,-3.6155624
255,1715699733.296122,2.4591286,-1.4120337,3.143318,3.0859125,1.8415375,-5.0131125
256,1715699733.3119092,2.8730886,-1.7507646,2.3587158,4.976675,1.86285,-5.724675
257,1715699733.3428326,3.035581,-2.3284404,-0.07859327,5.6755877,2.529725,-6.9987497
258,1715699733.361967,3.1278288,-2.2111163,-0.51478595,4.8200626,2.9877374,-7.0200624
259,1715699733.3775637,3.1278288,-2.2111163,-0.51478595,4.624125,3.1145124,-7.0424747
260,1715699733.4644253,3.5622785,-2.6108103,-1.3608563,4.0766,2.5317874,-10.77615
261,1715699733.4819403,2.859633,-2.393165,-1.2515749,2.6789124,3.17515,-9.9198
262,1715699733.5129938,2.822737,-2.2408714,-1.2638073,2.6789124,3.17515,-9.9198
263,1715699733.5431073,2.1479053,-1.658104,-1.1264068,0.7657375,0.9818875,-7.2054124
264,1715699733.559478,2.1169267,-1.5738991,-1.0228288,0.0243375,1.5442625,-6.975375
265,1715699733.5749671,1.5763456,-1.4398624,-0.43588683,0.0743875,1.3866875,-6.7590876
266,1715699733.5906234,1.4755352,-1.3937768,-0.39735472,0.4514125,0.808225,-6.4043374
267,1715699733.6129677,1.2437309,-1.298578,-0.6094801,1.79685,-1.1347874,-4.8299623
268,1715699733.6435163,2.5902143,-0.8252752,-1.3508716,1.3569875,-0.70235,-4.596625
269,1715699733.659134,2.3651376,-0.6911315,-0.8864373,1.1396,-0.4690125,-5.269825
270,1715699733.6804862,0.5123394,-0.569526,-0.2733945,1.403875,-0.5286875,-5.8334374
271,1715699733.7076652,-1.4068348,-2.5244648,-3.1598318,-5.1188498,-0.7140375,-3.4216874
272,1715699733.7281115,-4.329251,-4.460551,1.9579052,-6.475975,-0.46475,-3.851925
273,1715699733.7438173,-6.775428,-4.925994,5.1472936,-6.5558624,-0.7673875,-4.359025
274,1715699733.7595623,-7.675535,-5.00948,6.9203825,-3.0446625,-1.2018875,-2.6258376
275,1715699733.8321047,-1.2441437,-3.5519876,0.9199847,5.7171125,2.9376874,0.6040375
276,1715699733.8500626,-2.3145719,-3.177569,-1.8185474,2.618275,1.244925,-0.7786625
277,1715699733.8754883,-2.1327217,-3.7769573,0.5035627,3.4150875,-0.2347125,3.1371999
278,1715699733.8929522,-0.83802754,-3.6954129,-0.40733945,5.030025,-0.001375,5.842925
279,1715699733.9082642,0.31314984,-3.4040825,-1.1068349,4.7284875,1.08735,6.571675
280,1715699733.9248517,2.288792,-2.6475077,-1.7970489,2.1484375,4.3076,6.993525
281,1715699733.9448202,2.7314985,-2.3441439,-0.14964832,-0.1632125,4.9424376,7.3577623
282,1715699733.9604511,2.954847,-2.0119267,1.2089756,1.90135,2.360325,6.6493626
283,1715699733.9760227,2.7575994,-2.0446482,1.071055,3.0581374,1.6113625,6.52905
284,1715699734.0029478,2.4171255,-2.1166208,-0.74047405,4.0871873,1.7381375,6.9636874
285,1715699734.0185587,2.3978593,-2.1898012,-1.1209939,2.077075,3.555475,8.229238
286,1715699734.0450504,2.4174314,-2.6128442,-0.39347094,-0.941875,6.01095,10.111475
287,1715699734.0606596,2.709786,-2.937202,-0.11448013,-2.580325,6.865237,10.98075
288,1715699734.076134,2.853012,-3.246896,0.35126913,-3.3270874,6.171825,11.087313
289,1715699734.0919306,3.078792,-3.2922478,0.51946485,-3.792525,3.75045,10.888075
290,1715699734.1075506,3.2888837,-3.2787921,0.5377217,-3.3930874,1.1246125,9.876075
291,1715699734.124838,3.0326147,-3.2422018,0.4216055,-3.1565876,0.4758875,9.540575
292,1715699734.2297752,2.2506576,-2.976957,2.0221255,-4.51055,-1.2200375,6.3309126
293,1715699734.2538602,2.4552445,-2.5061162,0.32446483,-3.3845625,-0.0664125,5.981525
294,1715699734.269506,2.8752294,-2.111315,-0.21334863,-5.38835,1.6093,5.219775
295,1715699734.286339,3.055153,-2.2447555,0.14556575,-6.09345,1.5390375,4.7020874
296,1715699734.3010726,2.7173243,-2.6364985,1.9032568,-5.6269126,-0.7151375,3.734775
297,1715699734.309258,2.5657494,-2.2008104,3.1802294,-3.0894876,-3.1471,4.4303875
298,1715699734.3173578,3.5318046,-2.098578,2.4175382,-0.792825,-3.9631624,4.9790125
299,1715699734.3458633,6.2866516,-1.6790061,-0.7905199,-0.5126,-4.3637,4.8181376
300,1715699734.3629544,7.9916363,-2.1005046,-1.0914373,-5.9219875,-0.89402497,3.6784
301,1715699734.3784397,6.998364,-1.5074465,0.3356728,-7.605125,0.3213375,4.682975
302,1715699734.3941221,7.9916363,-2.185734,5.722324,-10.390738,9.764975,1.2931875
303,1715699734.4098127,3.9234405,-3.5394495,7.9622784,3.7175875,6.4700623,-3.8935876
304,1715699734.4302754,3.788991,-4.9398623,2.9475994,11.205287,-0.3262875,-4.1427374
305,1715699734.4460073,3.043425,-3.2521865,-3.017844,13.669288,-4.5607376,-5.8227124
306,1715699734.4617217,2.233639,-2.230168,-3.854633,6.3743625,-0.187825,-5.707625
307,1715699734.4791954,1.6886849,-1.4247706,-2.886743,2.665025,0.5322625,-5.0578
308,1715699734.4946806,1.5005046,-0.777263,-0.6280275,-0.7948875,1.6124625,-4.0948873
309,1715699734.5218298,1.887049,-0.9207951,1.2445413,-1.2551,2.243175,-4.2950873
310,1715699734.6067398,3.3477066,-1.6798165,-0.13129969,3.3020625,1.532575,-7.64225
311,1715699734.6223388,3.8847094,-1.7647247,0.5690061,3.1604376,1.6412,-8.522113
312,1715699734.6466744,4.064526,-2.2508717,1.3472936,5.7085876,0.88385,-10.950912
313,1715699734.6623836,3.7879663,-2.7894955,0.311315,6.27,0.4555375,-11.415387
314,1715699734.681495,3.4467888,-2.878792,-0.81743115,6.1549125,0.14245,-11.615587
315,1715699734.6969962,3.3513763,-2.8043883,-1.2041743,4.7199626,-0.271975,-11.55385
316,1715699734.7132003,2.7668655,-2.6118197,-1.2349694,2.91225,-0.0419375,-11.14905
317,1715699734.7287805,2.419373,-2.4747248,-1.1173242,2.230525,-0.0493625,-10.716613
318,1715699734.747085,2.0717585,-2.1778746,-0.70611626,1.35795,-0.4701125,-9.852563
319,1715699734.7625675,1.5243578,-1.880841,-0.35392967,1.2984124,-1.6066875,-8.930075
320,1715699734.7815762,1.0311927,-1.6658562,-0.6165138,1.0278125,-2.3343375,-7.6219
321,1715699734.7971938,0.82293576,-1.535581,-0.677263,0.6793875,-2.4003375,-6.7271876
322,1715699734.8167832,0.9804281,-1.2733945,-0.7946942,0.2330625,-2.01795,-5.2410874
323,1715699734.833952,1.2778746,-1.0860398,-1.0175383,-0.35915,-1.9998,-3.7827625
324,1715699734.8456917,1.4480122,-0.9593272,-0.83058107,-0.333575,-2.6294124,-2.9794874
325,1715699734.8819256,1.5161009,-0.79918957,-0.72365445,-0.333575,-2.6294124,-2.9794874
326,1715699734.899429,1.3799235,-0.37573397,-0.94770646,0.07755,-2.5515876,-2.4351249
327,1715699734.9879632,-5.7657495,-3.9878747,6.6311927,-7.5007625,-0.9079125,-5.88445
328,1715699735.0039446,-6.391743,-4.3810396,5.635168,-1.2199,-0.2432375,-4.260025
329,1715699735.0194554,-6.114786,-4.673394,4.1505656,0.5016,-0.6171,-3.49195
330,1715699735.048516,-4.4936852,-4.2380276,2.8524008,2.835525,1.4185874,0.97473747
331,1715699735.0646648,-2.0672784,-3.6217127,2.15026,3.9083,0.9563125,1.071675
332,1715699735.0804493,-0.59999996,-3.2446485,-0.21701835,6.176225,0.17435,0.59125
333,1715699735.0960727,-0.5302752,-3.238838,-1.4089756,5.8491125,-0.169675,0.5379
334,1715699735.1117094,-0.5854281,-3.067477,-2.158517,3.8773625,-0.474375,0.96305
335,1715699735.1270359,-0.5338379,-3.04526,-0.85493886,1.7084374,0.0028875,1.8673875
336,1715699735.155984,-0.15535168,-3.0652447,0.1733945,0.3768875,2.3549626,4.4229627
337,1715699735.173447,0.55137616,-3.2514832,0.65738535,0.2256375,4.1393,5.707625
338,1715699735.1942737,0.9169266,-3.3650305,0.9306881,1.065075,4.047725,6.8250875
339,1715699735.209954,2.178486,-3.2416973,0.8296636,3.4139874,2.848175,7.5889
340,1715699735.2254364,2.948425,-2.9105964,-0.47492358,4.641175,2.174975,7.9085875
341,1715699735.248942,4.025275,-2.301422,-1.7781804,4.0541873,2.7416124,8.426275
342,1715699735.265748,4.158303,-2.0541284,-1.8434252,2.868525,3.34565,8.327137
343,1715699735.3668954,2.896743,-2.603058,-0.48399082,-1.4777125,1.65825,10.0880995
344,1715699735.3760524,2.6775687,-2.8010247,-0.52212536,-2.3288374,1.954425,10.658037
345,1715699735.3993979,3.3331347,-3.5028594,-0.012737003,-5.2679,3.14325,11.838338
346,1715699735.4229093,4.601942,-3.3608563,0.68276757,-5.9401374,2.2207625,9.93575
347,1715699735.4495885,3.3706422,-2.6105964,1.3536239,-2.5642376,-1.7334625,6.96795
348,1715699735.4722104,3.008257,-2.3436239,-0.11356269,-2.4002,-1.401125,6.83265
349,1715699735.4878335,2.9021406,-2.2825687,-0.7031651,-3.59755,-0.729025,6.9636874
350,1715699735.5109725,3.257905,-2.55474,-0.5216055,-6.9680877,1.380225,7.0030127
351,1715699735.526586,3.4634097,-2.7667737,-0.25290522,-7.6253376,1.8489625,6.8560247
352,1715699735.550097,3.711621,-2.9545412,1.6221254,-7.993975,0.737825,5.9398623
353,1715699735.5695903,4.756468,-1.1948012,0.70662075,-1.9453499,-2.9233875,5.1473126
354,1715699735.5853124,6.57737,-0.9297707,-1.1624924,-3.3834624,-2.7295125,6.8283873
355,1715699735.611441,7.9916363,-3.5570796,-5.9994955,-6.7423124,-0.9601625,17.874037
356,1715699735.6346378,3.2216055,-4.2933793,7.9622784,-12.26665,13.046963,-6.180625
357,1715699735.6525517,0.7,-4.4204893,7.9622784,6.9016747,2.325125,-4.1300874
358,1715699735.754304,4.4130425,-0.9635015,3.3542356,7.5439377,-1.368125,-3.449325
359,1715699735.7698138,4.627324,-1.4576911,1.1691132,8.920313,-2.12025,-5.6395626
360,1715699735.7855372,2.7876606,-2.0700307,-0.5547401,8.5305,-1.6952375,-9.8536625
361,1715699735.8010337,2.0261927,-2.1535168,-1.4016361,7.1083374,-0.777975,-9.73225
362,1715699735.8168046,1.6603518,-1.9294648,-1.6454587,4.1298122,0.5941375,-8.807563
363,1715699735.8324385,2.7654436,-1.5184556,0.27370033,1.15555,1.0553125,-7.496225
364,1715699735.853222,3.6293576,-1.6688073,0.8377217,2.16975,0.486475,-8.791613
365,1715699735.8688512,3.4709482,-2.1866515,0.28857797,3.3798876,0.031625,-10.718675
366,1715699735.884475,3.0600457,-2.3606575,-0.06911315,3.4736624,0.2638625,-11.042487
367,1715699735.900021,2.6262999,-2.4639144,-0.42324162,3.0293999,0.519475,-10.453438
368,1715699735.9115753,2.342003,-2.248425,-0.61723244,2.8153124,0.18933749,-9.988962
369,1715699735.9335203,2.680535,-2.1000001,-0.8024465,2.1868,-0.6831,-9.584163
370,1715699735.9508708,2.7439296,-2.0427065,-0.74464834,1.519925,-1.3607,-9.62885
371,1715699735.966474,2.6331346,-1.9790062,-0.5545413,1.218525,-1.64505,-9.755625
372,1715699735.9820688,2.0318043,-1.8745106,-0.5035627,0.78705,-1.0208,-9.4116
373,1715699735.997682,1.8636086,-1.8218197,-0.44230887,0.82115,-1.501225,-8.593475
374,1715699736.013381,1.5119267,-1.4550459,-0.42201838,0.90956247,-1.9082249,-7.903225
375,1715699736.0290108,1.6834863,-1.1692202,-0.66585624,0.5303375,-2.0222125,-6.9987497
376,1715699736.11456,0.80662084,-0.84678894,-0.7878746,0.813725,-3.6009874,-3.482325
377,1715699736.1335294,1.3205963,-0.28818044,-0.7651376,0.658075,-3.8267624,-3.887125
378,1715699736.1513996,-1.3954129,-0.7128441,-3.19867,-1.30405,-3.2344124,-3.62835
379,1715699736.1741543,-2.4446483,-2.0180428,-1.8917431,-7.88425,-0.185625,-0.954525
380,1715699736.189606,-2.4998012,-2.4246638,-0.45860854,-9.02825,0.571725,-0.3696
381,1715699736.206931,-3.1809328,-3.7286394,2.2874618,-9.833588,-0.5542625,0.0873125
382,1715699736.2559986,-4.145153,-4.1901073,7.2295566,4.0254498,0.81785,-3.35775
383,1715699736.2717412,-3.0571866,-4.1022477,0.88582563,7.8315873,2.16645,-1.5873
384,1715699736.287221,-1.0108105,-3.2397554,-2.8989756,5.282475,3.119875,-0.7530875
385,1715699736.3119807,-2.0716667,-2.7077522,-2.1004128,1.1353375,1.69455,0.0011
386,1715699736.327566,-2.5329206,-2.7497401,-0.9135627,0.31625,0.9233125,1.1697125
387,1715699736.3477714,-1.4029511,-3.074312,1.1647248,1.4133625,-0.2677125,3.6326125
388,1715699736.3653858,0.20672783,-3.0938838,1.1496483,4.66675,-0.6873625,4.1844
389,1715699736.3845544,1.0440367,-2.7802293,-0.8475993,5.2674875,1.1809875,4.343075
390,1715699736.399882,1.2649388,-2.2923548,-0.8125382,3.309625,3.152875,4.7862372
391,1715699736.4972103,2.2441437,-1.6322172,-1.340367,2.81215,2.1855624,7.06695
392,1715699736.5148792,1.698364,-1.6539296,-1.3977523,0.88935,3.943225,8.024637
393,1715699736.531168,1.9275229,-2.306315,-0.8115138,-1.57465,6.1771874,9.981538
394,1715699736.552143,2.469419,-2.8946943,-0.6609633,-3.2896874,5.3068123,11.099
395,1715699736.5758793,3.2562692,-3.1084557,-0.43272173,-4.1259623,1.5933499,9.880338
396,1715699736.610396,2.4673853,-2.854633,0.8765597,-3.15975,0.9328,9.068538
397,1715699736.626005,2.619266,-2.9617739,0.43986237,-1.6482124,0.9200125,9.069637
398,1715699736.6486678,2.971361,-2.6116207,-0.49591744,-2.6687374,0.1445125,7.718975
399,1715699736.6650116,2.8022478,-2.4222171,-0.23241591,-3.0287125,-0.2239875,7.193725
400,1715699736.680621,2.3185475,-2.1988838,0.032828745,-3.09375,-0.5649875,6.6781
401,1715699736.6962066,2.2060091,-2.2328286,0.1387309,-3.068175,-0.80135,6.484225
402,1715699736.7113938,2.163104,-2.3308868,0.34617737,-2.85615,-1.1594,6.29145
403,1715699736.7266166,2.299801,-2.401728,0.2534098,-2.6708,-1.2456125,5.9026
404,1715699736.7753522,2.7212079,-2.6454587,-0.3329205,-3.537875,-1.8283374,6.2264123
405,1715699736.7909772,2.7212079,-2.6454587,-0.3329205,-3.9502375,-2.1734624,6.585425
406,1715699736.8066013,3.3359787,-2.8973548,-0.21142203,-4.6277,-2.01795,7.43985
407,1715699736.8685956,3.3359787,-2.8973548,-0.21142203,-5.1624374,-1.3745875,8.171625
408,1715699736.8925998,3.5470948,-7.9935784,0.2570795,22.14025,-8.024913,-11.399438
409,1715699736.9158707,0.5303823,-7.20867,-4.376254,17.761974,-3.2973876,-10.386337
410,1715699736.932978,-1.3698318,-1.6634097,-5.617936,-1.1187,6.8259125,0.6859875
411,1715699736.9528892,1.6552447,-1.000107,2.664939,-6.5718126,5.349437,3.0754626
412,1715699736.965809,2.207951,-0.84189606,5.2122326,-4.4721875,3.793075,2.3255374
413,1715699736.9745853,3.0266056,-0.91172785,5.7859325,1.9119375,1.4132249,0.473
414,1715699736.9983828,4.435474,-2.1491284,2.2571867,9.15255,-0.339075,-6.383025
415,1715699737.0312014,2.4459786,-3.2010245,-0.49938837,9.806638,-0.6895625,-10.404488
416,1715699737.0563595,1.1931651,-2.5088685,-1.5178441,5.788475,1.143725,-8.546587
417,1715699737.0719342,2.2670796,-1.5735933,-0.79418963,2.86,2.8939624,-6.8827
418,1715699737.0882123,2.8654435,-1.5162079,-0.4493425,2.3647249,3.270025,-6.96795
419,1715699737.1038249,3.2088685,-1.9755352,0.5623853,3.306325,2.7577,-8.826813
420,1715699737.1194413,3.2261925,-2.6909328,0.33833334,5.1236625,1.3333375,-10.227525
421,1715699737.1372826,2.7827678,-2.85026,0.14678898,5.60945,0.3320625,-10.785775
422,1715699737.1578698,2.0425076,-2.6933792,-0.68337923,5.5369873,-0.4093375,-10.451238
423,1715699737.1784523,1.9465902,-2.4009175,-1.1509633,4.6932874,-0.3166625,-9.940975
424,1715699737.2674751,1.5243578,-1.1721712,-1.5783945,1.5423375,-2.3087626,-6.992425
425,1715699737.283075,1.1577982,-1.0996941,-1.4980581,-0.8727125,-1.4724874,-5.8078623
426,1715699737.3020234,1.3342508,-1.0381193,-0.52405196,-1.365925,-1.5247375,-4.7788124
427,1715699737.3175516,1.6218195,-0.99521405,-0.04495413,-0.5402375,-2.297075,-4.6190376
428,1715699737.3332644,1.9239602,-0.83313453,0.09062692,1.1768625,-3.146,-5.1228375
429,1715699737.3488903,1.4296637,-0.72212535,-0.21478595,2.27205,-4.2752876,-5.8983374
430,1715699737.3671737,1.0975535,-0.60448015,-0.33363914,2.2539,-4.084575,-5.9728622
431,1715699737.3828993,-0.28715596,0.1169266,-1.3592203,1.689325,-2.69335,-5.61825
432,1715699737.3984146,-0.8926605,-0.05799694,-2.6910243,1.689325,-2.69335,-5.61825
433,1715699737.4150226,-2.7721713,-2.132003,-4.6983643,-7.7009625,-1.44485,-2.333925
434,1715699737.4306612,-2.8716667,-3.523853,-2.4232416,-7.7009625,-1.44485,-2.333925
435,1715699737.4672842,-5.486346,-4.1569877,7.9622784,-2.4652374,-0.2239875,-0.01595
436,1715699737.4824364,-4.451789,-4.0717583,6.736804,0.573925,0.0902,0.1214125
437,1715699737.4905257,-3.1650307,-3.5148778,4.248425,2.7130125,1.1820875,-0.2470875
438,1715699737.5396235,-1.9191589,-2.7900152,-1.7379206,1.621125,2.1621876,-1.93985
439,1715699737.6512885,2.2511773,-1.8571867,0.014785932,1.79685,1.617825,5.8067627
440,1715699737.672571,2.6795106,-1.5394496,0.116009176,3.4054625,1.5720375,5.2688622
441,1715699737.6933446,3.0702293,-1.0195719,-0.8005046,3.95835,2.23355,4.9801126
442,1715699737.7103887,2.9797094,-0.9420031,-1.0941895,3.5715625,2.7534375,4.799025
443,1715699737.7261784,2.3842049,-0.9046942,-1.4797095,2.176075,3.744125,4.9289627
444,1715699737.7445116,1.8663608,-1.2152905,-1.0809327,0.016775,3.979525,6.2723374
445,1715699737.7649477,1.7326146,-1.5531039,-0.5352753,-1.1422125,4.2064,7.5675874
446,1715699737.7853036,2.0976605,-2.2057033,-0.40172783,-1.9485124,3.1037874,9.9176
447,1715699737.805574,2.1013303,-2.3316972,-0.36616206,-2.208525,2.749175,10.30535
448,1715699737.827649,3.280428,-2.7989755,-0.8896024,-3.6838999,2.585,11.045788
449,1715699737.8437052,3.5942967,-3.0057032,-0.5972477,-4.5936,2.26435,10.598362
450,1715699737.85922,3.4995873,-2.7933793,0.8406728,-4.129125,0.4236375,9.374337
451,1715699737.8913562,3.2540214,-2.4815443,0.7120336,-0.9791375,-1.8858125,8.285612
452,1715699737.9076912,3.410199,-2.354633,0.28246176,-0.5743375,-1.958275,8.178087
453,1715699737.9236,3.3306882,-2.1834862,-0.6094801,-0.9856,-1.47895,8.005525
454,1715699737.9403398,3.0009174,-2.0780888,-0.83129966,-2.0923374,-0.616,8.18015
455,1715699738.0157514,4.633945,-0.61223245,-0.22629969,-2.82425,-0.63305,6.4288125
456,1715699738.0246303,4.633945,-0.61223245,-0.22629969,-3.7829,0.2553375,6.7783375
457,1715699738.0480018,6.173196,-0.48949543,0.21946482,-4.95055,-0.624525,6.3085
458,1715699738.0681221,4.793991,3.917324,2.4131498,-3.709475,-1.958275,10.623938
459,1715699738.083703,7.9916363,-0.46238533,-3.556682,-8.2922125,4.0486875,5.0568376
460,1715699738.0993013,4.383792,-3.1819572,7.9622784,-7.6753874,6.9867873,-5.3966
461,1715699738.122059,3.2764528,-3.1426148,3.0090673,8.066025,0.4002625,-2.0378876
462,1715699738.1454253,5.006116,-1.9802293,-1.924159,7.052925,2.0513625,-3.5633125
463,1715699738.1610475,3.269419,-1.1457645,-0.38298166,4.0797625,1.1917125,-4.982175
464,1715699738.17665,2.4689143,-1.0542355,0.10386851,3.7719,1.025475,-5.3945374
465,1715699738.2223423,1.8518807,-0.59663606,0.48409784,3.7357376,1.380225,-5.980425
466,1715699738.2378693,2.2882721,-0.719159,0.3906269,3.644025,1.3046,-6.251025
467,1715699738.2536004,2.6524007,-0.9883792,0.26269114,3.28295,1.474,-7.3833375
468,1715699738.2692437,2.3416972,-1.170948,0.2654434,3.01345,1.5943125,-8.01075
469,1715699738.2848272,2.2619724,-1.2846024,0.24414372,2.9313624,1.5698375,-8.11415
470,1715699738.3035264,2.4205964,-1.005,0.15240061,1.9630874,2.358125,-7.9959
471,1715699738.3960824,2.5579967,-1.6087615,-0.92059636,1.8172,1.52625,-9.770613
472,1715699738.4114451,2.203165,-1.6387309,-0.9779817,1.568875,1.28755,-9.301875
473,1715699738.4300413,2.2828746,-1.5900153,-1.2596331,0.8179875,0.674025,-8.624413
474,1715699738.450815,1.5819572,-1.5469878,-0.9692202,-0.4103,0.1274625,-8.312287
475,1715699738.4713202,0.74903667,-1.3659481,-0.412737,-0.5317125,-0.423225,-7.179837
476,1715699738.4918222,0.4437309,-1.0288532,-0.20061162,-0.09185,-1.1966625,-5.608625
477,1715699738.5123913,1.367477,-0.7205963,-1.035367,-0.1109625,-0.85676247,-4.2185
478,1715699738.5330174,1.8160092,-0.5844037,-0.5797095,-1.2892,-0.3081375,-4.2983875
479,1715699738.548594,1.0380275,-0.49123853,0.58073395,0.0488125,-1.1518375,-4.0895247
480,1715699738.5637674,0.79755354,-0.4016361,0.7923547,0.9010375,-1.3404875,-3.721025
481,1715699738.5841427,0.8097859,-0.38409784,0.5636086,3.863475,-2.7561874,-2.8560126
482,1715699738.6047304,1.1882722,-0.26738533,0.124357805,4.59855,-3.0822,-3.180925
483,1715699738.625233,0.76249236,0.016513761,-1.887049,5.536025,-2.4696374,-6.098675
484,1715699738.6457646,-3.324159,-1.0613608,-6.8751225,-1.146475,-1.890075,-5.2336626
485,1715699738.6652079,-4.021208,-3.4450612,-2.5809326,-14.064875,1.7637125,-0.5858875
486,1715699738.6873577,-4.877171,-4.5813456,5.1538224,-12.125025,-0.109037496,0.2055625
487,1715699738.7799335,-2.3023396,-2.5283334,-3.156468,1.690425,1.7105,-0.052249998
488,1715699738.798767,-2.230581,-2.7287462,-2.01763,-0.56485,1.6891875,1.06425
489,1715699738.8210156,-0.1919419,-3.2998013,1.1261927,1.5060375,0.7431875,4.2301874
490,1715699738.8414114,0.7119266,-2.6804283,0.05524465,1.9971875,2.0662124,4.8692875
491,1715699738.8618221,1.9010246,-2.2993884,-0.083792046,1.201475,2.6989875,5.27945
492,1715699738.8824606,2.164526,-1.9009174,1.0783944,2.4094124,1.8308125,4.7862372
493,1715699738.8990622,2.5211008,-1.6270183,0.47778288,3.930575,1.7445999,4.6019874
494,1715699738.914457,2.2679968,-1.4430122,-0.0041743116,4.304575,2.20055,4.8373876
495,1715699738.9392366,2.186743,-1.1294649,-1.3261926,3.01455,3.9656374,6.1285124
496,1715699738.9547849,2.3341436,-0.91417426,-1.622523,0.122237496,4.383225,6.8816
497,1715699738.9705343,1.6193731,-1.1216055,-1.0438379,-0.724625,4.212725,7.1627874
498,1715699738.9860754,1.5961314,-1.35026,-0.81784403,-2.293775,3.5693624,8.510425
499,1715699739.001649,1.8170184,-1.8638073,-0.81662077,-2.69005,3.2839124,9.0761
500,1715699739.0173478,2.3619726,-2.3860397,-0.44912842,-4.6894374,2.3964875,10.77835
501,1715699739.0358343,2.679312,-2.593471,-0.31926605,-5.0623374,2.2484,10.9318
502,1715699739.0657306,2.8198779,-2.656468,-0.116406724,-6.23095,2.1835,10.186
503,1715699739.1550972,2.8386393,-2.2989757,0.25148317,-4.1941624,-2.177725,7.10105
504,1715699739.1769865,2.848425,-2.1990826,0.06717125,-4.64475,-1.332925,7.0137377
505,1715699739.1932733,3.1229358,-2.0775688,0.1919419,-5.0719624,-0.97295,6.3767
506,1715699739.22195,3.5269115,-1.3735015,0.45259938,-4.3880377,-1.841125,4.4911623
507,1715699739.24346,3.3604434,-2.0050917,-0.16625382,-4.8993998,-1.4821125,3.9670124
508,1715699739.2590833,3.4024465,-2.9347553,1.1691132,-6.1116,-1.3809125,4.587
509,1715699739.2746718,6.7552447,-1.8591284,1.3082569,-5.765375,-2.3610125,5.8994374
510,1715699739.2907946,7.6749234,-1.5762539,0.9324159,-5.1518497,-2.8968499,4.6233
511,1715699739.3064597,5.9552445,-1.9811468,1.9804282,-6.493025,-1.9476875,3.08605
512,1715699739.322277,4.01763,-0.8416973,2.3377216,-8.921825,-1.0506375,5.2677627
513,1715699739.339522,7.9916363,-3.7118196,7.9622784,-12.720537,3.1847749,8.1653
514,1715699739.3555722,4.564633,-3.3110094,7.9622784,6.62255,2.020425,-1.3602875
515,1715699739.371611,4.6634097,-4.238945,7.3454585,6.62255,2.020425,-1.3602875
516,1715699739.3935835,2.938425,-4.164327,-1.8521866,14.578987,-2.0339,-5.98675
517,1715699739.4092357,1.2815443,-2.3009174,-2.8413916,8.64765,-0.1335125,-4.9311624
518,1715699739.4396906,1.2820642,-0.3587156,-0.37634555,1.4986125,1.96295,-3.0999374
519,1715699739.5450594,2.4269114,-1.87237,0.36524466,4.707175,4.1925125,-4.3302875
520,1715699739.561116,2.8860397,-1.7278287,0.0991896,4.8285875,3.8154874,-5.0323625
521,1715699739.5766308,3.0836852,-1.7183486,0.04475535,4.93405,3.6003,-5.3923373
522,1715699739.600976,3.0475078,-1.8554587,0.034755353,5.350675,2.5883,-6.7761374
523,1715699739.615465,2.9284403,-2.0778747,-0.026406728,5.8491125,1.8552874,-7.548475
524,1715699739.6236014,2.9069266,-2.1229358,-0.13720183,5.9184127,1.7540874,-7.714575
525,1715699739.6471934,2.9335322,-2.1454587,-0.5027523,5.8641,1.214125,-8.510425
526,1715699739.6627736,3.0688074,-2.1454587,-0.6060092,5.4135127,0.8221125,-9.3115
527,1715699739.6849718,2.5270183,-1.9960245,-0.8923548,4.977775,0.67925,-9.588425
528,1715699739.7015817,2.3729818,-1.6742048,-0.99235475,4.0968122,0.3224375,-9.213463
529,1715699739.7171457,2.000107,-1.3246636,-0.97013766,3.14985,-0.13035,-8.569
530,1715699739.7346177,2.2667737,-0.98521405,-0.9592202,2.955975,-0.609675,-8.362337
531,1715699739.7637002,1.5572937,-0.9164067,-0.9435321,2.2485375,-1.302125,-8.275988
532,1715699739.783257,1.3055046,-0.8348624,-0.83516824,2.1217625,-1.8176125,-7.9308624
533,1715699739.8062067,0.89744645,-0.70622325,-0.7082569,1.116225,-2.52175,-6.1752625
534,1715699739.8218455,1.3120337,-0.7218196,0.05087156,1.8107375,-3.2940874,-5.4637
535,1715699739.9319146,-0.9641132,-4.6618805,1.7588227,-14.4452,1.0234125,-0.5421625
536,1715699739.9494865,-2.5268042,-4.9879665,7.2913303,-7.925775,-0.3785375,-3.28955
537,1715699739.9650254,-4.851988,-4.330994,4.343119,1.1972125,0.44385,-3.0806875
538,1715699739.981292,-4.3364987,-4.0878744,2.7457645,5.2196374,1.3600125,-0.446325
539,1715699739.9968636,-2.5458715,-3.3629968,0.3246636,5.7256374,2.171675,1.0418375
540,1715699740.0125184,0.2157951,-2.3570795,-2.3827674,4.1234875,3.1304624,0.2993375
541,1715699740.0281556,-0.38818043,-2.2035627,-2.6155963,2.54155,2.494525,-1.1919875
542,1715699740.0713785,-1.656575,-2.8243577,0.35474008,0.172425,0.78155,3.6485624
543,1715699740.086917,-0.37940368,-2.7968347,-0.6751223,0.999075,0.5259375,5.51705
544,1715699740.1026034,0.3182416,-2.779006,-0.899893,0.220275,1.1192499,5.9569125
545,1715699740.1228323,0.42977065,-2.6305811,-0.177263,-1.47565,2.2474375,5.9676375
546,1715699740.1404696,0.6142661,-2.6212997,0.62313455,-0.657525,1.3355374,6.76225
547,1715699740.164987,1.4926605,-2.565948,0.14506117,1.0278125,0.80396247,7.0360126
548,1715699740.1806462,1.7310857,-2.3240519,-0.8202905,1.687125,0.3480125,6.6675124
549,1715699740.1961265,1.5883793,-2.1540215,-1.4905199,1.5475625,0.4577375,6.3991127
550,1715699740.2118983,1.5092813,-1.9919419,-1.8861315,0.8083625,0.8859125,6.520525
551,1715699740.295315,3.3264983,-2.9799235,-0.18409786,-4.5711875,-0.83545,8.745825
552,1715699740.3138664,2.8102906,-3.1541286,-0.28460246,-4.1239,-1.00375,8.5371
553,1715699740.3293784,3.061269,-3.5541284,-0.82252294,-4.3027873,-1.083775,8.85555
554,1715699740.3488336,3.0912387,-3.8653364,-0.20305811,-6.068975,-0.7885625,9.05905
555,1715699740.3784223,3.9402602,-3.5926607,0.59897554,-3.895925,-3.8341875,7.1372123
556,1715699740.3941875,4.0741134,-2.902248,0.96707946,-2.5163875,-4.68105,6.082725
557,1715699740.4096944,3.6426146,-2.6149848,0.6115138,-1.0462375,-5.129575,4.8214374
558,1715699740.4253752,1.7743119,-2.2013302,-0.25657493,-0.7715125,-4.6437874,5.27945
559,1715699740.4488087,2.6680887,-2.183991,-0.35249236,-2.1542125,-2.803075,8.126938
560,1715699740.4643214,3.819266,-2.1903212,-0.6277217,-2.6857874,-2.4068,8.655212
561,1715699740.480094,6.355551,-2.1591284,-0.6980581,-4.3454123,-3.43585,6.8347125
562,1715699740.4957027,5.760245,-1.7700305,1.0414832,-4.3294625,-4.673625,5.65235
563,1715699740.5133924,6.298364,-2.6135628,0.59438837,-2.85505,-3.9237,6.163575
564,1715699740.5288649,7.149128,-3.2050917,-0.3327217,-4.23995,-2.027575,6.787825
565,1715699740.5472844,7.9916363,-2.1181498,0.13139144,-5.9433,-0.6661875,5.48185
566,1715699740.5747445,7.8710556,-1.6080581,1.0463762,-7.691475,0.4076875,2.960375
567,1715699740.5905547,6.341789,-1.3798165,2.4009175,-7.8469872,0.6846125,2.2093499
568,1715699740.6770406,2.2262995,-0.9388379,1.9601376,4.7040124,2.56795,-4.77125
569,1715699740.6967442,1.8270183,-0.9437309,1.378792,4.5101376,2.80445,-4.9929
570,1715699740.7174885,1.6105045,-1.0955199,0.8257951,3.2786875,3.9133875,-4.8703876
571,1715699740.7334633,2.3488226,-1.4356729,1.1125382,2.414775,4.704975,-4.3089747
572,1715699740.7747874,4.2917433,-1.6563761,0.5038685,5.4912,4.4556875,-5.7013
573,1715699740.7908955,4.2583027,-1.7368959,-0.3634098,5.889675,4.6794,-6.6121
574,1715699740.8092055,3.828746,-1.8352753,-1.216208,5.687275,5.123525,-8.296337
575,1715699740.8246648,3.5815444,-1.7761469,-1.5261009,5.1855373,5.016,-8.334562
576,1715699740.847083,3.6111164,-1.6270183,-1.7770642,4.0445623,5.1140375,-8.159938
577,1715699740.8633893,3.4475996,-1.5623853,-1.6972477,3.138025,4.9946876,-7.9596
578,1715699740.8937683,4.0435324,-1.5730888,-1.8707492,2.0227625,4.0349374,-9.135637
579,1715699740.9094012,3.0365903,-1.5536239,-0.7124312,2.2240624,3.2998624,-9.383963
580,1715699740.9257257,2.753211,-1.5923547,-0.6543272,2.7556374,2.8854375,-9.22405
581,1715699740.942217,2.4647248,-1.4953059,-0.893578,3.241425,2.256925,-8.663737
582,1715699740.9586847,2.9172325,-1.4081498,-1.455153,3.0017624,1.6539875,-8.3984995
583,1715699740.975006,2.9310858,-1.4034709,-1.5463761,2.6129124,1.48995,-8.5019
584,1715699741.0728273,0.9318043,-0.78704894,-0.83200306,3.087975,-4.7449875,-6.5385375
585,1715699741.0884984,-0.24811926,-0.6806269,-0.5081498,2.5128124,-4.3626,-7.2161374
586,1715699741.1041243,-3.4123394,-1.6590215,-3.1230428,-0.033275,-3.240875,-4.6094127
587,1715699741.1198077,-3.8259938,-2.0780888,-3.4463763,-4.214375,-2.72635,-2.0942626
588,1715699741.1349738,-2.4790063,-3.6617737,0.24831805,-10.85095,0.4609,0.395175
589,1715699741.1507287,-2.8082569,-4.316101,5.219985,-9.06345,-0.33275,-1.0663126
590,1715699741.1663914,-3.470841,-4.084511,7.13344,-5.515125,-0.9431125,-1.359325
591,1715699741.1894743,-3.4420948,-3.8718655,5.9140673,2.1857,0.014575,-0.934175
592,1715699741.205988,-1.8300765,-3.6556578,2.051376,5.7288,1.230075,-0.633875
593,1715699741.2139657,-1.6001987,-3.4601376,0.47237003,5.9664,1.870275,-0.5506875
594,1715699741.2303355,-1.1694189,-3.082569,-1.3303822,4.3514624,3.032425,0.025575
595,1715699741.2484164,-1.6884862,-3.1382263,-0.6055046,2.8835125,2.1131,0.869275
596,1715699741.264399,-2.0795107,-3.295413,-0.032522935,3.0069876,1.59115,1.560625
597,1715699741.292167,-0.8096789,-3.4592202,-0.48276755,4.2725377,1.1149875,4.8181376
598,1715699741.3134923,0.5730887,-3.0169268,-1.2332263,3.1849124,1.331275,5.8845873
599,1715699741.3291314,1.0279357,-2.68237,-0.7141743,2.230525,1.8436,6.721825
600,1715699741.3531694,1.2990825,-2.5813456,-0.44637614,2.23575,1.8723375,7.1746125
601,1715699741.4684324,1.2251835,-1.9079511,-1.8450611,1.671175,3.171025,7.330125
602,1715699741.4844506,1.4065291,-2.2120335,-1.7023395,0.045649998,3.9241126,8.676525
603,1715699741.506419,1.7015291,-2.567691,-1.3447554,-1.364825,3.4863124,10.3362875
604,1715699741.5275178,2.934052,-2.9254892,-1.2586086,-3.7041125,2.729925,10.7602
605,1715699741.551739,2.6378136,-2.8717585,-0.78053516,-4.4710875,2.70325,10.6271
606,1715699741.567431,2.3749235,-3.1360855,-0.37003058,-5.21895,2.526425,10.7965
607,1715699741.586926,3.0194647,-3.302951,-0.2777829,-6.3278875,2.171675,10.167988
608,1715699741.6029472,3.222523,-3.1534097,-0.21998471,-6.5164,1.7839249,9.600113
609,1715699741.6187024,3.3177369,-2.8390367,0.45432723,-6.4194627,0.2382875,7.549575
610,1715699741.634176,3.2159023,-2.5866513,0.94995415,-5.771837,-0.73645,6.7324123
611,1715699741.6516619,3.0731957,-2.3609633,1.1300765,-4.771525,-1.435225,6.1081624
612,1715699741.667353,3.2948012,-2.6160092,0.19897553,-2.92435,-1.7655,5.1654625
613,1715699741.683008,3.5839908,-3.0408716,-0.34077984,-3.372875,-1.1944625,5.115412
614,1715699741.6986506,3.91448,-3.4160092,-0.13619266,-4.3220377,-0.85469997,5.21345
615,1715699741.7142737,4.9309936,-3.383593,0.27492353,-4.3400497,-1.5631,5.303925
616,1715699741.7312067,5.5683947,-3.2861314,0.41865444,-4.1355877,-1.9647375,5.0802126
617,1715699741.8352969,5.571147,-1.7964373,7.9622784,-5.21895,1.7787,-4.4411125
618,1715699741.8521178,3.497141,-1.9040825,7.524664,7.356525,-1.3831125,-6.850662
619,1715699741.8675764,3.2461774,-2.6286392,3.619679,10.5864,3.084675,-7.40575
620,1715699741.8833575,1.5577981,-2.3443425,-0.30438837,10.5864,3.084675,-7.40575
621,1715699741.8996272,0.6492355,-0.85117733,-2.3839908,4.3407373,3.85055,-4.967325
622,1715699741.915661,1.0440367,-0.55952597,-1.5888838,0.4269375,4.957425,-3.8137
623,1715699741.9312942,1.2801223,-0.67992353,-0.07227829,-1.0643874,5.0628877,-3.380025
624,1715699741.9587114,2.7780888,-0.9749235,1.7177371,0.8317375,4.735775,-2.993375
625,1715699741.975632,4.100918,-0.8360857,0.4825688,2.6703875,5.3867,-4.488
626,1715699741.9914067,3.8107035,-0.94270647,0.057691135,3.021975,5.665825,-5.9250126
627,1715699742.006902,4.0267124,-1.1111162,-0.29847094,3.0623999,5.8287625,-6.12425
628,1715699742.0226665,4.2299695,-1.127523,-0.44475535,3.1956375,6.0652623,-6.7527623
629,1715699742.0525599,4.348624,-1.3027523,-1.2381192,3.38525,5.7872376,-8.2984
630,1715699742.0681565,4.2155967,-1.3661621,-1.4599389,2.98045,5.6626625,-8.799037
631,1715699742.083645,3.9059174,-1.3896024,-1.8084557,2.7119124,5.7371874,-8.82145
632,1715699742.0995173,3.9503517,-1.3788991,-1.7928594,1.724525,5.1533623,-9.306137
633,1715699742.2090223,1.8401682,-0.91314983,-1.1551529,1.29195,2.0257876,-7.6602626
634,1715699742.2326994,1.1319113,-0.9764526,-0.7217125,2.2528,0.2883375,-7.06585
635,1715699742.2633555,0.9237462,-1.056682,0.13383792,3.7580125,-1.604625,-5.221975
636,1715699742.28025,1.3850154,-1.1072325,0.50214064,4.726425,-1.4597,-5.759875
637,1715699742.293224,0.12059633,-2.0089755,-0.7527064,6.9793625,-2.7966125,-7.5772123
638,1715699742.3127384,-2.7413914,-2.2396483,-4.695719,4.6954875,-1.957175,-6.7346125
639,1715699742.3282554,-4.7101984,-3.6003058,-4.9731956,-11.59455,0.0699875,-0.276925
640,1715699742.354785,-3.6626914,-6.042309,3.1620796,-15.7949,-0.423225,1.8365875
641,1715699742.380765,-2.766055,-4.6704435,7.483899,-6.321425,-1.6440874,1.7087125
642,1715699742.396388,-2.0653362,-3.8716667,5.148012,1.0406,0.282975,0.3771625
643,1715699742.411997,-1.8705351,-3.7347553,4.1952143,2.9079876,0.935,-0.0682
644,1715699742.4533536,-0.84454125,-2.6520948,-0.09204893,5.6051874,3.27635,-0.68076247
645,1715699742.4743848,-1.3322171,-2.1946943,-1.2911315,2.2187,1.0660375,0.8767
646,1715699742.4925869,-0.6171254,-2.211315,-0.10275229,2.06965,0.6314,2.8304374
647,1715699742.6899517,1.9817585,-1.8703364,-0.32752293,-3.557125,1.8244874,9.550062
648,1715699742.7155566,2.3647246,-2.0924618,-0.31120795,-4.315575,0.1700875,9.252925
649,1715699742.7313366,2.5669725,-2.1222172,-0.30122325,-4.5254,-0.171875,9.0079
650,1715699742.748088,2.9301682,-2.0138683,0.1567737,-4.499825,-1.4267,8.006488
651,1715699742.773357,2.8669724,-1.8606576,0.1567737,-3.355825,-2.7369375,6.6664124
652,1715699742.7888386,2.6507645,-1.8562691,0.043318044,-3.4346125,-2.69445,6.5663123
653,1715699742.8144631,2.203364,-1.9884863,-0.074923545,-4.27185,-2.1745625,7.1916623
654,1715699742.8299792,2.562584,-2.0553515,-0.072782874,-5.11555,-1.9476875,7.4504375
655,1715699742.8545008,3.4392507,-2.0924618,0.6224312,-5.4341373,-2.3013375,6.69735
656,1715699742.870126,3.6876607,-2.0524924,1.5477064,-3.97045,-3.4975874,5.3317
657,1715699742.9699318,5.524465,-1.9821559,2.1761467,-6.0721374,-4.3626,5.4318
658,1715699742.9863148,4.4130425,0.3753364,3.035474,-3.29615,-3.5135374,4.3995876
659,1715699743.0018387,6.790413,1.428945,-0.5567737,-4.1259623,-2.48985,8.965275
660,1715699743.0174756,7.9916363,-1.0622784,-1.4429204,-9.305312,3.4852126,6.6226873
661,1715699743.0392873,2.9574924,-2.0990825,7.9622784,-4.6894374,4.7092376,-2.3244374
662,1715699743.054913,2.4151835,-2.5249693,7.607844,5.5551376,-0.7588625,-3.7188249
663,1715699743.0705352,2.2900155,-2.8775687,4.927829,8.111813,-2.0691,-4.3740125
664,1715699743.0861769,-0.530474,-2.1537156,-1.3004129,10.455362,-0.6287875,-5.3625
665,1715699743.101785,-0.8943884,-1.1475077,-2.4598317,6.3817873,1.8415375,-2.200825
666,1715699743.1175258,-0.43750766,-0.57737,-2.8433182,3.6823876,2.157925,-0.7712375
667,1715699743.1330829,0.6879664,-0.2944954,-1.9222171,-0.83325,1.573,0.0820875
668,1715699743.1553383,0.67217124,-0.59368503,0.15974006,-2.3331,1.3088624,-0.4783625
669,1715699743.1724393,0.35729358,-0.7435321,1.7143731,-0.5168625,1.076625,-0.697675
670,1715699743.1881518,0.4527064,-0.9740061,1.2897096,3.057175,0.4384875,-0.8437
671,1715699743.2036898,0.4588226,-1.0522937,0.9306881,3.82415,0.17325,-0.9417375
672,1715699743.2234406,0.39296636,-1.1286392,0.48237005,4.9852,-0.1441,-1.054625
673,1715699743.2390666,0.46249235,-1.1809328,-0.27655962,5.2324247,0.44385,-0.7638125
674,1715699743.3556724,0.6069266,-1.0449542,-0.23527524,2.3656874,0.1348875,-0.4261125
675,1715699743.3728166,0.6685015,-0.92660546,-0.04373089,1.79795,0.788975,0.059675
676,1715699743.400032,0.75902146,-0.63302755,0.4272171,1.9449375,0.5941375,-0.11935
677,1715699743.4157789,0.6840979,-0.5961315,0.47380736,2.331725,0.2360875,-0.260975
678,1715699743.4333851,0.6572936,-0.4970489,0.3337462,3.0740874,-0.828025,-0.5412
679,1715699743.456228,0.56911314,-0.38868502,-0.022018349,3.1678624,-1.387375,-0.6732
680,1715699743.4739773,0.5293578,-0.2678899,-0.2833792,2.2400124,-0.694925,-0.5102625
681,1715699743.4894557,0.57522935,-0.16513762,-0.3472936,0.92345,0.64845,-0.18425
682,1715699743.505137,0.45148322,-0.100198776,-0.21998471,0.237325,1.15115,0.01815
683,1715699743.522013,0.49816513,0.0094801225,0.21681957,-0.3400375,1.566675,0.5028375
684,1715699743.5406847,0.7204893,0.059525996,0.36961773,-0.318725,1.507,0.6348375
685,1715699743.5709527,1.0980581,0.055351686,0.31885323,0.050875,0.9455875,0.0628375
686,1715699743.5865753,1.0448471,0.007538226,0.32782874,0.103125,0.7624375,-0.160875
687,1715699743.6023028,0.7753364,-0.09683486,0.380841,0.2234375,0.6920375,-0.192775
688,1715699743.6326094,0.62110096,-0.14025994,0.36350152,0.3683625,0.68035,0.313225
689,1715699743.7329829,0.993578,0.012951071,-0.06350153,0.256575,0.24365,1.0652125
690,1715699743.763088,0.76493883,-0.13414373,0.37155965,-0.1771,0.5291,1.3602875
691,1715699743.78278,0.98970944,-0.1514832,0.5170184,0.17765,0.637725,1.7991875
