id,timestamp,acc_x,acc_y,acc_z,gyro_x,gyro_y,gyro_z
0,1715699838.037968,0.20622323,0.6069266,0.8548471,0.5878125,-0.1750375,-0.1065625
1,1715699838.0595584,0.24923548,0.605,0.80989295,0.6230125,-0.16115,0.0149875
2,1715699838.0691738,0.23475535,0.66472477,0.79674315,0.6241125,-0.1920875,0.009625
3,1715699838.0821433,0.23475535,0.66472477,0.79674315,0.709225,-0.3092375,0.024475
4,1715699838.1059682,0.34311926,0.6160092,0.5472936,0.5335,-0.1122,0.0064625
5,1715699838.1227467,0.33344036,0.62059635,0.5233486,0.4439875,-0.0653125,-0.0053625
6,1715699838.1393337,0.27094802,0.6277217,0.4750306,0.004125,0.2457125,0.0064625
7,1715699838.1495173,0.23282877,0.6167125,0.5075382,-0.20899999,0.2542375,0.0352
8,1715699838.1648219,0.21162081,0.5903211,0.5599388,-0.3581875,0.27445,0.1034
9,1715699838.1728728,0.21162081,0.5903211,0.5599388,-0.4049375,0.2138125,0.159775
10,1715699838.188627,0.2182416,0.5456728,0.6248777,-0.3964125,0.1689875,0.1918125
11,1715699838.230756,0.287263,0.5500459,0.68123853,-0.1791625,0.0507375,0.2088625
12,1715699838.2467256,0.33119264,0.5869572,0.6980581,-0.098175,0.0028875,0.1310375
13,1715699838.3501554,0.31212538,0.5742049,0.5079511,-0.3548875,0.1348875,-0.1364
14,1715699838.3687553,0.3551529,0.5024465,0.33833334,-0.5467,-0.203775,-0.3089625
15,1715699838.393937,0.38123852,0.39490825,0.15830275,-0.789525,-0.7183,-0.596475
16,1715699838.4096196,0.08665138,0.38879204,-0.1459786,-1.3583624,-0.843975,-0.6626125
17,1715699838.44089,0.3016361,0.22599387,-0.29602447,-2.206325,-0.5127375,-0.2748625
18,1715699838.4662132,0.5540214,0.20672783,-0.24851683,-3.1288126,-0.83545,-0.6433625
19,1715699838.4900265,0.6235474,0.021207951,-0.42201838,-3.8405125,-1.2871375,-1.0663126
20,1715699838.506197,0.59918964,-0.20692661,-0.49551988,-4.686275,-1.536425,-1.2846625
21,1715699838.5314498,0.48929664,-0.37848625,-0.61090213,-5.633375,-1.2563375,-1.237775
22,1715699838.547019,0.5472018,-0.52763,-0.628945,-6.423725,-1.283975,-1.09505
23,1715699838.5662434,1.0987767,-0.63129973,-0.2429205,-7.1929,-2.4589124,-1.2027125
24,1715699838.5818849,1.5297706,-0.6622783,-0.04301223,-7.182175,-3.06405,-1.56915
25,1715699838.5967722,1.6134557,-0.7076453,-0.030779816,-7.166225,-3.037375,-1.679975
26,1715699838.6047492,1.7394496,-0.8016361,-0.01762997,-7.268525,-2.7636125,-2.0538375
27,1715699838.6208458,1.6922476,-0.80264527,0.038425077,-7.3962626,-2.38975,-2.27755
28,1715699838.636453,1.6818502,-0.828945,0.087767586,-7.4655623,-2.0733626,-2.3904376
29,1715699838.7317023,4.518456,-0.05412844,1.3746177,-5.5193872,-2.1990376,-4.9449124
30,1715699838.7479181,4.847202,-0.575948,2.7296636,-4.890875,-1.7686625,-7.124425
31,1715699838.7958121,4.716621,-1.0428134,3.4276302,-1.615075,2.6085124,-7.3066125
32,1715699838.8114047,5.6606574,-1.0986696,3.6326146,0.744425,3.2146125,-8.447587
33,1715699838.8277943,6.2524924,-1.805,4.0833793,4.4578876,2.0417376,-10.2553
34,1715699838.843404,5.1118197,-2.4956117,2.2017279,7.2936873,1.213025,-11.202263
35,1715699838.8667734,3.330887,-1.3735015,0.027415903,5.752175,1.21935,-9.398812
36,1715699838.882387,3.443119,-0.05382263,-0.12426606,2.5969625,1.8319125,-8.0650625
37,1715699838.897997,3.3553517,0.24821101,0.26860857,1.5934875,1.921425,-7.90845
38,1715699838.9136176,2.8881805,0.31671253,1.1825688,1.15885,1.76165,-8.086375
39,1715699838.9292457,2.771055,0.2825688,1.3685015,1.8704125,2.0662124,-8.191837
40,1715699838.9514358,2.2741132,0.15616208,1.224572,2.329525,2.2463374,-8.167362
41,1715699838.972065,1.8236544,-0.017232416,0.12365443,2.7119124,1.682725,-7.697525
42,1715699838.9926424,1.8014221,-0.26594803,-0.57522935,1.6637499,1.550725,-6.924225
43,1715699839.013344,2.0500457,-0.305,-0.66799694,1.316425,1.650825,-6.841175
44,1715699839.1109784,2.3012233,-0.38776758,-1.3963304,1.5934875,0.468325,-3.92975
45,1715699839.121977,1.9215137,-0.46636087,-1.3172324,0.576125,-0.16115,-5.0408874
46,1715699839.1597033,0.5400612,-0.39674312,-0.019571865,0.6389625,-0.70235,-4.428325
47,1715699839.1754596,0.8493425,-0.38185015,0.3149847,2.4946625,-0.7896625,-2.690875
48,1715699839.2003686,1.7310857,-0.6894037,-0.46616206,3.9529874,-1.03895,-3.095675
49,1715699839.216004,1.0585169,-1.098471,-1.4275229,4.7455373,-2.5452626,-4.5656877
50,1715699839.2316282,0.04006116,-1.1594342,-2.0711467,4.32685,-2.981,-4.3143373
51,1715699839.2573526,-0.3022477,-1.4457645,-1.6806269,-0.4412375,-1.7527125,-0.45485
52,1715699839.2730293,0.74974006,-1.534052,-1.2960244,-2.7006376,-0.5841,1.0855625
53,1715699839.2948895,0.70244646,-1.9621865,-1.9283333,-4.1663876,-2.1671374,-0.43353748
54,1715699839.3153152,-0.91365445,-3.987049,-1.3804282,-4.216575,-4.5926375,-2.1528375
55,1715699839.3360023,-1.8890979,-1.8986698,-0.31437308,-4.7939377,-3.66905,-0.5113625
56,1715699839.3526928,-1.1576911,-3.3657494,1.3219113,-4.1111126,-2.0796876,-0.7041375
57,1715699839.3687594,-2.979312,-3.3137617,1.6408715,-1.7078875,-3.7681875,0.025575
58,1715699839.3874643,-3.3745105,-3.4540217,1.345367,-2.3810875,-2.7220874,1.4753749
59,1715699839.491222,-1.4979663,-2.777263,1.4483181,2.8835125,1.5101625,3.38855
60,1715699839.5318713,1.272477,-3.3720644,0.8205964,8.0542,1.7989125,4.5391498
61,1715699839.5550437,3.1297705,-3.2971406,-1.0224311,9.145125,4.351325,5.303925
62,1715699839.5887704,3.96789,-2.7490368,-1.6533182,8.737163,5.175775,5.457375
63,1715699839.6050606,3.6962233,-1.6592202,-2.4984708,7.9657874,2.6233625,4.7202373
64,1715699839.6219954,2.5938838,-1.0948013,-3.0278287,2.794,3.57995,5.913325
65,1715699839.6377065,2.566774,-1.1543273,-2.4344494,1.165175,4.2777624,6.59505
66,1715699839.6551766,2.3735015,-1.7132568,-0.4022477,-1.667325,6.9664373,8.831075
67,1715699839.6805613,3.206728,-2.3058105,-0.20408258,-2.4630375,8.276813,10.284038
68,1715699839.6968026,4.0718656,-2.2681959,0.3129511,-3.4112375,6.44875,9.49685
69,1715699839.712356,3.4395564,-1.9177371,1.2298625,-2.5323374,4.42475,8.665937
70,1715699839.7376583,3.1570795,-1.7664678,1.109893,-1.3531375,3.24665,8.470963
71,1715699839.7554188,2.4561622,-1.9894954,-0.074923545,-0.86088747,2.021525,9.0068
72,1715699839.7711554,2.5699236,-2.1925535,-0.37931195,-1.3776125,2.239875,9.2752
73,1715699839.8725476,3.6172323,-1.8401682,0.148211,-4.384875,0.7676625,8.951387
74,1715699839.8882287,4.9101987,-1.4102905,-0.8591284,-5.3755627,0.17325,8.132162
75,1715699839.90375,4.093379,-1.0524924,0.06891437,-9.003775,0.5174125,5.9846873
76,1715699839.9378777,3.800199,-0.27859327,2.7587156,-6.1787,-0.3370125,8.353812
77,1715699839.9666488,7.846177,-0.18318042,0.8904128,-4.3539376,-0.406175,19.4656
78,1715699839.989057,7.9916363,-5.5026455,0.9353669,-8.6427,9.278088,9.3797
79,1715699840.021153,5.861575,-5.2886853,7.9622784,3.7824874,2.072675,-7.20005
80,1715699840.0379782,1.4707493,-6.646789,1.5837921,16.239712,-6.6081123,-6.854925
81,1715699840.0536594,1.5831804,-4.5571866,-1.9444495,16.239712,-6.6081123,-6.854925
82,1715699840.0693316,1.5614679,-2.7770643,-2.8293576,10.591763,-4.9900126,-4.1630874
83,1715699840.0848553,3.596942,-0.7711468,-3.113257,0.7305375,1.937375,-3.3290124
84,1715699840.1005387,3.8702295,-0.5903211,-2.5511775,0.7305375,1.937375,-3.3290124
85,1715699840.1162095,3.7638073,-0.8877676,-0.69510704,-2.3288374,2.6096125,-4.9055877
86,1715699840.1378603,1.7527981,-1.3854282,3.166468,-0.143,0.54725,-6.2616124
87,1715699840.236409,2.948211,-3.3830733,0.70417434,3.4203124,-0.77055,-9.551163
88,1715699840.254193,2.679006,-3.620994,1.0505657,3.5513499,-0.845075,-9.567113
89,1715699840.2726011,2.7624924,-3.7557645,0.9192661,5.685075,-2.699675,-9.757825
90,1715699840.3159964,2.046896,-3.388685,-0.061269112,4.09035,-4.6448874,-10.3895
91,1715699840.3382194,1.975948,-2.738532,-0.15107034,2.8589,-3.3985875,-8.941763
92,1715699840.3543224,1.8521866,-2.4314985,-0.9794037,2.3232,-3.26645,-7.9330626
93,1715699840.3699777,1.8143731,-2.0795107,-1.7755352,0.7924125,-5.0315375,-6.771875
94,1715699840.3855214,2.1972477,-1.9316055,-2.2768655,0.7924125,-5.0315375,-6.771875
95,1715699840.402012,2.1972477,-1.9316055,-2.2768655,-4.4317627,-2.6965125,-4.967325
96,1715699840.4175436,2.8474007,-2.146682,-2.5933793,-7.0895,-0.911075,-5.0620623
97,1715699840.4375544,3.0397553,-2.541789,-0.729052,-7.9289374,-0.8493375,-5.850487
98,1715699840.4701908,3.0567737,-2.609679,0.52263,-6.9095125,-2.1703,-6.8677125
99,1715699840.486737,2.45474,-2.4266055,1.0683028,-3.9928625,-3.4049125,-7.74125
100,1715699840.5036905,0.40244648,-3.208058,-1.6925535,-3.6817,-2.3236125,-7.2043123
101,1715699840.5193748,0.40244648,-3.208058,-1.6925535,-5.3499875,-1.926375,-7.2161374
102,1715699840.6234813,-3.8008106,-5.4490366,2.27737,1.2610124,0.4588375,1.6948249
103,1715699840.643872,-2.5365903,-4.076147,1.8368961,6.8079,0.5993625,2.2573376
104,1715699840.6643746,-0.6232416,-3.1943884,-2.6168196,6.5608125,1.989625,2.489575
105,1715699840.68506,-1.075948,-2.798578,-2.0666666,3.6983376,1.8819625,3.5025375
106,1715699840.7053638,-0.82793576,-2.6962233,-1.301835,3.2008624,1.7637125,4.63925
107,1715699840.7212183,-0.07778288,-2.7296636,-0.7556575,3.240325,1.62525,5.880325
108,1715699840.7366307,-0.07778288,-2.7296636,-0.7556575,5.0161376,1.59005,7.5420127
109,1715699840.7547903,2.7729816,-2.2284405,-1.2535169,4.725325,3.2146125,7.3332872
110,1715699840.7803764,2.8111162,-1.9201835,-1.3496482,3.3138876,4.856225,7.0274873
111,1715699840.8109965,2.764725,-1.3470948,-0.41487768,3.476825,1.1385,6.4150624
112,1715699840.8275383,2.7635014,-1.293685,-0.6209021,3.5333376,1.095875,6.42565
113,1715699840.843195,2.480627,-1.4860398,-1.8543272,1.6137,2.33585,6.8039126
114,1715699840.872488,2.432003,-2.0626912,-1.1246636,-2.61965,5.3131375,8.302663
115,1715699840.8965278,2.5620794,-2.3401682,-0.059128445,-3.33025,5.9151125,8.446487
116,1715699840.9122903,2.5562692,-2.4631958,0.4953058,-5.5715,5.480475,8.270762
117,1715699841.008378,2.4522936,-2.3123395,-0.31019875,-2.8796625,0.24145,7.5442123
118,1715699841.0241039,2.9963303,-2.4915442,-0.22996941,-4.8332624,-0.3251875,7.5037875
119,1715699841.039643,3.0490367,-2.4607494,0.25616208,-5.2306376,-0.63635,7.363125
120,1715699841.0553255,2.955046,-2.387049,0.6890979,-5.2391624,-0.9994875,7.3002872
121,1715699841.073241,4.006223,-1.7852141,0.26707953,-4.1025877,-1.5054874,7.1968875
122,1715699841.0901866,4.30367,-1.7395566,-0.16747706,-4.47425,-1.628,6.66325
123,1715699841.106287,4.1521864,-1.528945,-0.06911315,-6.39925,-0.9079125,5.9569125
124,1715699841.1354866,3.969832,-1.2588227,1.6585168,-7.2056875,-0.810975,6.4054375
125,1715699841.1577032,4.680734,-1.1298624,1.9022477,-6.5153,-1.3968625,6.45975
126,1715699841.1747863,7.9916363,-0.7370031,0.91284406,-5.528875,-2.92765,5.000325
127,1715699841.1908429,6.8735933,2.9683945,1.8083639,-6.13085,-2.4770625,5.00995
128,1715699841.208771,7.9916363,-1.022737,0.6553517,-9.847475,3.7376626,4.2461376
129,1715699841.2247615,2.4993885,-2.9666667,7.9622784,-4.4699874,6.963275,-3.8732374
130,1715699841.23787,1.5590214,-2.6940825,7.9622784,3.390475,1.69235,-2.2306626
131,1715699841.2529728,3.6559634,-2.8747249,5.662691,9.313425,-1.34475,-1.6234624
132,1715699841.2783155,5.0031652,-2.688685,-0.37686545,12.1385,-2.448325,-5.6618376
133,1715699841.2939548,3.5073395,-2.2264986,-1.3428135,9.973838,-3.0353124,-7.3833375
134,1715699841.3978705,2.90448,-1.4545413,1.6931652,2.903725,2.94305,-5.474425
135,1715699841.4134767,3.1888838,-1.5506575,1.1034709,4.032875,3.202925,-5.5649
136,1715699841.4292557,3.9132571,-1.7124312,0.031085629,5.23875,2.966425,-6.0911126
137,1715699841.444864,4.4445415,-2.2120335,-0.6216055,5.652075,2.309175,-8.025738
138,1715699841.4738674,3.6484249,-3.0249693,-0.3041743,6.446825,1.466575,-10.426763
139,1715699841.4894595,3.4346635,-3.1670794,-0.37879205,6.6587124,1.1937749,-10.602625
140,1715699841.5175035,3.3604434,-3.2763457,-0.8061162,7.0805626,-0.018424999,-10.977588
141,1715699841.5328543,2.8666668,-2.9981651,-1.54026,6.51915,-1.1913,-11.431337
142,1715699841.5562816,2.0220182,-2.2618806,-1.329159,2.7237375,-2.414225,-10.241412
143,1715699841.573943,1.8348624,-2.0754282,-1.1866513,2.213475,-2.4173875,-9.686462
144,1715699841.5951552,1.7711468,-1.348318,-0.93741596,1.2376375,-2.9458,-7.462125
145,1715699841.6380444,1.8758409,-1.0207951,-1.4667736,-1.0973876,-4.2219377,-5.4445877
146,1715699841.6586337,1.3993884,-0.97319573,-1.614679,-1.67585,-3.993,-4.8565
147,1715699841.7524314,2.1692202,-1.6175382,-3.6055048,-3.9693499,-4.6193123,-4.343075
148,1715699841.7682703,-2.6827676,-4.7524924,-0.04759939,-9.797425,-2.194775,-2.464
149,1715699841.7798502,-2.1082568,-5.8692203,1.735367,-10.0573,-1.1028875,-2.2061875
150,1715699841.7960176,-2.1754282,-6.495719,5.1807337,-8.467937,-1.1380875,-2.88365
151,1715699841.820019,-4.1830735,-6.280734,4.7973547,-3.169375,-0.6831,-3.4386
152,1715699841.836423,-4.297049,-6.1814528,4.633746,1.2089,1.011725,-1.844975
153,1715699841.8589234,-1.2797095,-4.7824616,1.733838,6.55325,2.495625,1.6852
154,1715699841.87946,0.6018349,-4.028135,-1.7172323,6.9346747,2.8705876,0.82555
155,1715699841.8988383,-1.3900152,-3.7689145,-0.95331806,5.13755,2.7671876,1.0791
156,1715699841.9257524,-0.21223241,-4.2263,0.07992355,6.04835,3.0292625,6.451225
157,1715699841.941336,1.4548471,-4.3199844,0.08185015,7.3607874,2.7682874,7.47285
158,1715699841.959414,3.7091742,-3.2024465,-1.7272171,8.422837,3.4021626,6.923125
159,1715699841.9752932,3.6640213,-2.82763,-2.2072322,7.5493,4.351325,6.8677125
160,1715699841.9909103,3.3799236,-2.5622783,-2.1589143,6.6160874,5.0862627,7.06695
161,1715699842.0089324,2.880627,-2.2284405,-1.2356727,5.37405,4.5441,8.48265
162,1715699842.0248747,3.0414832,-1.9560703,-1.6512692,5.367725,2.983475,9.507438
163,1715699842.040512,2.7488227,-1.9485167,-1.7538226,4.8967876,2.7885,9.859025
164,1715699842.0561118,2.4303823,-2.0844038,-1.8236544,4.269375,2.8098125,10.4130125
165,1715699842.2308211,2.4955199,-2.720688,-0.1706422,-2.3959374,1.818025,7.6795125
166,1715699842.246847,2.7056117,-2.7131498,-0.018348623,-3.472975,1.8915875,7.464325
167,1715699842.2756748,2.9364984,-2.1881804,0.6202905,-3.1076374,-1.063425,5.7354
168,1715699842.301636,2.3939908,-2.2298622,-0.04444954,-1.634325,-1.8294375,5.0909376
169,1715699842.3127804,3.1845107,-1.8055044,0.26422018,-4.1228,-0.8888,5.5127873
170,1715699842.336803,3.4105046,-1.6170183,0.83475536,-4.265525,-1.14235,5.2624
171,1715699842.345861,3.9864373,-1.5443425,1.321208,-3.3771374,-1.7782875,4.8351874
172,1715699842.353826,3.890719,-0.9463762,0.8501529,-2.3362625,-3.0405376,4.647775
173,1715699842.3762136,3.7284403,-0.026804281,0.91284406,-1.6130124,-3.4549625,6.467175
174,1715699842.3917189,7.9916363,5.9722786,-0.4689144,-1.5970625,-5.86245,19.4997
175,1715699842.4074821,7.9916363,-3.067691,-1.9197706,-1.5970625,-5.86245,19.4997
176,1715699842.423387,7.9916363,-2.380734,-2.4200766,-10.905262,10.029113,-5.4531126
177,1715699842.5288897,3.7790062,-0.62110096,-0.16992354,-1.3915,4.0423627,-2.5619
178,1715699842.5450473,2.359327,-1.3519877,4.228853,2.5851374,0.34155,-6.3628125
179,1715699842.5609593,2.2313914,-2.1888838,2.970535,8.0883,-1.1688875,-7.817975
180,1715699842.5766675,1.6717583,-2.3257952,1.7880733,8.766863,-1.5065875,-7.8637624
181,1715699842.5930238,2.4647248,-1.2966361,-1.1944954,6.9537873,-0.78223747,-6.6930876
182,1715699842.608953,3.3316057,-0.67747706,-1.8949082,1.992925,1.3173875,-7.0158
183,1715699842.638951,3.4485168,-1.0466819,0.6598318,0.3183125,0.333025,-8.3666
184,1715699842.6551988,3.1761467,-1.2575994,1.6704434,1.218525,0.418275,-8.8043995
185,1715699842.676974,3.6389449,-2.3380275,1.5269114,4.372775,-0.22825,-9.536175
186,1715699842.7070704,3.8537154,-2.9869573,0.076253824,5.282475,-0.1676125,-10.4577
187,1715699842.7268164,3.677676,-2.9230428,-0.7656422,3.964675,-1.4906375,-10.932762
188,1715699842.7461078,3.0282416,-2.753104,-0.2634098,2.6246,-1.8431875,-10.898663
189,1715699842.7769446,2.7593274,-2.3277218,-0.23088685,2.278375,-2.5729,-9.821762
190,1715699842.804134,2.5718656,-1.9760398,-0.722737,1.1182874,-3.1246874,-8.850187
191,1715699842.916406,1.2173241,-0.8780887,-2.534052,-1.7142125,-4.47865,-4.5082126
192,1715699842.9352162,0.8563762,-2.5105047,-3.9283335,-6.97455,-3.3483999,-4.3707123
193,1715699842.9506867,-0.056269117,-3.5704434,-3.2716665,-9.6217,-2.58995,-4.1364126
194,1715699842.9696407,-2.2894037,-6.3783946,0.25290522,-13.9051,-1.7314,-1.862025
195,1715699842.9864507,-2.1941895,-6.994909,3.4105961,-14.987363,-0.2613875,-0.8223875
196,1715699843.0021687,-3.0212998,-6.3764524,7.9622784,-5.8037376,-0.3922875,-2.6503124
197,1715699843.0259285,-4.1024466,-6.2892966,6.411728,0.844525,-0.0301125,-3.56015
198,1715699843.041525,-4.841697,-5.9005046,2.964419,5.0150375,1.0148875,-2.78465
199,1715699843.058308,-4.0075383,-4.5797095,-0.014480123,4.8659873,2.748075,0.0361625
200,1715699843.0779607,-0.73353213,-3.1028593,-1.0492355,5.1929626,2.0587876,0.9076375
201,1715699843.1045523,-0.8681957,-3.0872629,-1.2312998,3.9444625,1.3781625,0.3025
202,1715699843.120152,-1.1667737,-3.468196,-0.74587154,4.19375,1.4345375,2.09
203,1715699843.1491435,0.66411316,-3.1434252,-1.304786,4.320525,1.65935,4.5178375
204,1715699843.1685975,1.4840978,-2.6933792,-1.7399541,3.3648999,2.2963874,6.183925
205,1715699843.199059,2.3941896,-2.5393426,-1.2212996,2.0196,2.5562625,6.975375
206,1715699843.2876275,4.5348625,-0.55932724,-2.1023395,1.6168625,5.74035,5.8812876
207,1715699843.3051524,3.1780887,-0.38165137,-1.2752293,0.8680375,5.2503,6.42565
208,1715699843.3205204,2.771055,-0.636896,-1.1908257,-0.96635,5.0265875,7.9288
209,1715699843.3367205,2.662691,-0.7643272,-1.1234404,-1.4713875,5.041575,8.3324995
210,1715699843.3534243,2.5121255,-1.5790061,-0.59622324,-3.690225,4.5802627,10.550375
211,1715699843.4028194,3.556376,-1.3815444,1.6597401,-4.3539376,1.3685375,7.9063873
212,1715699843.4183478,3.0753365,-1.3285474,1.7141744,-3.2225876,0.7539125,7.968125
213,1715699843.4353642,2.917737,-1.4899083,0.47798166,-2.0785875,0.5748875,8.692613
214,1715699843.4620187,3.2955198,-1.8242661,-0.35463303,-3.944875,1.2992375,10.108313
215,1715699843.4790757,4.572171,-1.5787003,-0.23822631,-5.445825,2.272875,9.1623125
216,1715699843.4946742,4.4860396,-1.4598318,-0.16350153,-5.7334747,2.3027124,8.635
217,1715699843.5124397,4.045459,-0.7753364,0.86207956,-4.4732876,-1.20835,6.335175
218,1715699843.5294166,2.8925536,-0.7140673,0.9422018,-4.2612624,-1.17315,6.621725
219,1715699843.5458078,3.530581,-0.2479052,0.6204893,-4.180275,-0.6395125,7.4877
220,1715699843.561389,4.256162,0.2498471,0.23363914,-4.298525,-0.4434375,7.509012
221,1715699843.5793257,4.870642,0.5022477,-0.18848623,-4.50835,-0.4360125,7.2172375
222,1715699843.6570034,0.5303823,3.9861314,2.893884,-5.2285748,-1.302125,9.0409
223,1715699843.6791818,4.7932725,-2.562798,1.0925535,8.756275,0.858275,-1.9941624
224,1715699843.694939,4.7932725,-2.562798,1.0925535,10.072975,-1.6270375,-3.92865
225,1715699843.7105489,3.1295564,-2.175948,-0.33995414,10.088925,-3.7863374,-5.8994374
226,1715699843.726049,2.0134556,-0.67136085,-2.1681957,4.76905,-0.441375,-6.216925
227,1715699843.7418094,1.5575993,-0.1722783,-1.943425,1.79905,1.7818625,-5.4509125
228,1715699843.757438,1.6530123,0.1969419,-0.4689144,-1.5096124,4.485525,-4.224825
229,1715699843.778445,2.3066208,-0.08042813,0.83425075,-1.57355,3.61405,-4.916175
230,1715699843.7949347,2.3842049,-0.551789,1.3751223,-0.2399375,2.4976876,-6.096475
231,1715699843.8255045,2.2331345,-1.1030581,1.0796177,1.5338125,2.97385,-6.2456627
232,1715699843.8411312,2.2946026,-1.1326147,1.0558562,1.6498625,3.0655625,-6.15725
233,1715699843.8567634,4.1058106,-1.4022478,1.16789,3.65365,2.9695876,-6.63025
234,1715699843.88015,4.2141743,-2.3011162,0.53414375,6.7876873,1.177825,-9.706675
235,1715699843.894981,3.9552448,-2.516208,0.18929663,7.115762,1.0032,-10.277713
236,1715699843.919294,3.2827678,-2.6986697,-0.5212997,6.784525,0.2457125,-10.802825
237,1715699843.9349136,2.748318,-2.2750306,-1.107844,6.0036626,-0.5479375,-10.484375
238,1715699843.9505706,2.822737,-2.1059175,-1.2108104,5.5818124,-0.760925,-10.3692875
239,1715699844.056155,2.3844037,-0.78460246,-0.8039756,0.054175,-3.4230626,-6.3096
240,1715699844.081082,1.5329205,-0.8075382,-0.7019419,0.0721875,-4.048275,-6.12205
241,1715699844.0966973,1.4406728,-0.8140673,-0.69093275,0.1500125,-4.2400875,-5.95595
242,1715699844.1129594,1.23711,-0.7787003,-0.5035627,0.3683625,-4.7865124,-5.456275
243,1715699844.1286218,0.9237462,-0.43047398,-0.7434251,0.4343625,-4.85155,-5.3636
244,1715699844.1510694,0.3609633,-0.3160092,-3.56422,-0.5072375,-3.33465,-3.599475
245,1715699844.180002,1.358211,-2.7133486,-4.7783947,-11.482625,-2.6837249,-2.116675
246,1715699844.1957488,0.9657492,-6.3801227,-0.07370031,-16.815424,-1.7430875,-4.5849376
247,1715699844.2114193,-4.1964374,-7.027523,7.9622784,-8.107963,-1.3862749,-5.4967
248,1715699844.2279677,-4.8590217,-7.195,7.265245,-4.2857375,-0.9686875,-4.30265
249,1715699844.2436006,-4.2525992,-6.808364,4.6613607,0.25547498,1.4026375,-1.7917625
250,1715699844.2592394,-2.6899083,-5.6376147,2.6957188,3.374525,2.8631625,-0.3738625
251,1715699844.281724,-0.8301682,-3.2602446,-0.84373087,5.0980873,3.6130874,-0.2077625
252,1715699844.2973223,-0.8123395,-3.164633,-1.1190673,5.1695876,3.370125,-0.2684
253,1715699844.3139803,-1.409786,-2.6442354,-2.645153,3.7697,2.562725,0.2013
254,1715699844.427994,0.51203364,-2.4446483,-1.1053976,-3.0064375,0.5930375,5.846225
255,1715699844.436097,2.4654434,-2.1061163,-0.3262997,-3.424025,0.4555375,6.56315
256,1715699844.4524975,2.514572,-2.0199847,-0.19285934,-3.36435,0.44385,6.5769
257,1715699844.482838,2.9991896,-1.5023394,-0.46249235,0.21285,0.8955375,6.56315
258,1715699844.4984627,2.9424007,-1.5216055,-0.558211,0.3183125,0.8113875,6.6174626
259,1715699844.5324469,2.3905199,-2.1171255,-2.187049,0.5622375,-0.73425,7.4771123
260,1715699844.5486264,2.7346637,-2.657997,-1.5959175,-2.9871874,-1.8090875,10.87845
261,1715699844.564164,3.3045874,-3.1224313,-0.71365446,-3.8181,-2.6294124,12.461488
262,1715699844.5922017,7.387355,-3.5007188,-0.73711014,-4.1930623,-4.1314626,12.510437
263,1715699844.6079178,7.650459,-3.4084556,-0.73730886,-4.652175,-4.7002997,9.300775
264,1715699844.624445,5.282156,-2.6828747,1.4954128,-3.523025,-5.5759,8.605163
265,1715699844.6400614,4.0111165,-2.9738073,0.7847095,-1.4884375,-6.580475,10.140212
266,1715699844.6834185,7.9916363,-2.2359786,-0.59551984,-2.0295,-6.4462748,12.3123
267,1715699844.7010267,6.3386393,-0.22029051,3.3187616,-4.263325,-4.4328623,5.75025
268,1715699844.830008,5.3782873,5.0236545,5.708364,-4.720375,0.166925,0.0543125
269,1715699844.8479667,4.6556573,-2.5727828,6.0880733,-4.350775,4.955225,-9.93355
270,1715699844.863659,-0.03088685,-3.260046,3.20948,4.9181,1.380225,-3.9052749
271,1715699844.8839996,3.137416,-1.3683945,-0.10275229,4.7700124,2.3188,-0.4995375
272,1715699844.8996215,4.643425,-0.4943884,-0.25657493,3.9839249,2.240975,-0.5102625
273,1715699844.9152038,4.643425,-0.4943884,-0.25657493,3.748525,2.0332124,-1.0151625
274,1715699844.942326,3.4217126,-0.27695718,0.34056577,2.70765,1.6061375,-6.8006124
275,1715699844.9504678,1.6808408,-0.40142202,0.48623857,2.213475,1.9916875,-6.4310126
276,1715699844.9682953,0.9218196,-0.12191131,0.0062232413,1.25785,2.9387875,-5.423275
277,1715699844.983995,1.6864374,0.14495413,0.45596328,1.05545,3.0815125,-5.236825
278,1715699844.99973,2.2043884,0.053623855,0.6131499,0.57722497,3.5842125,-4.8607626
279,1715699845.0161836,3.3928592,-0.41142204,0.6509633,1.3047374,3.2839124,-6.0251126
280,1715699845.0318148,3.3928592,-0.46778288,0.66197246,1.3047374,3.2839124,-6.0251126
281,1715699845.0474277,2.9140673,-0.8096789,0.3664679,2.5256,3.6449876,-7.23745
282,1715699845.0630207,2.9445415,-0.7733945,0.19897553,2.8292,3.7270749,-7.0734124
283,1715699845.0852668,3.9044802,-0.7889908,-0.40203363,3.1328,3.6972375,-7.5942626
284,1715699845.100906,3.9708412,-0.83802754,-0.48695716,3.1328,3.6972375,-7.5942626
285,1715699845.1788592,3.1454587,-1.1487309,-1.2813456,2.835525,1.514425,-9.15695
286,1715699845.1968074,2.9475076,-1.0825689,-1.4392508,1.8682125,0.68255,-9.05905
287,1715699845.2126546,2.9101987,-1.0650306,-1.416315,1.7414374,0.5748875,-9.036637
288,1715699845.228517,2.014679,-0.91029054,-0.79246175,0.94682497,-0.36781248,-8.239825
289,1715699845.2509418,1.6127369,-0.73160547,-0.6443425,1.333475,-1.4821125,-7.1660876
290,1715699845.2674432,1.454633,-0.70814985,-0.7307798,1.4474624,-1.7260375,-6.9177623
291,1715699845.2853444,1.8860397,-0.7306881,-1.6449542,1.434675,-2.3108249,-5.9591126
292,1715699845.308008,1.1061163,-0.675948,-1.795107,0.1628,-3.16305,-5.4371624
293,1715699845.338682,0.48960248,-0.406315,-2.2121253,-1.6044875,-4.0195374,-2.2818124
294,1715699845.355644,0.8005046,-1.2516819,-2.455046,-3.63275,-3.7574625,-1.390125
295,1715699845.3855014,-0.49357796,-4.7541285,-3.1036696,-11.463512,-1.301025,-1.7523
296,1715699845.4009588,-0.89969414,-7.042003,2.1798165,-14.19165,0.27665,-2.8452876
297,1715699845.4167473,-1.6884862,-7.301835,4.7460704,-13.17855,0.115775,-3.42265
298,1715699845.444264,-4.546376,-7.2193727,7.694495,-2.7581124,-0.169675,-4.157725
299,1715699845.46956,-5.4721713,-7.067783,3.4013302,5.0491376,0.64845,-1.4199625
300,1715699845.5672932,-0.013761468,-3.6400614,1.0922477,5.8342624,1.25235,5.1484127
301,1715699845.5869823,3.0849082,-3.1072323,-1.5378134,7.710175,3.27745,5.404025
302,1715699845.6132724,2.6838992,-1.7783945,-2.2182415,6.076125,3.75045,4.663725
303,1715699845.6292224,2.0202906,-1.5576911,-2.2157953,4.9330873,3.4255376,5.4434876
304,1715699845.6447487,1.9309938,-1.5245719,-1.983685,3.730375,3.202925,6.4629126
305,1715699845.661518,2.387156,-1.5279357,-1.2374159,1.7138,3.1912374,8.252612
306,1715699845.6863277,3.203058,-1.7204893,-0.55259943,-0.0939125,3.8303375,9.652363
307,1715699845.701858,3.6459787,-1.5692202,-0.164526,-0.502975,3.9975374,9.575638
308,1715699845.719889,3.211116,-1.5555505,0.31590214,-0.5467,4.1999373,9.66625
309,1715699845.7459886,3.096835,-2.0014222,-0.27022937,-0.9461375,3.1879375,10.5259
310,1715699845.7616005,3.7767587,-2.4155962,-0.6555504,-2.7751625,2.0673125,11.202263
311,1715699845.7864742,4.7722783,-2.5059175,-0.509893,-3.9853,1.515525,10.310713
312,1715699845.801972,3.6735933,-2.2671714,0.51753825,-4.4380875,1.3034999,8.847025
313,1715699845.817734,3.2503517,-2.2160094,0.89093274,-4.0759125,1.2289749,8.796975
314,1715699845.8348403,3.0350611,-2.4202905,0.9009174,-3.0745,0.6846125,9.027013
315,1715699845.8538916,3.0350611,-2.4202905,0.9009174,-2.8743,0.5322625,9.09095
316,1715699845.9329977,2.7880735,-1.1814526,0.5760398,-3.656125,-1.1316249,6.3702374
317,1715699845.9627538,3.8253822,-0.2540214,0.8326147,-2.0934374,-2.2235124,5.793975
318,1715699845.986588,4.8991895,-0.0042813458,-0.45963305,-3.0702374,-1.434125,4.1853623
319,1715699846.002555,3.8810399,0.106116205,0.31906727,-5.378725,-0.8845375,4.40055
320,1715699846.0198092,3.8588228,0.087048925,0.9628899,-5.5171876,-0.678975,4.67115
321,1715699846.0651026,7.9916363,-1.775734,-1.2598318,-8.651225,4.770975,-3.92975
322,1715699846.0870466,0.66870034,-4.1601377,7.1348624,-9.203012,7.2754,-6.755925
323,1715699846.1114638,4.4120336,-2.2830734,-1.135367,8.383375,0.0583,-2.1624625
324,1715699846.127328,4.2460704,-1.861055,-1.2894037,7.4108377,-0.6480375,-2.9667
325,1715699846.1562219,3.6857338,-1.1830734,-0.9489296,5.6637626,-0.20487499,-4.985475
326,1715699846.1714537,2.7332263,-0.8275229,-0.72221714,3.745225,0.687775,-6.013425
327,1715699846.1970048,1.7475077,-0.050657492,-0.5088685,-0.6479,4.1020374,-5.2762876
328,1715699846.212644,2.3070338,-0.08318043,0.12487768,-1.551275,3.776025,-5.6533127
329,1715699846.228298,2.3425076,-0.22029051,0.31590214,-1.666225,3.5523124,-6.0506873
330,1715699846.3287606,4.5655503,-1.405,-0.0046941894,3.916825,4.6740375,-8.220575
331,1715699846.355728,3.418043,-1.847202,-0.8806269,4.411,4.45885,-10.10405
332,1715699846.3714225,3.0583026,-1.6534098,-1.0611621,3.8710375,4.3789625,-9.574537
333,1715699846.3881583,3.4973547,-1.3759481,-1.1964374,3.2637,3.995475,-8.874662
334,1715699846.4036515,4.1616664,-1.3768654,-1.1735015,2.64165,3.3627,-9.5469
335,1715699846.4267476,3.229358,-1.3854282,-0.79001534,2.3263624,2.898225,-10.077375
336,1715699846.4564912,1.5549389,-0.92711014,-0.7262997,2.7215376,1.3706,-8.124738
337,1715699846.4723876,1.7650306,-0.7372018,-1.0147859,2.7619624,0.64625,-7.363125
338,1715699846.4990518,2.3624923,-0.6757339,-1.3833792,1.49655,-0.47547498,-7.1746125
339,1715699846.5143242,1.6161009,-0.83099383,-0.81518346,1.7414374,-1.57795,-7.4217
340,1715699846.5307195,1.3923547,-0.84831804,-0.7119266,1.9619875,-1.7985,-7.393925
341,1715699846.5505328,-0.062385324,-1.0901071,-0.07931193,3.0965,-3.2599876,-6.3767
342,1715699846.572861,-0.11120795,-1.0472019,-0.09744648,4.7711124,-3.43255,-4.8459125
343,1715699846.5886428,-0.08093272,-1.0379205,-0.34169725,5.0065126,-3.290925,-4.7106123
344,1715699846.60417,-1.2394495,-2.154939,-6.8961315,-3.83515,-3.8000875,-3.2319374
345,1715699846.7167654,-3.1098928,-4.43344,0.5184556,2.903725,2.934525,-0.2652375
346,1715699846.732396,-2.8849082,-4.284404,0.5343578,3.171025,2.9365876,0.32381248
347,1715699846.7492762,-0.4669725,-3.1611621,-1.1905199,4.22785,2.493425,2.1454124
348,1715699846.7659616,0.40509173,-2.595,-1.5554587,3.7324374,2.06525,2.165625
349,1715699846.78935,0.07665137,-2.2711468,-1.9442354,2.0185,1.279025,3.6432
350,1715699846.8161619,0.600107,-2.0646331,-1.4912385,-0.0875875,1.633775,5.6458874
351,1715699846.8317418,1.7293577,-2.0707493,-1.1122324,-0.7618875,1.633775,6.0784626
352,1715699846.85525,2.2228286,-1.6534098,0.5692202,-0.4134625,1.5186875,5.508525
353,1715699846.8741126,2.4645262,-1.1272172,0.34230888,1.3783,2.2100375,6.112425
354,1715699846.9039102,2.5313914,-0.8472936,-1.1588227,1.4326125,2.4550624,7.9468126
355,1715699846.9195335,2.7269113,-1.1350611,-1.8809327,-0.640475,2.4072125,9.031275
356,1715699846.9356842,2.632416,-1.3591285,-1.9139603,-1.7045875,2.20055,9.4627495
357,1715699846.9533985,2.6980581,-1.9384251,-1.3216056,-4.6831126,1.5709375,10.663262
358,1715699846.9688785,2.6465902,-2.2027524,-0.8157034,-5.6002374,1.1033,11.138462
359,1715699846.9903011,3.2928593,-2.7763455,-0.13180429,-6.1957498,-0.6043125,11.782925
360,1715699847.0816798,3.506422,-3.2983642,0.9892967,-4.6948,-4.2986627,9.7163
361,1715699847.1016977,6.5304737,-3.067477,0.12772171,-3.2503624,-5.59515,9.047225
362,1715699847.1172307,6.767997,-2.3860397,-0.13374618,-3.90445,-5.1253123,7.2480373
363,1715699847.1329658,5.4397554,-1.7076453,0.5224312,-4.550975,-4.5926375,5.8898125
364,1715699847.1484768,3.237202,-0.79674315,1.5897095,-4.115375,-3.8853376,5.9665375
365,1715699847.164106,3.3567736,-0.81142205,1.04026,-3.8394125,-3.4304874,6.25625
366,1715699847.1903744,4.1006117,-0.8311927,0.8282416,-5.815425,-2.888325,5.2985625
367,1715699847.2084858,3.338425,0.03414373,2.0228286,-6.6548624,-1.8869125,5.051475
368,1715699847.2240767,4.384297,0.32354742,2.202951,-6.0476623,-2.228875,5.2080874
369,1715699847.2395504,2.4715595,6.9502597,2.5173242,-10.202225,0.1274625,12.748037
370,1715699847.255314,7.9916363,-4.2670794,-1.7620796,-14.9171,8.00305,1.4753749
371,1715699847.2709506,-0.10600917,-4.051789,7.9622784,-4.3465123,6.6884127,-6.4086
372,1715699847.3065672,4.293685,-5.345061,0.8533181,14.968938,-2.0328,-1.764125
373,1715699847.3221848,4.5377216,-2.2062232,-4.677171,6.7706375,1.3514875,-1.7523
374,1715699847.3377876,4.6041746,-1.5900153,-4.581453,4.2917876,2.2719126,-1.83865
375,1715699847.3534276,2.6534097,-0.9722783,-0.6931651,-3.2833624,3.591775,-2.4990625
376,1715699847.369059,2.322217,-1.2058104,0.58654433,-3.4494624,2.9227,-2.58115
377,1715699847.4668489,2.2087615,-0.52905196,-0.45963305,4.098875,3.81975,-5.811025
378,1715699847.4916542,2.6590214,-0.8846025,-0.15157492,2.98045,4.0690374,-5.850487
379,1715699847.5082006,3.209893,-1.0288532,0.81039757,3.613225,3.608825,-6.3309126
380,1715699847.5357594,3.9832876,-1.556575,0.06116208,5.5540376,3.1634624,-8.589212
381,1715699847.5512064,3.670841,-1.6949083,-0.42813456,5.6595,2.5818374,-9.5574875
382,1715699847.566956,3.6264985,-1.7134556,-0.5850153,5.5551376,2.510475,-9.693888
383,1715699847.5917652,3.5307798,-1.7027522,-0.9711468,4.1746373,2.13015,-10.243612
384,1715699847.6022727,3.014373,-1.505,-1.1691132,3.6355,1.885125,-10.230824
385,1715699847.6171823,2.9650307,-1.4584098,-1.1563761,3.45235,1.7105,-10.1978245
386,1715699847.6264918,2.6543274,-1.3941896,-1.1581041,3.01345,0.9637375,-9.973012
387,1715699847.6421673,2.4720643,-1.2889909,-1.1710551,2.7237375,0.3938,-9.76525
388,1715699847.6578622,1.9493425,-1.153104,-1.1663609,1.93325,-0.616,-8.987687
389,1715699847.6735208,1.5912386,-0.94984716,-1.1397554,1.0500875,-1.3468125,-7.9723873
390,1715699847.6924937,1.5463761,-0.92324156,-1.1322172,0.9318375,-1.4053875,-7.8307624
391,1715699847.7098541,1.2915443,-0.7321101,-0.7332263,0.3322,-2.38865,-6.3298125
392,1715699847.7419782,0.85229355,-0.9747248,-0.52426606,0.3097875,-3.1035125,-5.745025
393,1715699847.7594702,0.73558104,-0.9351682,-0.2296636,0.45787498,-3.240875,-5.3678627
394,1715699847.852626,-2.1556575,-6.269526,-2.9743118,-17.452463,-0.8600625,2.9987376
395,1715699847.868301,-1.453211,-7.9935784,1.8463762,-19.838638,-0.29535,2.5108874
396,1715699847.8942397,-3.6465902,-6.16289,7.9622784,-1.50535,-0.46805,-2.133725
397,1715699847.9097624,-3.7024467,-5.8548474,5.398165,6.0099874,0.569525,-2.10925
398,1715699847.9405482,-1.9303824,-3.65026,-2.3745108,5.1940627,2.7586625,-0.3920125
399,1715699847.9561589,-1.9587156,-2.9967432,-2.6150918,3.0410874,2.5807376,0.04895
400,1715699847.9737298,-1.5696177,-2.657997,-0.997049,1.1768625,2.291025,1.4753749
401,1715699847.9941554,-0.8797095,-2.6074467,-0.29561162,1.8501999,1.4293125,2.656775
402,1715699848.0105722,0.65045875,-2.8416972,-0.89958715,2.4541,1.3440624,3.904175
403,1715699848.030087,1.1397554,-2.7887921,-0.8705352,2.2826376,1.4100626,4.23555
404,1715699848.0547745,1.9936849,-2.3602448,0.49021405,3.324475,2.7907,4.3302875
405,1715699848.070369,2.0549388,-2.3562691,0.2637156,3.9870875,3.285975,4.7606626
406,1715699848.0893779,2.1408715,-2.1491284,-0.3551529,4.676375,3.2220376,6.49495
407,1715699848.1058648,3.1517892,-1.7993883,-1.116315,4.6699123,2.5755124,7.9638624
408,1715699848.1211045,4.453318,-1.0820642,-2.5326147,4.0275126,2.60315,8.01185
409,1715699848.1352887,4.453318,-1.0820642,-2.5326147,2.988975,2.797025,7.684875
410,1715699848.2285397,4.753318,-2.6828747,-0.26778287,-3.4197624,1.481425,11.388713
411,1715699848.2447126,4.18604,-2.7236545,0.29980123,-3.219425,-0.3498,10.194525
412,1715699848.2607245,4.18604,-2.7236545,0.29980123,-3.051125,-1.3149124,10.1061125
413,1715699848.2775877,3.984205,-2.7443426,0.09704893,-3.0201874,-2.62405,10.1605625
414,1715699848.2933621,4.250046,-2.7894955,0.11070337,-3.5475,-2.2320375,10.956275
415,1715699848.3088312,5.9242663,-2.426101,-0.31142202,-4.6894374,-1.2584,9.837712
416,1715699848.3246167,5.7096786,-1.8008105,0.69174314,-5.2573123,-1.4064875,8.050213
417,1715699848.3401,4.680734,-1.0466819,1.8740062,-4.687375,-1.6515125,7.043575
418,1715699848.355843,4.680734,-1.0466819,1.8740062,-3.90115,-1.738825,6.4501247
419,1715699848.377967,2.8111162,-0.75432724,1.3863456,-1.8932375,-1.873025,5.593775
420,1715699848.393759,3.8261008,-0.1803211,0.009373089,-2.745325,-1.200925,6.0038
421,1715699848.4093328,4.127523,0.4778746,0.39744648,-5.093275,0.00715,4.8789124
422,1715699848.4251382,3.7679968,0.57859325,1.0810398,-5.631175,0.284075,4.3877625
423,1715699848.4471116,3.1617737,0.6216055,2.7655504,-4.382675,-1.436325,4.2642875
424,1715699848.4626079,3.1617737,0.6216055,2.7655504,-2.629275,-4.2582374,9.15695
425,1715699848.4782288,7.9916363,4.061774,0.6834862,-1.37225,-0.3337125,11.398337
426,1715699848.5022948,7.9916363,-2.9979663,3.057691,-6.827425,6.4689627,-8.799037
427,1715699848.5190132,2.9086697,-4.1923547,5.400413,-3.7371125,6.1025248,-8.808662
428,1715699848.6171815,1.3305811,-0.48512235,0.1077523,0.776325,1.7978125,-5.07705
429,1715699848.6328506,1.2622783,-0.18787462,0.47553518,0.1318625,2.6862,-4.561425
430,1715699848.6646612,1.951789,0.1393425,0.7894037,0.1733875,2.7245624,-4.8010874
431,1715699848.6788366,2.2697248,0.1327217,0.4216055,0.642125,2.576475,-5.68535
432,1715699848.694627,2.1447554,-0.3149847,-0.3285474,-0.185625,2.7693875,-6.4373374
433,1715699848.7197294,2.2802293,-0.3503517,0.08848624,-0.995225,3.0782125,-5.95595
434,1715699848.742238,3.0341437,-0.39235476,0.43914372,-0.3964125,3.9389625,-6.15615
435,1715699848.7652671,3.6891897,-0.53955656,0.3725841,0.7412625,3.9699,-7.0648875
436,1715699848.7947338,3.2842968,-1.1494342,-0.54087156,3.242525,3.944325,-9.135637
437,1715699848.8160424,3.2396483,-1.1067278,-1.335474,3.0325625,3.55025,-9.062212
438,1715699848.8375022,3.2557645,-1.0603516,-1.469526,2.9313624,3.489475,-9.066475
439,1715699848.8542922,2.6570795,-0.9551529,-1.4182416,0.945725,2.748075,-8.926912
440,1715699848.8697972,2.4003057,-0.9017278,-1.1731957,0.590975,2.3401124,-8.116213
441,1715699848.8949368,2.0696177,-0.76941895,-0.7038685,0.704,2.0695126,-7.734925
442,1715699848.9902873,0.845153,-0.9099847,0.6034709,2.50525,-1.6663625,-6.2062
443,1715699849.006326,1.2527982,-0.81631494,0.6026452,4.9522,-2.2778249,-6.0517874
444,1715699849.0219297,-0.20733945,-0.87900615,-3.7602446,4.372775,-2.7636125,-6.012325
445,1715699849.0376484,-1.2040826,-1.1508715,-5.1218195,0.863775,-3.1246874,-5.2155123
446,1715699849.0531373,-2.366055,-2.3152905,-4.5817585,-6.6869,-2.7167249,-2.0378876
447,1715699849.0688388,-2.2676911,-3.8009176,-3.5295565,-9.288262,-2.6049376,-0.8372375
448,1715699849.0893023,-2.3716667,-5.9688077,-1.6552447,-14.649662,-2.447225,1.0802
449,1715699849.1163893,-1.7234403,-7.150046,5.9306884,-14.154387,-0.7077125,0.9321125
450,1715699849.1400964,-2.7669725,-5.4228287,5.819159,3.3105874,1.6465625,-0.72655
451,1715699849.1626325,-1.6819571,-4.6040826,0.86411315,7.0294123,3.058,-0.0020625
452,1715699849.179412,-0.76188076,-3.5475078,-1.693991,6.5065,3.438325,-0.1480875
453,1715699849.1972804,-1.6457646,-3.165642,-2.6368043,4.6965876,2.2836,-0.11825
454,1715699849.209274,-2.2327218,-3.1677828,-2.6012232,3.373425,2.1366124,0.9224875
455,1715699849.2251627,-1.1312996,-3.0270183,-1.1215137,2.1803374,1.618925,3.5772
456,1715699849.2407537,-0.09674312,-2.7350612,-0.8410856,2.5180376,1.0362,4.4209
457,1715699849.2707686,1.9122324,-2.2582111,-1.1505657,2.2336874,1.8734375,4.4985876
458,1715699849.363257,2.5377219,-1.1828746,-1.101942,3.0251374,2.512675,7.1127377
459,1715699849.3803,2.3756423,-1.0767584,-1.5288532,1.3451625,2.9525375,8.4007
460,1715699849.4134872,2.7790978,-1.711208,-0.9511774,-3.0778,2.4657874,11.274725
461,1715699849.4291635,3.259633,-2.0236545,-0.628945,-3.827725,1.1650375,11.55495
462,1715699849.4593506,3.4061162,-2.4236543,0.1567737,-4.8855124,0.318175,11.31625
463,1715699849.476069,3.5229359,-2.5183487,0.1262997,-5.2285748,0.0625625,11.264137
464,1715699849.4983323,3.9053974,-2.7180429,-0.06299694,-5.883625,-0.054725,10.891237
465,1715699849.5140967,4.3827677,-3.0006115,0.056467887,-6.73475,-0.02915,10.092362
466,1715699849.5361764,4.1753364,-2.7001987,1.0425076,-6.6303873,-1.4480125,7.8584
467,1715699849.5653431,3.0924618,-2.1878746,1.7546331,-3.9747124,-3.03105,7.084
468,1715699849.5809875,2.9464831,-2.0900154,1.2699236,-2.2010999,-3.1482,7.346075
469,1715699849.5967898,4.061162,-1.7631958,0.033027522,-1.530925,-3.054425,6.8517623
470,1715699849.6267364,3.4793122,-1.0352752,-0.51620793,-3.05855,-2.6879876,4.9343247
471,1715699849.6487916,2.462798,-1.0645261,0.8555504,-4.4391875,-2.547325,5.7055626
472,1715699849.7581003,4.8951073,-2.9327216,7.9622784,3.188075,2.13345,-2.2242
473,1715699849.774338,3.8617737,-2.9657493,7.9622784,10.43515,-2.2831874,-3.18835
474,1715699849.791982,3.5132568,-3.3295567,-1.8894955,12.647662,-2.2064624,-5.642725
475,1715699849.8079083,1.9903212,-2.3152905,-3.7567735,8.755175,-0.237875,-5.5287375
476,1715699849.8235793,1.602951,-1.4393425,-3.338731,3.9114625,1.0415624,-4.4155374
477,1715699849.842234,1.2120336,-0.6396483,-1.1880734,-1.4777125,2.4413126,-2.958175
478,1715699849.8609457,1.0779817,-0.522737,1.3306881,-3.0778,3.204025,-2.0794125
479,1715699849.8811815,1.9737004,-0.5041743,3.2838988,0.3928375,3.1816125,-2.539625
480,1715699849.9068096,3.2310855,-0.9234404,2.3909328,3.6653376,3.557675,-4.09695
481,1715699849.922455,3.26789,-1.3307798,1.7136545,4.6261873,3.6716626,-5.0483127
482,1715699849.9433033,2.947202,-1.7535169,0.40672785,5.4709873,4.5057373,-5.55115
483,1715699849.9588451,3.2420948,-1.833532,0.2148777,5.47525,4.8412375,-5.5606375
484,1715699849.974575,3.7782876,-2.1229358,0.06747707,5.7927375,4.4429,-6.25625
485,1715699850.0047164,3.9701376,-2.561055,0.25974005,6.809,3.14435,-7.9990625
486,1715699850.04261,3.6676912,-2.9232416,-0.06524465,8.018038,2.453,-9.391387
487,1715699850.1133738,3.5358868,-2.9657493,-0.3224312,8.018038,2.453,-9.391387
488,1715699850.1387935,2.192355,-1.5672783,-0.6536239,2.971925,-2.1052625,-9.16025
489,1715699850.1544096,2.235367,-1.5413915,-0.69408256,2.971925,-2.1052625,-9.16025
490,1715699850.1761134,1.6930734,-1.3386391,-0.8430123,1.2962124,-3.4964874,-8.509325
491,1715699850.2048306,1.4172324,-1.1032568,-0.10133027,1.181125,-4.5106874,-7.2661877
492,1715699850.220402,1.5050918,-1.1306881,0.082155965,1.6339124,-4.7993,-6.8336124
493,1715699850.2381232,1.3774772,-0.44750768,-0.091024466,4.253425,-5.3746,-7.7273626
494,1715699850.2590332,0.49785933,-0.37359327,-1.3072324,2.8078876,-7.4859123,-5.8249125
495,1715699850.2670562,-0.05087156,-0.69766057,-4.8426147,2.8078876,-7.4859123,-5.8249125
496,1715699850.282459,0.934052,-3.820902,-6.5752296,-9.421363,-5.6557875,-2.9018
497,1715699850.2983892,0.5281346,-6.8191586,-3.0693119,-13.72085,-4.24545,-2.81545
498,1715699850.3140063,-3.864327,-7.9935784,5.270535,-14.079863,-3.8341875,-2.6343625
499,1715699850.3295677,-5.0118194,-7.956468,5.453624,-10.2522745,-3.9034874,-0.9086
500,1715699850.3460696,-4.2520947,-7.652798,2.8045871,-7.2813125,-1.9977375,3.4632125
501,1715699850.3616784,-0.8077523,-6.4157033,4.7179356,-6.8679876,1.533675,3.4887874
502,1715699850.3773022,-0.8755352,-5.477263,6.013456,-4.6723876,1.750925,2.47885
503,1715699850.3987703,-0.49480122,-3.5954127,4.417538,5.330325,1.566675,1.53505
504,1715699850.4143875,0.37512234,-3.4025536,2.3186543,7.2829623,1.868075,1.36455
505,1715699850.491999,1.1224312,-2.675734,-1.6069266,3.45125,4.2521873,1.9569
506,1715699850.5087411,0.6884862,-2.61448,-1.8084557,4.809475,3.4969,5.8823876
507,1715699850.525249,0.30928135,-2.3145719,-2.2194648,3.2488499,2.982375,7.6465125
508,1715699850.5512357,1.9138685,-2.6237462,-2.3522935,-0.940775,2.1547625,12.663887
509,1715699850.5669637,3.169832,-2.8099847,-2.17237,-3.5102375,1.99705,13.506488
510,1715699850.5824552,3.6135626,-3.0342507,-1.6081498,-4.553175,1.76165,13.621575
511,1715699850.599289,4.6824617,-3.0574923,0.12946483,-5.2498875,-0.1846625,12.896125
512,1715699850.6150272,4.56922,-2.7924616,1.6646332,-2.559975,-1.9988375,11.590013
513,1715699850.6306188,5.129159,-2.703364,1.3873547,-0.7437375,-2.195875,11.1342
514,1715699850.6462386,4.810092,-2.2667737,0.06891437,0.438625,-1.7538124,9.366913
515,1715699850.6618736,4.101116,-1.8046942,-0.10010704,0.76147497,-1.2722875,8.917288
516,1715699850.6775224,3.9505656,-1.6836851,-0.582156,0.48455,-0.660825,8.8481245
517,1715699850.7063906,2.9982722,-2.0964375,-0.5657492,-2.6526499,1.3110625,9.282763
518,1715699850.7219946,3.9010243,-2.1024466,-0.3617737,-3.83405,0.2979625,8.481688
519,1715699850.7468367,3.3319113,-1.707844,0.39674312,-3.926725,-0.2943875,7.041375
520,1715699850.7626255,2.8633027,-1.5840979,0.44189602,-3.7063124,-0.1846625,6.7846622
521,1715699850.7831295,2.35026,-1.3747247,0.10948012,-4.0088124,0.249975,6.9327497
522,1715699850.8019395,2.3654435,-1.5233487,-0.013455657,-4.2740498,0.434225,7.1234627
523,1715699850.8816078,3.1579053,-0.1614679,1.9477063,-4.3837748,-1.8613375,5.2294
524,1715699850.9005642,1.3735933,1.0116209,3.5053058,-6.6548624,-3.46775,6.6152625
525,1715699850.9162574,1.532416,4.1718655,0.30347094,-9.304213,-7.8428626,13.718513
526,1715699850.9323277,7.9916363,-4.2504587,6.919159,-16.170963,11.410712,6.2519875
527,1715699850.9481404,3.8609633,-3.5436237,7.9622784,-0.6138,3.3595374,-5.6225123
528,1715699850.9635775,3.5053976,-4.0537157,7.9622784,3.5684,1.69125,-5.525575
529,1715699850.9793537,2.875948,-6.4310856,-1.8519878,18.05925,-1.88155,-5.7481875
530,1715699851.0000918,1.9998013,-5.016514,-4.069725,5.9791875,2.6170375,-1.913175
531,1715699851.0157065,2.7896025,-0.113868505,-3.1437309,-2.6153874,3.8676,-0.96195
532,1715699851.031311,2.4535167,-0.10825688,0.3005046,-4.3613625,2.663925,-1.813075
533,1715699851.0470371,1.7116208,-0.37818044,3.080627,-2.747525,2.23135,-2.9689
534,1715699851.062593,1.4860398,-0.7193731,3.7642202,-0.417725,2.038575,-3.39075
535,1715699851.078288,1.7359786,-0.77655965,3.1305811,4.419525,1.127775,-4.157725
536,1715699851.1001523,2.7173243,-0.7548471,0.17970948,5.863,1.96185,-4.3718123
537,1715699851.1167135,2.8557644,-0.7804281,-0.18796636,5.1684875,2.478575,-4.9545374
538,1715699851.1457267,2.886743,-0.71090215,-0.58012235,2.9324625,3.272225,-5.98785
539,1715699851.167194,2.5154893,-1.3383332,0.90561163,2.9346626,2.4572625,-7.13295
540,1715699851.4319434,1.4009175,-1.0200764,-0.5897095,1.0789624,-2.5037374,-6.9540625
541,1715699851.4481912,-0.095305815,-0.6125382,-2.7176301,1.435775,-3.5924625,-4.3718123
542,1715699851.4639354,0.10519878,-2.1740062,-3.9703364,-5.7462626,-3.1268876,-2.9348
543,1715699851.4851654,-2.5527065,-4.4102907,-1.8414832,-10.555875,-2.4728,-1.8770125
544,1715699851.5009515,-4.296223,-5.9561625,-0.40928137,-13.92325,-2.2650375,2.0015874
545,1715699851.5169024,-3.1105964,-7.0373087,2.2463763,-15.06945,-0.46475,3.1488874
546,1715699851.5404913,-1.9364985,-6.315596,7.9622784,-7.6679626,0.2820125,0.4772625
547,1715699851.5565426,-2.4116209,-5.788272,7.9622784,-4.7971,0.437525,-0.413325
548,1715699851.6325965,-2.1187615,-3.9155965,-0.6506575,6.6374,2.931225,0.99605
549,1715699851.6496594,-1.2767584,-3.0398624,-0.75218654,2.4094124,2.13345,2.4501126
550,1715699851.665302,0.84250766,-2.856162,-0.29510704,4.884,1.162975,4.6435122
551,1715699851.680911,1.5017278,-2.6589146,-0.7988838,5.2685876,1.2236125,4.8629622
552,1715699851.701922,2.6592202,-2.135474,-2.0261927,2.701325,2.46895,4.224825
553,1715699851.718547,2.1797097,-2.2308867,-0.1972477,2.144175,2.7768126,4.46985
554,1715699851.742346,2.6397555,-2.3634098,1.1827675,4.1149626,2.4913626,5.5809875
555,1715699851.7637308,2.8554587,-2.2540214,0.5670795,6.662975,2.53495,5.9665375
556,1715699851.786817,2.8657491,-1.8594342,-1.6239603,6.8110623,3.7142875,7.7008247
557,1715699851.8026123,3.2249694,-1.2346636,-3.4024465,3.0965,4.5068374,8.82145
558,1715699851.81824,2.9797094,-1.1513761,-3.2618809,-0.19305,4.8147,9.5128
559,1715699851.8338735,2.441789,-1.6670796,-1.9929663,-3.875575,4.4534874,10.910487
560,1715699851.8498278,2.3229358,-2.12763,-1.1241591,-5.159275,3.68335,11.843562
561,1715699851.8581681,2.4139605,-2.619679,-0.3831804,-5.7047377,2.9280624,12.710775
562,1715699851.8826485,3.1361928,-3.390413,0.21467891,-5.7633123,2.460425,13.7407875
563,1715699851.9025812,4.9204893,-3.2416973,-0.33833334,-5.6962123,3.0218375,12.80345
564,1715699851.918318,4.2568808,-2.8239603,0.12507646,-6.3811,2.4220624,9.927225
565,1715699851.9339807,4.038226,-2.7861314,0.19123854,-6.3353124,1.8990124,9.5788
566,1715699852.022702,3.515902,-1.0410857,0.23047401,-1.4521375,-2.2490876,5.017375
567,1715699852.0387104,2.8142662,-0.75188076,0.0062232413,-2.35125,-1.7249374,5.06
568,1715699852.0542083,2.762691,-0.65249234,0.097752295,-2.5004375,-1.6632,5.135625
569,1715699852.0787964,4.5702295,-0.54148316,0.9209021,-2.7495875,-2.1126876,4.70415
570,1715699852.1064641,4.8028593,0.3182416,1.7143731,-1.37115,-2.2331374,3.3407
571,1715699852.129869,3.411728,2.1398623,1.2316055,-1.8558375,-2.2939124,4.2802377
572,1715699852.1457858,7.9916363,3.5183487,1.599893,-2.1179125,-1.7942375,7.5953627
573,1715699852.1679986,7.9916363,-0.12610091,-0.9774771,-3.80215,2.1153,-1.7406125
574,1715699852.183666,0.76044345,-2.503257,4.5071406,-2.3171499,3.9017,-5.34875
575,1715699852.205583,1.9280274,-2.0478134,2.946896,4.3322124,1.2651374,-1.292225
576,1715699852.2357063,4.1362844,-0.91345567,0.41284403,6.7621126,-0.5522,-5.0653625
577,1715699852.251473,3.0024464,-0.9521865,0.057492353,6.2539124,-0.56168747,-6.5993123
578,1715699852.2736278,1.4555504,-0.6967431,-0.5164068,4.8137374,-0.13035,-6.512
579,1715699852.2937126,1.5168196,0.195,-0.12568808,0.4323,2.7523375,-4.882075
580,1715699852.3096018,1.7095872,0.19276759,0.016207952,0.1073875,2.87155,-4.867225
581,1715699852.4095268,3.7782876,-0.68674314,0.62588686,1.470975,4.0935125,-7.0478373
582,1715699852.4354923,4.3232417,-1.2707492,-0.11396025,3.25105,3.92095,-8.85335
583,1715699852.4512408,3.9088683,-1.7285473,-0.7602446,3.6238124,3.3946,-9.773775
584,1715699852.4691956,3.4392507,-1.8657492,-0.9942966,3.274425,3.4244375,-9.746138
585,1715699852.4860232,3.293578,-1.7591286,-1.0326147,2.9910374,3.000525,-9.331713
586,1715699852.5163922,3.3006117,-1.656575,-1.1998013,2.195325,1.8330125,-9.186788
587,1715699852.5319848,2.6375077,-1.4557645,-0.98899084,2.1080124,1.5783625,-9.0568495
588,1715699852.5482004,2.2316973,-1.2229358,-0.98337924,2.1143374,0.38747498,-8.387913
589,1715699852.5642343,2.2805352,-1.201422,-0.9989756,2.0461376,-0.037675,-8.225938
590,1715699852.579903,1.8760399,-1.1096789,-0.91426605,1.6328125,-0.80355,-7.582575
591,1715699852.6236076,1.5470948,-0.91243124,-0.34587157,2.2070124,-1.6611375,-6.2211876
592,1715699852.6391602,1.2586086,-0.8431193,-0.32068807,2.547875,-2.0552125,-6.2712374
593,1715699852.6551812,0.5928593,-0.5554587,-0.0803211,3.8677375,-3.425125,-6.7815
594,1715699852.6708086,-0.21396025,-0.5629969,-0.44567278,4.4600873,-3.475175,-6.89865
595,1715699852.6865752,-1.316101,-1.2814527,-4.0669727,1.7766374,-4.6693625,-5.8674
596,1715699852.7890313,-2.3013303,-4.9020333,3.3993886,4.0382376,0.7261375,-1.4359125
597,1715699852.805501,-1.6280276,-3.9798167,-0.08084098,5.1588626,2.87485,-0.6433625
598,1715699852.8211179,-1.1715597,-3.1958256,-1.7706422,5.080075,2.4902625,0.7126625
599,1715699852.8367324,-0.9107033,-3.0423088,-2.3869572,4.5826,2.4413126,1.0822625
600,1715699852.8522415,-0.40570337,-2.7299695,-1.6512692,1.7584875,0.84122497,2.756875
601,1715699852.8678544,-0.25371557,-2.691636,-1.0394496,1.4975125,0.4076875,3.3055
602,1715699852.8890455,0.30845568,-2.4673853,-0.36004588,1.8149999,-0.0792,4.394225
603,1715699852.8996267,1.3584098,-2.2681959,-0.6236544,1.29195,0.6089875,5.4030623
604,1715699852.9274237,1.9602447,-1.9868501,-0.15840977,1.0033375,1.331275,5.5691624
605,1715699852.9487603,3.1905198,-1.75474,0.70958716,2.8983624,1.042525,5.2911377
606,1715699852.9650507,3.3252754,-1.640474,0.88868505,3.4342,1.25565,4.9247
607,1715699852.9807026,2.7073395,-1.3671713,0.28593272,6.139925,1.98,4.3399124
608,1715699853.005171,2.8349693,-0.98857796,-1.912737,5.246175,3.6663,5.2848125
609,1715699853.0206475,2.658517,-0.8524006,-2.9469879,1.0927125,4.9168625,6.5993123
610,1715699853.0441568,2.3043883,-0.84556574,-2.5364985,-1.0197,4.803975,7.430225
611,1715699853.0595646,1.9988837,-1.317844,-1.5409786,-3.9363499,3.689675,9.307238
612,1715699853.076496,2.3683028,-1.6672783,-1.0058104,-4.78115,2.5136375,10.095525
613,1715699853.1528986,3.2412844,-2.2706423,0.07288991,-4.856775,-0.2762375,9.490388
614,1715699853.1755471,3.3767586,-2.3611622,0.09551988,-4.5467124,-2.6560874,9.556525
615,1715699853.2055416,5.1288533,-2.4819572,-0.16524465,-6.6070123,-1.7527125,10.126462
616,1715699853.2210221,5.566468,-2.3050919,-0.018853212,-7.0703874,-1.4053875,9.635312
617,1715699853.2367945,5.356376,-1.6624924,1.4666667,-7.6008625,-1.3457125,6.8165627
618,1715699853.2523022,4.217538,-0.6435321,3.134052,-4.00345,-3.3111374,5.0110497
619,1715699853.267918,4.0891895,-0.6527982,2.8844037,-3.19385,-3.3154,4.9897375
620,1715699853.2845097,4.6246634,-0.4795107,0.6204893,-2.529175,-2.4909499,5.41475
621,1715699853.308419,6.022324,0.14862385,0.893578,-5.1007,-1.672825,5.6788874
622,1715699853.3241029,7.742707,0.024159022,0.78960246,-5.7941127,-2.2138875,5.2229376
623,1715699853.3397384,7.9916363,-0.5209939,0.8389449,-6.1692123,-2.1297374,4.294125
624,1715699853.3553655,6.3450613,0.7880734,3.2077525,-6.1681123,-3.70315,3.0839875
625,1715699853.3709915,7.9916363,0.71793574,4.0639143,-6.50155,-1.2359875,4.587
626,1715699853.3866172,7.9916363,-0.69429666,6.0959177,-3.6785374,3.7228124,0.141625
627,1715699853.4061213,4.201223,-1.5597401,4.7270184,5.787375,1.3696375,-2.9805875
628,1715699853.4278824,3.865642,-1.5667737,3.5787003,6.4340377,1.1544499,-3.1361
629,1715699853.4404826,3.0959175,-0.88735473,0.41304278,7.4875627,1.22045,-4.0618873
630,1715699853.4486449,2.8225229,-0.6066208,-0.110091746,6.733375,1.2843875,-4.378275
631,1715699853.5460742,1.1961315,0.07053517,0.26666668,1.367575,2.2847,-4.6541
632,1715699853.5673237,2.507951,-1.0108105,1.4383333,1.266375,4.4312124,-4.4325876
633,1715699853.5907626,3.267477,-1.1013303,1.2174312,3.2637,4.6751375,-4.83945
634,1715699853.6065679,3.903257,-1.3715596,0.49460244,4.7455373,4.5441,-6.0517874
635,1715699853.6221285,3.9307797,-1.4130428,0.40642202,4.851,4.5398374,-6.2211876
636,1715699853.637721,4.0111165,-1.7857339,-0.34025994,5.314375,4.7997127,-8.085412
637,1715699853.6534474,4.0071406,-1.8447554,-0.29530582,5.4102125,4.7859626,-8.308988
638,1715699853.6689706,4.009373,-1.9336393,-0.5547401,5.872625,4.1020374,-8.979162
639,1715699853.6846952,4.0152907,-1.8545413,-1.0777829,5.6893373,3.6779876,-9.571375
640,1715699853.7069726,3.4246635,-1.6297706,-1.3228288,4.9757123,3.017575,-9.861088
641,1715699853.7225966,3.0870488,-1.4979663,-1.3790061,4.1287127,2.1280875,-9.605474
642,1715699853.7382815,2.441789,-1.0967431,-1.3272171,3.191375,1.2491875,-8.824613
643,1715699853.7915945,1.8145719,-0.87584096,-1.1683028,1.5816625,-0.6821375,-7.9308624
644,1715699853.8279932,0.7880734,-1.0393425,-0.2811468,1.4762,-2.971375,-5.7140875
645,1715699853.9306908,-2.5280275,-6.772064,-1.1155963,-18.798862,-1.2274625,1.8503375
646,1715699853.9472144,-2.0099847,-7.406835,1.112737,-19.493513,-1.0165375,1.7897
647,1715699853.9563873,-1.5857339,-6.510398,7.9622784,-19.493513,-1.0165375,1.7897
648,1715699853.9649498,-2.6620796,-5.2256885,7.9622784,-6.8594623,-0.8217,-1.6149375
649,1715699853.9728389,-2.7321103,-5.3701377,7.9622784,-1.20395,-1.3937,-2.486275
650,1715699853.982487,-3.6844037,-5.1863456,4.071254,4.3151627,-0.0886875,-2.927375
651,1715699853.9906473,-3.8003058,-5.082462,2.6701376,4.3151627,-0.0886875,-2.927375
652,1715699853.9986372,-3.8003058,-5.082462,2.6701376,4.76905,0.737825,-2.5012624
653,1715699854.01485,-1.859633,-3.5324156,0.364526,4.6635876,3.0144124,-0.65835
654,1715699854.0303583,-1.3187615,-2.8378134,-1.217844,4.9575624,2.9440124,-0.5421625
655,1715699854.046108,-1.2023394,-2.4964373,-1.8900152,4.7306876,1.8469,0.6424
656,1715699854.061742,-0.84648323,-2.314373,-1.7870489,3.1370625,1.22045,1.97285
657,1715699854.0773544,-0.51120794,-2.3219113,-1.6771712,2.7482126,1.0382625,2.464
658,1715699854.0929904,0.6006116,-2.2269113,-1.2488227,1.6168625,1.0351,3.3427625
659,1715699854.1149771,0.70142204,-2.2797093,-0.90255356,0.9084625,1.2289749,3.7508626
660,1715699854.1305926,0.63700306,-2.3611622,-0.6194648,0.77,1.3344375,3.9936874
661,1715699854.1566,0.68879205,-2.7360857,0.20366973,1.9556625,1.5092,5.3337626
662,1715699854.1790273,1.2668655,-2.6950002,-0.05351682,3.272225,1.7839249,6.6930876
663,1715699854.194627,3.0187616,-2.135887,-1.5356728,3.3352,2.5179,7.50805
664,1715699854.2156134,3.4390366,-1.8316054,-1.8460704,2.7823124,2.3879626,7.43655
665,1715699854.2935622,3.4915445,-2.3592203,-0.87451077,-2.55145,0.269225,11.6028
666,1715699854.3161097,4.443532,-2.6200764,-0.69337916,-4.973925,0.773025,10.64525
667,1715699854.3346837,4.360138,-2.6352751,-0.078088686,-5.3329372,0.1445125,10.047538
668,1715699854.3512769,3.9676914,-2.5405657,1.2313914,-3.0042374,-3.0672126,8.7053995
669,1715699854.366982,3.6865442,-2.485627,0.85607034,-2.0007625,-3.4230626,8.6691
670,1715699854.3825314,3.407752,-2.5624924,-0.18970948,-1.6396875,-3.5157375,8.9727
671,1715699854.3981097,3.972584,-2.5837922,-0.71365446,-3.185325,-2.1234124,9.877175
672,1715699854.4161956,5.003471,-2.316009,-0.04882263,-5.632275,-0.8738125,8.359175
673,1715699854.4318678,4.8564677,-2.2508717,0.22313455,-5.7728,-0.9229,8.093938
674,1715699854.4508977,3.1793118,-1.2209022,1.919373,-3.49965,-2.5069,7.1746125
675,1715699854.46707,3.4639144,-1.2697247,0.08237003,-2.7038,-1.958275,7.7647624
676,1715699854.4965746,5.040566,-1.7407799,0.15657492,-8.446625,0.941325,7.10105
677,1715699854.508674,5.2609634,-1.7656423,0.8284404,-8.8099,0.9051625,6.7826
678,1715699854.5320544,6.15974,-2.0859327,2.5170183,-7.7457876,0.0231,4.7766123
679,1715699854.5437894,6.144847,-2.3219113,2.6850154,-5.6801248,-1.821875,3.52385
680,1715699854.5644612,6.789908,-2.374312,2.5546331,-4.7821126,-2.583625,3.2107625
681,1715699854.5802085,7.3570795,-1.6121254,2.9422019,-4.031225,-2.195875,1.8247625
682,1715699854.5958505,7.0354743,-1.4530122,3.261468,-3.690225,-1.488575,1.0407375
683,1715699854.682938,2.291743,-1.177263,1.9125383,4.4760375,1.3930125,-2.9220126
684,1715699854.7006972,1.1432263,-1.0771713,1.257997,4.506975,2.5510375,-2.860275
685,1715699854.7190402,1.359633,-1.0652447,1.088578,4.1778,2.931225,-2.6929374
686,1715699854.7356505,1.6314985,-1.0839908,1.0478135,3.6707,3.3903375,-2.6280375
687,1715699854.7512286,2.287049,-1.3537157,1.0698318,3.7494874,3.6716626,-2.7344625
688,1715699854.766896,2.5942965,-1.4993883,0.9982722,3.948725,3.8484874,-2.9018
689,1715699854.7825303,2.9198778,-1.6299695,0.8214067,4.6358123,4.576,-3.3587124
690,1715699854.8010523,3.5376148,-1.8442355,0.46972477,5.0758123,4.7592874,-3.6986125
691,1715699854.8168285,3.5376148,-1.8442355,0.46972477,5.4561377,4.6666126,-4.2194624
692,1715699854.8324635,3.6428132,-2.3994954,0.4735933,6.8814626,4.0273747,-5.4659
693,1715699854.8479497,3.8943884,-2.604786,0.33475536,7.4065747,3.894275,-5.8801875
694,1715699854.8649285,4.35474,-2.879098,-0.06769113,8.085137,4.0071626,-6.8539624
695,1715699854.8805642,4.567997,-3.028639,-0.42691132,8.198025,4.148925,-7.6773124
696,1715699854.89628,4.6586084,-3.0525994,-0.46860856,8.1928,4.1914124,-7.8541374
697,1715699854.9196754,4.134358,-3.0177372,-0.84495413,8.161862,3.14215,-9.874975
698,1715699854.9443119,3.6115139,-2.763104,-0.85301226,7.850837,2.046,-10.3362875
699,1715699854.9621856,3.3574922,-2.493165,-1.4714526,7.1647124,0.7613375,-10.37355
700,1715699854.977944,3.385122,-2.3980582,-1.6894038,6.6182876,0.436425,-10.40765
701,1715699855.1386228,-2.5136545,-4.8837924,-6.2524924,-9.455462,-2.65815,-3.145725
702,1715699855.1542504,-3.2101989,-7.9935784,1.2230428,-19.629774,-0.93885,0.1012
703,1715699855.1697862,-2.8998013,-7.9935784,5.427722,-18.300425,-0.89196247,0.0457875
704,1715699855.1853483,-3.846988,-6.5238533,7.9622784,-7.8309,-0.1984125,-0.381425
705,1715699855.2019494,-3.076254,-5.8150916,7.9622784,3.882725,0.31075,-1.1578875
706,1715699855.2182715,-1.0148777,-3.8149848,-2.2392507,9.679862,1.7329125,-1.0982125
707,1715699855.2339869,-0.82160556,-3.0814526,-3.3306882,7.492925,2.7779124,0.2077625
708,1715699855.2491415,-1.6055046,-2.1988838,-3.3475075,6.04945,2.5647874,0.7115625
709,1715699855.266111,-1.3478135,-2.1974466,-2.7974465,2.162325,2.0695126,3.35775
710,1715699855.281588,-0.46778288,-2.3753364,-2.2231345,0.38225,0.9361,4.8565
711,1715699855.2973444,0.88012236,-2.3833792,-0.9906269,0.31405,0.636625,4.9823127
712,1715699855.3241854,1.9378134,-2.0539298,0.029159022,1.4442999,0.774125,4.47205
713,1715699855.340331,1.0655504,-2.4273243,0.29174313,3.257375,0.7187125,4.3973875
714,1715699855.4412699,2.245566,-0.9707492,-0.5057034,-0.738375,2.2441375,6.8113375
715,1715699855.4574172,1.908058,-1.3393425,-0.46616206,-1.920875,1.5933499,8.68725
716,1715699855.4731328,2.375948,-1.5392509,-0.6685015,-2.7325375,1.4484249,9.507438
717,1715699855.4886377,2.853318,-1.9518808,-0.47909787,-4.94725,1.4675375,10.328862
718,1715699855.5191607,3.770948,-2.5181499,0.83425075,-6.1670127,0.3619,10.600425
719,1715699855.5347722,3.8024466,-2.4803212,1.4269114,-5.7770624,-0.591525,10.198788
720,1715699855.5486941,3.9366975,-2.4005046,1.443731,-3.912975,-2.0488875,9.4138
721,1715699855.5568652,3.8444495,-2.392156,1.200107,-3.2769,-2.2726,9.230513
722,1715699855.580435,4.43578,-2.300413,0.19368501,-3.623125,-2.229975,9.619363
723,1715699855.5962188,4.6378136,-2.1515749,0.15218654,-4.4477124,-1.9562125,9.628987
724,1715699855.6197097,4.811116,-1.6270183,0.84403676,-5.478825,-1.7292,8.78625
725,1715699855.6353354,4.495826,-0.7741132,1.6306881,-4.7821126,-1.74955,6.873075
726,1715699855.6509504,3.948318,-0.63007647,1.5505658,-4.07165,-1.61095,6.1774626
727,1715699855.666598,3.4268043,-0.63038224,0.88501525,-3.7734125,-1.6291,6.5759373
728,1715699855.682092,5.195719,-0.6894037,0.16238531,-5.2317376,-0.39985,7.093625
729,1715699855.697841,5.6782875,-0.36360857,0.51946485,-6.6666875,-0.05995,6.25955
730,1715699855.7202542,6.1380277,0.17003058,1.1400613,-7.3995624,-0.256025,4.511375
731,1715699855.7359045,5.7926607,0.22793578,1.4390367,-7.8266373,-0.691625,3.6155624
732,1715699855.818058,5.7926607,0.22793578,1.4390367,-7.8714623,-1.3030875,3.4749
733,1715699855.8397002,1.4313914,-1.6709479,2.121208,5.6392875,0.4640625,-1.5041125
734,1715699855.8566878,2.4361928,-1.0361927,1.8486238,5.822575,-0.2847625,-1.5222625
735,1715699855.8722079,2.5564678,-0.71814984,1.9071407,6.3636374,-0.2261875,-2.596
736,1715699855.887815,2.0256882,-0.51120794,1.34974,6.5586123,0.2531375,-3.7668126
737,1715699855.9035223,1.3323089,-0.41090214,0.782263,6.0654,0.721875,-4.1716123
738,1715699855.9205737,1.0733945,-0.054633025,0.16044343,3.0677624,2.73845,-3.8743374
739,1715699855.9407897,1.6078441,-0.4124312,1.0258869,1.1545875,3.5118876,-3.8094375
740,1715699855.9566326,2.0283334,-0.5271101,1.3170184,1.1705375,3.591775,-3.8328125
741,1715699855.9731047,2.9508715,-0.6261926,1.7136545,1.6924875,3.523575,-4.2642875
742,1715699855.9893234,2.827217,-0.71376145,1.6319113,2.9335625,3.5085876,-5.0216374
743,1715699856.0049965,2.9721713,-0.93567276,1.4883792,3.7239125,4.313925,-5.0323625
744,1715699856.0356252,4.2573857,-1.5065291,1.3031652,4.9501376,4.7262874,-5.3284
745,1715699856.0512486,4.461361,-1.8013303,1.122737,6.6705375,3.6557124,-6.991325
746,1715699856.0667567,4.3554587,-2.2501528,0.23047401,7.46515,3.6727624,-8.378287
747,1715699856.0818634,4.029159,-2.3006115,-0.118149854,7.3789372,3.6183126,-8.592375
748,1715699856.0898607,3.6368961,-2.1515749,-0.6152905,6.7973123,3.5864124,-8.51785
749,1715699856.1054792,3.4568808,-1.8848165,-0.929159,5.6179748,3.471325,-8.14495
750,1715699856.1997554,1.6959175,-1.4711468,-0.56747705,3.443825,-0.60005,-7.2406125
751,1715699856.221382,1.6535168,-1.1343578,-0.5303823,2.7374876,-0.76945,-6.8006124
752,1715699856.237621,1.6125383,-1.1685015,-0.21701835,1.7831,-1.3627625,-6.32555
753,1715699856.2653406,0.6359786,-1.0657493,0.6219113,3.6047,-2.58995,-4.9577
754,1715699856.2810135,0.5740061,-0.7384251,0.569526,4.66785,-3.52,-4.613675
755,1715699856.3026907,1.5026453,-0.58593273,-2.785428,1.5657125,-3.812875,-5.2954
756,1715699856.3254766,0.82538223,-2.4365902,-6.7401686,-4.6074877,-3.1257875,-5.6799874
757,1715699856.3585472,-5.7806273,-7.9596334,4.5171256,-14.564549,-1.3905375,-4.7169375
758,1715699856.3742757,-8.002034,-6.4366975,6.9440365,1.79905,-0.7385125,0.8138625
759,1715699856.3897479,-3.2043884,-4.9506574,0.3788991,6.3124876,1.3014375,2.97
760,1715699856.4055235,-1.4827676,-3.7235472,-0.80662084,5.8001623,2.6691499,2.6269374
761,1715699856.4301054,-0.633945,-2.2042813,-1.2579052,5.7586374,2.486,1.543575
762,1715699856.446756,-0.34423548,-1.870841,-3.0924618,4.2736373,2.594625,1.676675
763,1715699856.4630077,-0.6456728,-1.8323089,-2.985627,2.328425,2.644675,2.1731875
764,1715699856.4801517,-0.028241592,-2.1876605,-0.6072324,0.4642,1.59005,3.450425
765,1715699856.4959204,0.24454129,-2.1747248,-0.024464833,0.6485875,0.84975,3.7827625
766,1715699856.5941918,2.3583028,-1.8918502,-0.8913303,1.0000376,2.0279875,7.9277
767,1715699856.6059346,2.2941895,-1.7778746,-1.0182416,0.4514125,1.66045,8.037425
768,1715699856.6137793,2.1972477,-1.7010244,-1.0572935,-0.4849625,1.5933499,8.426275
769,1715699856.6443374,2.7087615,-2.0959175,-0.46330273,-4.5882373,2.1792376,10.079575
770,1715699856.6597939,2.8769572,-2.29185,-0.12844038,-5.4500875,2.5658875,10.301087
771,1715699856.6754174,3.5412843,-2.553211,0.882156,-6.7582626,3.237025,9.9869
772,1715699856.6955473,3.4217126,-2.5556574,1.6999999,-6.3353124,2.0172625,8.869437
773,1715699856.722017,3.1043885,-2.2636087,2.1634097,-2.9766,-1.5907375,7.6294622
774,1715699856.743673,2.7544343,-2.0871558,1.4407798,-2.0785875,-1.8869125,7.6976624
775,1715699856.7594316,2.7798164,-1.9755352,1.0358869,-1.568325,-1.3308625,8.023538
776,1715699856.7770424,3.478593,-1.7896025,0.3783945,-2.392775,-0.2996125,7.9063873
777,1715699856.7936296,3.478593,-1.7896025,0.3783945,-3.0394375,0.0039875,7.4333873
778,1715699856.8219686,2.9594343,-1.7715597,0.43649846,-5.1891127,0.1797125,6.4779
779,1715699856.8390274,2.6107035,-1.540474,1.1244648,-5.2039623,0.0242,6.6675124
780,1715699856.854684,3.6545413,-1.4564679,1.306529,-4.635125,0.032725,6.1934123
781,1715699856.8702893,3.8053057,-1.5121254,1.1505657,-4.5808125,-0.0099,6.045325
782,1715699856.9808712,5.3358865,-0.054633025,5.8765597,-1.4319249,1.9234875,3.922325
783,1715699856.9971538,7.9916363,0.44362384,6.532523,1.7532625,0.7986,3.111625
784,1715699857.018704,6.3142657,0.07420489,3.4078438,3.6718,3.6727624,-1.070575
785,1715699857.0348241,1.3203822,-0.9099847,1.1937768,0.9681375,5.377075,-1.8514374
786,1715699857.0503204,0.948211,-0.96544343,3.3427062,0.8413625,3.5278375,-1.2207249
787,1715699857.0694177,1.0613608,-1.046896,3.0568807,4.0467625,0.1871375,-0.8820625
788,1715699857.0972676,1.2215137,-0.874419,2.3135626,6.0792875,-0.9218,-1.23255
789,1715699857.1171827,1.2090672,-0.25474006,0.73108566,5.382575,0.7539125,-1.4955875
790,1715699857.133919,1.3554587,-0.13558105,0.48623857,4.7295876,1.45695,-1.6075125
791,1715699857.1476235,1.696942,0.057079513,0.6248777,2.766225,2.67025,-2.3904376
792,1715699857.16365,1.1331346,-0.8690061,1.1818501,1.183325,3.1560376,-4.241875
793,1715699857.1800847,1.0209022,-1.1428134,1.3336391,1.0076,3.091,-4.2535625
794,1715699857.195588,0.52548933,-2.1649387,3.7134557,3.1519125,4.1094623,-1.865325
795,1715699857.2231987,2.6980581,-3.0506575,3.3932722,7.8753123,2.6159375,-0.9587875
796,1715699857.2389088,2.9235475,-3.3676913,2.8067276,11.3491125,0.528,-2.11035
797,1715699857.2546494,2.9396484,-3.493379,2.5129511,11.643087,0.3608,-2.2903376
798,1715699857.3423061,3.339954,-2.7184556,0.9721713,6.004625,2.746975,-5.65015
799,1715699857.3585582,2.6733944,-2.7894955,1.3219113,6.241125,1.7892874,-6.2616124
800,1715699857.3741767,2.3402598,-2.8007188,1.2254894,7.2116,0.07315,-6.2871876
801,1715699857.3897293,2.2392507,-2.5393426,0.5889908,7.63235,-1.61095,-6.28925
802,1715699857.4054997,2.2877676,-2.4334404,0.39796636,7.4182625,-2.2928126,-6.42675
803,1715699857.423384,2.4288533,-2.301422,0.15799695,7.0156627,-2.9159625,-6.69515
804,1715699857.4388416,2.2107034,-2.217431,-0.15504587,5.838525,-3.678675,-7.6709876
805,1715699857.454585,1.9425077,-2.2430122,-0.14740062,5.570125,-3.8555,-7.9245377
806,1715699857.471461,0.010703363,-2.1633027,0.259526,5.2941623,-5.12215,-8.101362
807,1715699857.4890585,-1.378792,-1.5219113,1.3702294,7.1732373,-6.933025,-5.7237124
808,1715699857.5047004,-1.0693119,-1.4469879,0.9084556,8.879888,-6.8937,-4.7606626
809,1715699857.523572,-0.094801225,-1.9270184,-4.700107,9.801275,-7.051275,-4.6552
810,1715699857.5390675,-1.7087615,-2.5705352,-7.150153,-7.1971626,-3.6306875,-6.2403
811,1715699857.5547013,-4.230887,-7.5442357,-0.05056575,-17.503613,2.310275,-5.575625
812,1715699857.5702958,-6.050352,-7.087355,6.173807,-13.982924,1.4421,-5.0642624
813,1715699857.586936,-7.4128437,-5.4475074,7.6576915,3.695175,-1.825175,0.008525
814,1715699857.602579,-6.8517895,-5.5527067,6.571865,5.27175,-1.8337,0.5049
815,1715699857.6239069,-1.574312,-3.664939,-1.4333334,6.9570875,1.1342375,1.679975
816,1715699857.712202,0.9820642,-1.8869572,0.50071865,-2.055075,1.5709375,2.78135
817,1715699857.7287877,0.4307798,-2.5057034,0.6631957,-1.348875,1.45805,3.45785
818,1715699857.7536554,0.41662076,-2.6962233,0.5804281,-1.1240625,1.4793625,3.9766374
819,1715699857.7692592,0.82007647,-2.603257,-0.06808869,0.122237496,1.2491875,5.775825
820,1715699857.7850711,1.3740062,-2.4880733,-1.0365902,-0.1205875,1.4037375,7.0274873
821,1715699857.8006504,1.6020336,-2.4504588,-1.2412845,-0.66385,1.3344375,7.377975
822,1715699857.824586,1.9094801,-2.4990826,-1.2998929,-3.2428,0.9956375,8.7373
823,1715699857.8542943,3.0670795,-2.9127371,0.23558104,-6.306575,0.4844125,9.922962
824,1715699857.8699234,3.6160092,-2.9752295,1.2443426,-6.053025,0.0966625,10.093325
825,1715699857.909282,4.257798,-2.7989755,1.5420948,-5.11665,0.0273625,8.95565
826,1715699857.9273427,4.031804,-2.534251,1.5151834,-4.1100125,-1.570525,7.581475
827,1715699857.9470453,3.4119265,-2.4392507,1.234052,-3.8075125,-1.8550125,7.429125
828,1715699857.9709961,3.2237463,-2.28552,0.9756422,-4.2697873,-1.298825,7.53885
829,1715699857.9864802,3.1957188,-2.2713609,0.9326147,-4.3954625,-1.1603625,7.5442123
830,1715699858.002101,3.556376,-1.9919419,1.1803211,-5.9114,-0.1238875,6.638775
831,1715699858.025573,3.542508,-1.8923547,1.3592203,-5.9709373,-0.2358125,6.2743998
832,1715699858.110017,5.3702292,-2.3865442,1.6587156,-6.526025,-0.946275,4.4974875
833,1715699858.1257987,5.6021404,-2.4329205,1.9618808,-7.9076247,-0.1463,4.1267877
834,1715699858.141388,6.2073393,-1.7124312,3.6575992,-8.274062,-0.5468375,3.3449626
835,1715699858.1572347,6.396529,-1.6040826,3.906529,-7.891675,-1.1902,2.9902124
836,1715699858.1869886,2.7430122,2.4896023,6.85841,-4.130225,-3.5754125,3.93195
837,1715699858.1998417,7.9916363,0.6359786,5.959526,1.4911875,0.58134997,-1.644775
838,1715699858.229832,-0.20561162,-1.5060092,1.5291591,1.9619875,4.9627876,-3.8775
839,1715699858.2456033,-0.14311926,-1.2299695,2.2271101,1.3431,3.1571374,-1.1163625
840,1715699858.2612321,1.019679,-1.0215138,3.1938837,2.482975,1.6902875,-0.6615125
841,1715699858.2768831,1.6857339,-0.974419,3.5907187,4.86915,0.9296375,-1.035375
842,1715699858.2923818,0.9312997,-1.1487309,1.7107035,7.6239624,0.1243,-1.9259624
843,1715699858.3126783,0.934052,-0.65524465,0.49796638,7.0464625,0.6175125,-2.9348
844,1715699858.3325527,1.4914373,-0.55301225,0.41896024,5.57645,1.7445999,-3.0476875
845,1715699858.363854,1.9258868,-1.019373,1.1669725,2.4701874,3.6674,-3.7433
846,1715699858.3800888,1.5544343,-1.4003057,2.179312,2.5117126,4.5429997,-3.550525
847,1715699858.3966765,1.6386391,-1.4730886,2.3881805,2.9963999,4.82845,-3.1989374
848,1715699858.489225,3.5866513,-2.4314985,0.6775688,8.766863,3.3957,-4.9641623
849,1715699858.5048845,3.7163148,-1.9035627,-0.6336391,7.455525,2.5510375,-5.6555123
850,1715699858.5308685,3.6186543,-1.6866513,-0.9272171,4.3055377,2.1802,-6.381925
851,1715699858.54664,3.0499542,-1.8923547,0.21804282,1.1268125,2.1153,-6.467175
852,1715699858.5665236,2.7453668,-1.8906269,1.9762537,1.352725,2.1088376,-6.0102625
853,1715699858.585851,3.0548472,-2.1024466,2.4201834,4.792425,1.65715,-5.895175
854,1715699858.6014762,3.2501528,-2.5117278,-0.28237003,8.5624,-1.7879125,-7.4322877
855,1715699858.6314373,1.4868501,-2.4910245,-1.5024464,6.176225,-4.6704626,-9.689625
856,1715699858.6625445,-0.015795108,-2.0075383,-0.75535166,4.503675,-5.7111998,-8.441125
857,1715699858.6781847,-0.23414373,-1.4769572,-0.6882722,3.88905,-5.2787623,-6.7815
858,1715699858.6939332,-0.6173242,-1.65026,-1.2095872,2.4616625,-4.9143877,-6.66105
859,1715699858.7112863,-1.3472936,-1.5508715,-1.8075383,0.8669375,-3.442175,-6.282925
860,1715699858.7194395,-1.7309939,-1.5145719,-2.3537157,-0.268675,-2.4429624,-6.0517874
861,1715699858.72786,-2.3216057,-2.690627,-3.3797097,-5.985925,-0.4690125,-5.776925
862,1715699858.7358668,-2.6017277,-3.9038684,-1.8856269,-7.9556127,0.1370875,-5.896275
863,1715699858.747389,-3.7383332,-5.2447553,2.283792,-7.9556127,0.1370875,-5.896275
864,1715699858.7554197,-3.7383332,-5.2447553,2.283792,-9.2158,1.0808874,-6.4565873
865,1715699858.7634723,-5.504587,-5.2237463,5.1695256,-5.532175,-0.0908875,-6.2178874
866,1715699858.780069,-6.472584,-5.0119267,5.7053976,-2.9946125,-0.7194,-5.558575
867,1715699858.8478725,-4.28604,-4.169924,0.6778746,5.230225,0.2052875,1.8684875
868,1715699858.8689966,-0.34525993,-1.7314984,-1.9815444,1.2078,1.1044,0.68282497
869,1715699858.9080336,0.80714065,-2.0705352,-0.24331804,-0.49665,1.7722375,4.1545625
870,1715699858.9326346,1.1653364,-2.0414832,0.5196789,-0.691625,3.487275,4.8224
871,1715699858.9481182,1.2076452,-1.9804282,0.7318043,-0.3293125,3.439425,5.016275
872,1715699858.9702854,1.6005046,-1.8377218,0.37909788,2.431825,0.9477875,5.9687376
873,1715699858.9862757,1.7620796,-1.7593272,-0.2728899,2.482975,0.80602497,6.01975
874,1715699859.0019062,1.121208,-1.6656421,-1.7123394,0.4994,0.639925,7.623
875,1715699859.0170863,1.0887921,-1.8998929,-1.9232416,-1.1826375,1.0297375,8.575325
876,1715699859.0328975,1.3799235,-2.6051989,-1.5071406,-4.5967627,1.28755,10.33945
877,1715699859.0484953,1.5714526,-2.8735015,-1.1980581,-5.3062625,1.3195875,10.704787
878,1715699859.0666854,2.5364985,-3.3988838,-0.44108564,-7.10875,1.211925,11.55385
879,1715699859.0951717,4.332309,-3.3576913,0.61365443,-7.9215126,-0.8141375,10.13815
880,1715699859.1109061,3.533945,-3.0179358,1.4465902,-6.0317125,-2.3951125,8.515787
881,1715699859.1278641,3.1439297,-3.0443425,1.2469877,-6.0317125,-2.3951125,8.515787
882,1715699859.1438284,3.2525992,-3.3722782,0.5233486,-5.4426622,-2.3108249,9.370075
883,1715699859.2483206,3.1566818,-1.3451529,0.20928134,-0.60307497,-3.411375,5.71945
884,1715699859.263761,5.016101,-1.3456728,-0.5683945,-4.7854123,-0.7310875,5.170825
885,1715699859.2798443,4.861361,-1.509893,0.056467887,-6.3034124,-0.0471625,4.7202373
886,1715699859.2961915,4.2217126,-2.2459786,2.3186543,-7.8203125,0.07535,4.87685
887,1715699859.3127894,5.3949084,-2.299893,3.157997,-5.7462626,-1.5247375,5.2666626
888,1715699859.3339014,7.134557,-1.3202904,2.873899,-3.084125,-3.5061126,3.8146625
889,1715699859.349466,7.1681952,-0.78726304,2.242003,-2.5163875,-3.627525,2.843225
890,1715699859.3751123,5.5108104,-0.25371557,2.3108103,-4.400825,-0.014162499,1.50095
891,1715699859.39065,4.0249696,-0.23934253,3.6121254,-3.591225,1.3685375,0.7819625
892,1715699859.4342651,3.3499541,-0.22029051,3.9137614,1.9119375,0.333025,-0.8980125
893,1715699859.4532871,1.9859327,0.241789,1.7480122,2.30395,0.605825,-1.4114375
894,1715699859.472833,1.3235474,0.19816515,0.98123854,1.8214625,1.112925,-2.31055
895,1715699859.499137,0.36391437,-0.060963307,1.679205,1.2695374,0.8668,-2.8282375
896,1715699859.5156825,0.5967431,-0.3030581,2.0574923,2.261325,0.8210125,-2.3733876
897,1715699859.5346546,1.1656423,-0.40652907,2.014786,2.4605625,0.84328747,-2.4479125
898,1715699859.6363792,5.3319116,-1.7005047,-0.5035627,6.9144626,6.188875,-7.6635623
899,1715699859.6564693,4.840872,-1.6527064,-0.6987768,6.35195,6.3358626,-8.082112
900,1715699859.6719062,4.5084558,-1.6966361,-0.81763,5.8746877,6.3305,-8.1897745
901,1715699859.6903296,4.62711,-2.1605506,-0.26605505,5.1013875,5.6243,-8.1972
902,1715699859.7060378,5.458104,-2.2899082,-0.34362385,5.44115,5.456,-8.563638
903,1715699859.7366495,5.433945,-2.4866514,-1.1360856,4.5260873,4.7443,-10.91255
904,1715699859.7568681,3.9003057,-2.1633027,-0.5249694,4.5857625,4.2607126,-10.767625
905,1715699859.7728598,2.4608562,-1.5726758,-0.44668198,5.0342875,2.645775,-10.045475
906,1715699859.7882595,2.453318,-1.4678899,-0.9357798,5.2344875,0.7123875,-8.9386
907,1715699859.796324,2.4205964,-1.4891896,-1.44974,4.7392125,0.19139999,-8.593475
908,1715699859.812104,2.3612692,-1.509893,-2.041789,2.6043875,0.00495,-8.5369625
909,1715699859.834959,1.1639143,-1.5018349,-0.71264523,1.062875,-0.881375,-8.48485
910,1715699859.8517854,0.59133023,-1.3957187,0.11233945,1.349425,-1.4289,-8.277087
911,1715699859.8720956,-1.1643273,-1.94974,0.8655505,4.12665,-2.6379375,-8.220575
912,1715699859.8879726,-2.0763457,-2.184205,0.33588684,4.454725,-2.6549876,-7.585737
913,1715699859.904763,-3.443318,-1.7813455,-0.39683488,3.542825,-1.4042875,-5.7237124
914,1715699860.006966,1.887569,-3.3818502,-0.0470948,9.6744995,2.8215,1.136575
915,1715699860.033803,0.61865443,-2.6475077,-4.601728,4.657125,1.69455,-1.0993125
916,1715699860.0497484,-1.8496482,-2.6440368,-2.6929665,-3.1651125,0.8113875,3.4973125
917,1715699860.0655057,-1.0778747,-2.9564679,-1.2212996,-4.418975,-0.186725,5.1612
918,1715699860.0809956,0.22671254,-3.1409786,0.017935779,-4.57875,-0.9249625,6.1615124
919,1715699860.0973618,2.0899084,-2.7480123,1.3639144,-3.4357126,-0.3166625,5.9932127
920,1715699860.1132128,2.2136545,-2.2862387,1.793685,-2.2606375,0.3949,5.533
921,1715699860.1358876,2.3957186,-1.4711468,1.4385321,0.321475,1.6348749,5.2518125
922,1715699860.15374,2.9455657,-1.2780887,0.72833335,1.4997125,1.953325,5.320975
923,1715699860.1694121,3.793379,-1.0344495,1.0812385,2.717275,2.3134375,4.393125
924,1715699860.1904774,2.7017279,-1.090627,0.27665138,3.9359374,2.3868625,4.2035127
925,1715699860.2164214,1.532416,-0.98960245,-1.5534098,0.6730625,3.5278375,6.874175
926,1715699860.2358582,1.4096789,-1.167997,-1.3086698,-1.67475,3.6631374,8.074687
927,1715699860.2895114,2.4867432,-1.9938838,-0.29805812,-5.62485,0.353375,10.162625
928,1715699860.3902617,3.3070335,-2.677263,2.7209022,-9.5546,-0.9697875,7.614475
929,1715699860.4060187,4.029159,-1.5994954,3.1333332,-3.9215,-4.5852127,6.93385
930,1715699860.4363728,4.047202,-0.9880734,0.52629966,-4.0577626,-2.820125,5.6373625
931,1715699860.4520907,3.9825687,-1.5553516,0.4338379,-6.728425,-0.3433375,5.9943123
932,1715699860.4798925,5.062691,-2.5503516,0.76983184,-8.734275,0.1967625,5.1057873
933,1715699860.4955244,5.107844,-2.724052,1.046896,-8.734275,0.1967625,5.1057873
934,1715699860.511207,4.5126452,-2.7270184,3.9426146,-8.2357,-2.1234124,4.0629873
935,1715699860.5374138,5.6201835,-1.5160091,3.5133486,-3.1128626,-3.50295,2.287175
936,1715699860.5537617,5.1818504,-0.7203823,2.106835,-2.1338625,-3.3111374,1.7001874
937,1715699860.5696702,5.1818504,-0.7203823,2.106835,-1.77595,-2.3161874,0.86817497
938,1715699860.5872824,2.7558563,-0.71671253,1.7746177,-2.8029375,-0.2910875,-0.513425
939,1715699860.6029515,1.8389449,-0.64790523,2.5031652,-2.155175,-0.223025,-0.28861248
940,1715699860.6183867,1.6215138,-0.5990826,2.5824618,-1.5203375,-0.2836625,-0.2567125
941,1715699860.6369398,1.0553517,-0.44169724,2.3699236,0.6463875,-0.4285875,-0.076725
942,1715699860.6524408,0.94159025,-0.39582568,2.1609633,0.6463875,-0.4285875,-0.076725
943,1715699860.670509,0.88980126,-0.38501528,1.9711467,2.616075,-0.154825,0.040425
944,1715699860.7546022,0.2096789,-0.9302752,0.4154893,7.2809,-1.7601374,-1.5285875
945,1715699860.779691,0.21233945,-1.0220183,0.19438839,7.4716125,-1.7879125,-1.5478375
946,1715699860.8084762,0.288685,-1.0125382,-0.10836391,6.984725,-1.4917375,-1.3358124
947,1715699860.8376,0.5356728,-0.88318044,-0.35585627,5.671325,-0.965525,-1.0461
948,1715699860.854166,0.8012233,-0.7762538,-0.36391437,4.5676126,-0.6128375,-1.0918875
949,1715699860.881703,0.70753825,-0.5614679,-0.23802753,3.1007624,-0.219725,-1.3965875
950,1715699860.8977885,0.7719725,-0.540474,-0.20550458,2.7619624,-0.1793,-1.3816
951,1715699860.9134185,0.7121254,-0.5041743,-0.025688073,1.7382749,0.149875,-1.3784375
952,1715699860.9378445,0.4346636,-0.4257951,0.29438838,1.45915,0.5014625,-1.070575
953,1715699860.9651556,0.6714526,-0.44698778,0.2971407,1.4432,0.420475,-0.4239125
954,1715699860.98067,0.6714526,-0.44698778,0.2971407,1.452825,0.3224375,-0.3025
955,1715699860.996337,0.7224312,-0.50489295,0.19123854,1.3536875,0.082775,-0.1128875
956,1715699861.0130877,1.101942,-0.39185014,0.047201835,0.6017,-0.4189625,-0.1364
957,1715699861.0382288,0.940367,-0.2556575,0.31620798,0.0946,-0.1452,-0.2013
958,1715699861.0538344,0.9030581,-0.23955658,0.36697248,0.0391875,0.0262625,-0.158675
959,1715699861.1328342,0.81977063,-0.18123853,0.38940367,2.06635,-0.4285875,0.11825
960,1715699861.1488152,0.94016814,-0.28787464,0.22466362,2.4083126,-1.3041875,0.192775
961,1715699861.165322,0.9188532,-0.34506115,0.10948012,2.4083126,-1.3041875,0.192775
962,1715699861.1957505,1.3792049,-0.33016822,-0.088883795,1.2302125,0.0358875,0.7766
963,1715699861.2225854,1.2274159,-0.28940368,0.14576453,0.3971,1.2098625,0.539
964,1715699861.2387655,0.9760397,-0.34189603,0.364526,0.4354625,1.2076625,0.4602125
965,1715699861.2545106,0.9760397,-0.34189603,0.364526,0.7711,0.940225,0.49005
966,1715699861.2700129,0.87859327,-0.31896025,0.48042816,0.7711,0.940225,0.49005
967,1715699861.2857654,0.81050456,-0.32649848,0.5243578,1.1886874,0.6249375,0.5454625
968,1715699861.3109822,1.0741131,-0.29357797,0.18215597,2.30285,-0.4690125,0.4665375
