id,timestamp,acc_x,acc_y,acc_z,gyro_x,gyro_y,gyro_z
0,1715699591.6080737,1.4221253,-0.6806269,-0.09989297,1.567775,-0.2627625,-4.476725
1,1715699591.624886,1.3408716,-0.69766057,-0.036391437,1.598575,-0.14025,-4.5651374
2,1715699591.7123425,1.2575994,-0.6888838,0.016406728,1.598575,-0.14025,-4.5651374
3,1715699591.7235255,1.1631957,-0.4819572,-0.17278287,1.986325,-0.1243,-4.7718
4,1715699591.731635,1.0492355,-0.48318043,-0.16870031,1.9245875,-0.0677875,-4.6908126
5,1715699591.7472804,0.7880734,-0.4301682,-0.15769114,1.752025,0.054725,-4.2700624
6,1715699591.8086052,1.4719725,-0.12782875,-0.31998473,1.04995,0.12815,-3.7032874
7,1715699591.8278453,1.2591285,-0.07512233,-0.31100917,0.51315,0.626725,-4.1091876
8,1715699591.8443303,0.85301226,-0.082675844,-0.096941896,0.2937,0.912175,-3.8737874
9,1715699591.8611627,0.7978593,-0.061467893,-0.05198777,0.31075,0.9282625,-3.8226376
10,1715699591.8810697,1.22763,0.22059633,-0.094495416,0.6655,0.508475,-3.3209
11,1715699591.908967,1.7044802,0.46463302,-0.08206422,0.5770875,0.21133749,-3.6575
12,1715699591.92459,1.7055047,0.48103976,-0.08012232,0.488675,0.5405125,-4.7345376
13,1715699591.9434586,0.8615749,0.41172782,0.10672783,0.4662625,0.85469997,-5.048725
14,1715699591.959625,0.5501529,0.46636087,0.11457186,0.637725,0.96442497,-4.807
15,1715699591.9819345,0.3434251,0.60377675,-0.010810398,0.994675,0.847275,-4.0591373
16,1715699592.0093231,0.729052,0.7567737,-0.1525994,1.3376,0.43395,-3.7203374
17,1715699592.1080413,0.039342508,0.4238532,0.2119266,-0.4211625,2.0477874,-3.800225
18,1715699592.1310048,-0.10336392,0.44169724,0.3474006,0.37565,1.2370875,-3.1079125
19,1715699592.1592686,-0.050657492,0.38603976,0.09285933,1.5186875,-0.27555,-2.082025
20,1715699592.1690414,0.0053975536,0.119266056,-0.29827216,1.515525,-0.561,-1.4993
21,1715699592.177758,0.008761467,0.0795107,-0.3368043,1.515525,-0.561,-1.4993
22,1715699592.1940598,-0.13853212,-0.092660554,-0.4307798,0.926475,-0.2542375,-0.9134125
23,1715699592.2117302,-0.46941894,-0.26105505,-0.38593274,0.6356625,-0.0199375,-0.4596625
24,1715699592.2312746,-0.8751223,-0.48368502,-0.4337462,-0.015262499,0.16445,1.275725
25,1715699592.246866,-1.0937768,-0.67992353,-0.3141743,-0.4263875,-0.3202375,3.062125
26,1715699592.2750745,0.65974003,-1.2863456,-0.32955658,-0.540375,-1.1363,7.178325
27,1715699592.291924,0.65974003,-1.2863456,-0.32955658,-0.5522,-1.1331375,7.35735
28,1715699592.3136563,2.0932722,-1.0783944,-0.5349694,-1.4416875,-0.2019875,7.0035625
29,1715699592.3294456,1.5190673,-0.78114676,0.34912843,-1.266925,-0.3320625,5.6241627
30,1715699592.3555276,0.6842966,-0.79480124,0.7899083,0.5748875,-0.4725875,5.3812
31,1715699592.375602,0.5489297,-0.9707492,0.32619268,2.509375,-1.3919125,5.810475
32,1715699592.3913972,0.7712538,-1.005,0.031804282,3.025,-1.9171625,5.9329877
33,1715699592.472005,1.2781805,-0.90386844,-0.46961775,3.3936374,-2.4305875,5.8158374
34,1715699592.4912944,2.0834863,-0.41681957,-0.29969418,-3.4464376,0.7205,4.414025
35,1715699592.50942,2.3173242,-0.51876146,0.21804282,-3.260125,-0.521675,3.5041876
36,1715699592.5258849,2.3173242,-0.51876146,0.21804282,-2.954325,-0.604725,3.8526125
37,1715699592.541302,1.8897096,-0.20764527,0.4230428,-2.8169625,-0.3256,4.5332375
38,1715699592.5574098,3.396529,0.12415902,-0.053012237,-2.9904876,0.5841,5.6134377
39,1715699592.5756087,4.9136543,0.50591743,-0.26747707,-3.191925,0.80465,5.6645875
40,1715699592.5911188,4.8765597,0.75974005,0.11356269,-4.893075,1.8976375,2.6178625
41,1715699592.6074414,3.5727828,1.0445412,1.5832875,-4.389275,1.3052875,1.2266375
42,1715699592.6234117,3.5727828,1.0445412,1.5832875,-1.4821125,0.1260875,0.64295
43,1715699592.6386447,3.1010244,1.2780887,1.458104,-0.0078375,-0.114675,0.3999875
44,1715699592.6593373,2.672477,1.2110091,0.027721712,1.6401,-0.6920375,-0.564025
45,1715699592.6749218,2.127936,1.1570795,-0.74006116,1.2150875,-0.6920375,-0.8537375
46,1715699592.6904924,1.7545414,1.1128441,-1.1570795,-0.31033748,-0.197725,-0.9741875
47,1715699592.703772,1.3692201,1.0060092,-1.0404739,-1.9028625,0.507375,-1.11155
48,1715699592.7275968,0.95331806,0.91906726,-0.32977065,-3.4634874,1.438525,-1.305425
49,1715699592.7432075,0.77655965,0.9515749,0.47411314,-3.4187999,1.48005,-1.340625
50,1715699592.7702546,0.8056116,1.1509633,1.4409786,-1.2200375,1.3660625,-1.931875
51,1715699592.8699071,2.6370032,0.67013764,0.5511774,3.3627,1.04005,-5.8403125
52,1715699592.8860343,3.5017278,0.48715597,0.012538226,3.8451874,0.7907625,-7.59055
53,1715699592.9107385,2.3397553,0.12538226,-0.9592202,2.525325,0.4552625,-9.20975
54,1715699592.926749,2.164526,0.06931193,-0.90111625,0.7880125,0.9260625,-8.900787
55,1715699592.9530807,2.2275229,-0.06850153,-0.41662076,0.2734875,0.99962497,-8.850738
56,1715699592.9688017,2.127416,-0.1332263,-0.03496942,0.24887499,0.7546,-8.90395
57,1715699592.9906538,2.0351682,0.082461774,0.06207951,0.9328,0.407275,-8.9221
58,1715699593.0189471,0.40316513,0.4975535,-0.5816514,0.9200125,0.113299996,-8.1103
59,1715699593.0347214,-0.1880734,0.48103976,-0.9235474,0.215875,0.3817,-6.8767877
60,1715699593.0503204,-0.8572936,0.34169725,-0.9440367,-0.4488,0.56815,-6.0575624
61,1715699593.071902,-1.8512692,0.44974005,-0.7085627,-1.9903125,0.44027498,-1.6325375
62,1715699593.0874188,-1.1426146,0.19276759,-0.53669727,-2.9745374,1.0005875,0.7057875
63,1715699593.1033485,0.07686544,-0.13221714,-0.21304281,-3.881075,1.875225,2.0736375
64,1715699593.1338139,0.7548471,-0.38818043,0.58512235,-3.697925,1.47785,2.031975
65,1715699593.2643511,-1.0200764,-1.7144803,-0.21651375,0.495,-0.2223375,4.1391625
66,1715699593.2806785,-0.99908257,-1.7605504,-0.2534098,0.54821247,-0.4747875,4.7804623
67,1715699593.2966678,0.032217126,-1.8261927,-0.45229357,0.6601375,-1.348325,6.6020627
68,1715699593.3221748,2.1594343,-1.2214067,-0.8288532,0.771925,-2.2430375,5.307775
69,1715699593.3376691,1.024052,-0.99296635,-0.72221714,0.6760875,-2.4369125,4.6366377
70,1715699593.3542213,0.33853212,-0.92396027,-0.66360855,0.78375,-2.60205,5.0722375
71,1715699593.369999,0.050764527,-0.81039757,-1.054633,0.4970625,-2.2378125,7.6098
72,1715699593.3856404,1.4882722,-0.6110092,-1.3410857,0.0507375,-1.8137625,8.756
73,1715699593.4125729,5.138119,2.0151834,-1.2137614,-0.5531625,-2.2089374,5.43455
74,1715699593.433982,3.690933,2.6235473,-1.0921559,-0.6501,-2.26765,4.899675
75,1715699593.4499037,3.2839906,2.6665597,-1.3750306,-1.1444125,-1.617825,5.1682124
76,1715699593.465554,3.2635014,2.5164068,-1.4499542,-2.4855876,-0.77935,5.2182627
77,1715699593.4822824,3.291636,2.458104,-1.3701376,-2.7115,-0.671825,5.1788
78,1715699593.5126731,3.026101,2.3780887,1.2604434,-3.411375,0.6639875,1.65605
79,1715699593.5397122,2.5086699,2.306116,1.6415901,-2.229975,0.4467375,0.9059875
80,1715699593.6335762,0.16941896,0.9302752,0.42701834,-0.1324125,2.986225,-2.470875
81,1715699593.6493623,0.21426606,0.72701836,0.7927676,-0.1324125,2.986225,-2.470875
82,1715699593.666187,0.69337916,0.57105505,0.90408254,0.924275,2.649625,-3.058825
83,1715699593.6826594,1.0440367,0.5269113,0.70347095,1.55595,2.4068,-3.5883374
84,1715699593.713249,1.4851223,0.5088685,-0.3085627,1.8159624,2.398275,-5.0103626
85,1715699593.7288554,1.6244649,0.6925535,-0.28073394,0.54505,2.6783624,-5.80305
86,1715699593.7597992,2.6824617,0.8446483,-0.018042812,0.3608,2.6475625,-6.7489123
87,1715699593.7772174,2.987263,0.7838991,0.07013761,1.01695,2.2672374,-8.460788
88,1715699593.7947412,2.0832875,0.93669724,-0.03496942,1.6326749,1.0443125,-8.764387
89,1715699593.8059533,1.9021407,1.0401682,-0.2590214,1.7199875,0.6171,-8.506575
90,1715699593.8326545,1.2148777,1.0867431,-0.52426606,1.0021,-0.4214375,-7.7045374
91,1715699593.8620806,0.4788991,1.0862385,-0.4005046,0.487575,-0.8614375,-6.5945
92,1715699593.8981056,-0.097553514,0.5400612,0.15974006,-0.103675,0.0642125,-3.289
93,1715699593.9139397,-0.12772171,0.41172782,0.19215596,0.0273625,0.0823625,-2.7275875
94,1715699593.9944155,-0.16655964,-0.18909787,-0.13058104,0.047575,-0.1007875,-0.4213
95,1715699594.0156357,0.32946482,-1.2292508,0.2490367,-0.0482625,0.6864,4.5662374
96,1715699594.031172,1.0214068,-1.2656423,0.20825687,0.6100875,0.037675,4.7601123
97,1715699594.0535686,1.2747248,-1.1963303,0.09897554,1.598575,-0.5302,3.7279
98,1715699594.0692203,0.64729357,-1.1321101,-0.036590215,1.9640499,-0.6974,3.27415
99,1715699594.0849774,0.2697248,-1.0769572,-0.12282875,2.46785,-0.5930375,3.2038875
100,1715699594.1137726,0.34801224,-0.79041284,-0.8218196,2.3049126,-0.9978375,4.5556498
101,1715699594.1308203,0.70019877,-0.59368503,-1.2159021,1.668975,-1.2023,4.85815
102,1715699594.1466384,1.2181498,-0.34506115,-1.4362844,0.333025,-1.227875,4.6409
103,1715699594.1667664,0.8852141,-0.2556575,-1.2039756,-0.8482375,-0.9796875,4.2222123
104,1715699594.18224,0.48298168,-0.38134557,-0.74903667,-1.4150125,-1.0681,4.31805
105,1715699594.1983593,0.6702294,-0.34189603,-0.47472477,-1.6366625,-1.5229499,4.7762
106,1715699594.2147217,1.44974,-0.09928134,-0.11233945,-1.1881375,-2.4550624,5.0127
107,1715699594.239364,2.355153,0.754633,-0.26799694,-0.02585,-2.799225,4.9988127
108,1715699594.2559319,2.688792,2.0827677,-1.2491283,-0.4019125,-2.4369125,5.5622873
109,1715699594.2859683,3.5752294,2.3604434,-1.5085627,-2.4036374,-1.0979375,5.860525
110,1715699594.5239894,0.5787003,0.3324159,0.4716667,1.42065,1.9870125,-3.378375
111,1715699594.5396216,1.0782874,0.53007644,-0.093470946,1.8074375,1.7964375,-4.2967377
112,1715699594.5551093,1.2603517,0.66452605,-0.21181956,1.6369375,1.88155,-4.5662374
113,1715699594.5707324,1.5873548,0.77778286,-0.27389908,1.1394625,1.71545,-5.3002124
114,1715699594.5863686,1.8107033,0.7914373,-0.13211009,1.0137875,1.44595,-5.7113376
115,1715699594.6158104,1.982263,0.7504587,-0.0085626915,1.177825,0.59482497,-7.126075
116,1715699594.6313052,1.9309938,0.7961315,-0.027110092,1.2375,0.40094998,-7.328475
117,1715699594.6481206,1.3076453,0.9710551,-0.26188073,1.3034999,0.0121,-7.5585127
118,1715699594.6640253,1.2088685,1.0284404,-0.2975535,1.0916125,-0.3491125,-7.0994
119,1715699594.7734096,-0.22365443,-0.0667737,-0.25382262,-2.8318124,0.6384125,1.0253375
120,1715699594.79625,0.30091745,-0.753104,0.54169726,-3.0811,1.688775,2.491225
121,1715699594.810873,0.4542355,-0.9192661,0.9590214,-1.755875,1.34365,2.6456375
122,1715699594.8234925,0.44250762,-0.9707492,1.035367,-1.1902,1.04225,2.66805
123,1715699594.8429728,0.44270644,-1.0681957,0.56288993,1.7445999,-0.6356625,3.0322876
124,1715699594.8585541,0.669419,-1.1270183,0.16360855,2.5392125,-1.1192499,3.181475
125,1715699594.8762062,0.9760397,-1.1154892,-0.5797095,3.11025,-1.4515874,2.997225
126,1715699594.891974,0.7651376,-1.0151834,-1.1043884,2.3538625,-1.330175,2.7084749
127,1715699594.91632,0.39051986,-0.91365445,-1.1500459,0.6303,-1.2832875,3.4359875
128,1715699594.9320796,0.20600918,-0.8868502,-0.8512691,0.1115125,-1.0703,3.9505124
129,1715699594.954453,0.66166663,-0.8397553,-0.41009176,-0.34759998,-0.889075,4.75585
130,1715699594.9700577,1.5029511,-0.57961774,-0.091330275,0.214775,-1.5422,4.3361998
131,1715699594.9858298,1.3408716,-0.2825688,-0.09622324,0.7624375,-2.019325,3.8099875
132,1715699595.000971,0.89785933,-0.24077982,-0.14668196,1.313125,-2.5499375,3.316775
133,1715699595.0166416,0.2543272,-0.18195719,-0.37512234,2.020425,-3.031325,4.6355376
134,1715699595.0323784,0.09766056,-0.025076453,-1.0189602,1.7147624,-2.713975,5.5367126
135,1715699595.0480208,0.9515749,0.2359786,-1.2017279,0.9807875,-1.9448,7.0387626
136,1715699595.132822,1.8751223,0.4588226,-1.3616667,0.9807875,-1.9448,7.0387626
137,1715699595.1546772,2.8352752,2.25974,0.05432722,-2.128775,0.1568875,3.8493125
138,1715699595.1703975,2.5804281,2.1988838,0.34444955,-1.957175,0.7929625,3.180375
139,1715699595.1858573,2.5804281,2.1988838,0.34444955,-1.7197125,1.016675,2.5262876
140,1715699595.2017188,1.9275229,2.0976605,0.4977523,-0.29755,1.0187374,1.04555
141,1715699595.217521,1.6100918,1.9368043,0.32741588,0.1381875,0.8248625,0.297825
142,1715699595.2374837,0.88420486,1.6329206,0.14117737,0.3480125,0.7151375,-0.6705875
143,1715699595.2544682,0.22426605,1.3545413,0.12996942,0.1892,0.92716247,-1.2414875
144,1715699595.2712522,-0.20071866,1.099893,0.21264525,-0.053625,1.5417875,-1.4683625
145,1715699595.287082,-0.26055047,0.916208,0.28562692,-0.2145,2.1256125,-1.5228125
146,1715699595.317556,0.5391437,0.71967894,0.79062694,-0.1005125,2.160675,-2.0532875
147,1715699595.3342156,0.71651375,0.6396483,0.92854744,0.688875,1.826275,-3.010975
148,1715699595.352266,0.8322171,0.37217125,0.85117733,2.2463374,1.8348,-4.3701625
149,1715699595.3609002,0.7329205,0.29602447,0.5738991,2.661725,1.8390625,-4.7612123
150,1715699595.3845313,0.80591744,0.35188073,0.30489296,2.8908,1.6504124,-5.049825
151,1715699595.4020455,1.8194649,0.46778288,-0.10030581,2.67025,1.3734875,-5.7198625
152,1715699595.4177105,2.7475994,0.5512691,-0.4312997,1.7989125,1.336225,-7.3348
153,1715699595.5425093,0.95983183,1.2073395,-0.77931195,-1.9349,0.915475,-4.92415
154,1715699595.5581393,0.4742049,1.0594342,-0.535474,-2.6464624,1.1668249,-3.90995
155,1715699595.5737526,0.018348623,0.71793574,0.12243119,-2.99585,1.37775,-2.400475
156,1715699595.61828,0.34220183,-0.35799694,0.5677829,-0.5852,0.9334875,0.7569375
157,1715699595.6340504,0.52619267,-0.46850154,0.42090216,0.839025,0.49995,1.2309
158,1715699595.6502693,0.37461773,-0.74209476,-0.13496941,1.6561875,0.3262875,1.189375
159,1715699595.6754675,0.107446484,-0.93761474,-0.45107034,1.5549875,0.7992875,1.6922125
160,1715699595.6912355,0.20203364,-1.138945,-0.4274159,1.0638375,1.5918375,2.286625
161,1715699595.7185066,0.2524006,-1.3083639,-0.17603976,0.9626375,1.671725,2.541275
162,1715699595.743886,0.09591743,-1.2761469,-0.23506117,1.6977125,-1.2289749,2.892725
163,1715699595.7663436,0.19989297,-1.211422,-0.44668198,1.816925,-2.002275,3.5202749
164,1715699595.795288,0.41120797,-1.1518807,-0.5044801,0.8859125,-0.54505,4.38845
165,1715699595.8241715,0.9942966,-0.96197253,-0.7800153,0.0529375,-0.063525,3.956975
166,1715699595.903363,4.113563,0.033639144,-0.57818043,-0.957,-2.5328875,7.2496877
167,1715699595.9332864,4.728853,1.4072324,-1.2003058,-2.4792626,-1.649725,5.9852376
168,1715699595.9487524,4.065948,2.024159,-0.93527526,-2.4792626,-1.649725,5.9852376
169,1715699595.9665618,4.1753364,2.2426147,-0.4769572,-4.4957,-1.7455624,5.8328876
170,1715699595.9857287,4.067997,2.1179357,0.09704893,-4.946425,-2.341075,4.8410997
171,1715699596.0037436,3.482462,1.9478135,0.52090216,-4.8461876,-1.7978125,3.4711876
172,1715699596.022843,3.0717585,2.095413,1.2687004,-3.9194374,-1.2821875,2.7138374
173,1715699596.0384195,3.0524006,2.0705352,1.2802293,-3.2525625,-0.840125,2.1129625
174,1715699596.0540943,2.438425,2.0007186,1.5366973,-1.9795874,0.3817,0.81125
175,1715699596.0696192,1.9700305,1.8594342,1.5205963,-1.2637625,0.8856375,0.3020875
176,1715699596.0853806,1.4257952,1.6175382,1.4530122,-0.1920875,0.99962497,-0.3254625
177,1715699596.1010008,0.71314985,1.2622783,0.8814526,0.992475,0.898425,-1.34805
178,1715699596.119834,0.2182416,0.99989295,0.64444953,1.0916125,1.529,-1.931875
179,1715699596.1354418,0.058608565,0.86513764,0.6204893,1.1075625,1.7985,-2.12355
180,1715699596.1559236,0.057599388,0.69460243,0.75178903,1.3429625,2.01685,-2.49315
181,1715699596.1714368,0.28185016,0.6167125,0.70081043,1.8543249,2.15325,-2.9555626
182,1715699596.1881118,0.50183487,0.6384251,0.52527523,2.0141,2.281125,-3.2313874
183,1715699596.2842765,2.2201834,0.6611621,0.020382263,1.5059,2.6794624,-7.086612
184,1715699596.3006356,2.6133487,0.9332263,-0.30928135,1.4942125,2.8073375,-7.9377375
185,1715699596.3204565,2.5152905,1.0454588,-0.29897556,1.3492875,2.5474625,-8.340475
186,1715699596.3392901,2.3268042,1.1626911,-0.037415903,1.4856875,1.7111875,-8.481
187,1715699596.3556552,1.6959175,1.0459785,-0.18532111,1.52405,0.51919997,-8.384063
188,1715699596.3711736,0.78542817,0.88787466,-0.14617737,1.4260125,0.20487499,-8.123088
189,1715699596.3870783,-0.035474006,0.50642204,-0.11957187,1.213025,0.044,-6.9183125
190,1715699596.4021153,-0.4667737,0.4187615,-0.10469419,1.0467875,0.407275,-5.3565874
191,1715699596.4099767,-0.89582574,0.30948013,-0.23628439,0.942425,0.2762375,-4.1699624
192,1715699596.4259782,-1.0386392,0.2554587,-0.451789,0.5748875,-0.0347875,-2.8501
193,1715699596.4417262,-0.6409786,0.08389908,-0.7234404,-0.6895625,-0.3139125,-0.7909
194,1715699596.4572003,-0.2800153,-0.15004587,-0.6987768,-1.858175,0.2453,0.2487375
195,1715699596.4758925,-0.13191132,-0.45677373,-0.018853212,-3.057725,1.1369874,1.326875
196,1715699596.4960744,0.07737003,-0.64790523,1.5442355,-0.4637875,0.46475,2.8543625
197,1715699596.5259469,0.44811925,-0.764526,0.89510703,1.936275,-0.199925,3.4925
198,1715699596.5423713,1.2686086,-0.87411314,-0.39174312,3.1080499,-0.4588375,3.568125
199,1715699596.5616643,1.6495414,-0.9737003,-1.2883792,2.0374749,0.3040125,2.7883625
200,1715699596.6574633,1.7160093,-1.1032568,-0.6426147,1.9320124,-1.7392375,4.497075
201,1715699596.6765354,0.23191132,-0.6234403,-1.217844,1.736075,-1.753125,4.2552123
202,1715699596.692758,0.23191132,-0.6234403,-1.217844,1.4058,-1.6710374,4.4715
203,1715699596.7105894,0.28215596,-0.37136087,-1.1521866,-0.09625,-1.7787,6.7266374
204,1715699596.730289,2.267584,0.42344037,-1.0214068,-0.7332875,-2.0150626,7.0217123
205,1715699596.7477767,2.6175382,0.75902146,-0.98337924,-0.83875,-2.0992124,6.7863126
206,1715699596.7648604,3.4246635,2.478593,-0.36126912,-0.3817,-3.5619376,5.2353125
207,1715699596.7831957,3.1894038,3.1529052,-0.7707493,-0.5383125,-2.9525375,4.2626376
208,1715699596.7989051,3.0150917,3.1761467,-0.8874618,-0.9878,-2.4795375,4.0272374
209,1715699596.8267858,2.802951,3.041896,-0.45912844,-3.23125,-0.80602497,3.1878
210,1715699596.8424459,2.8957186,2.8637156,0.46013764,-3.9461124,0.3614875,1.981925
211,1715699596.8690138,2.4727829,2.8204892,1.813257,-1.7089875,0.8333875,0.1508375
212,1715699596.8847692,2.2409787,2.7302752,1.6531041,0.5291,0.9527375,-0.6172375
213,1715699596.9003212,1.9224312,2.3790061,0.42426607,1.7648125,0.914375,-1.084875
214,1715699596.9271708,1.0787003,1.8958257,-1.0577981,1.6028374,1.0869375,-1.95415
215,1715699597.084808,0.60570335,0.124969415,-0.41325685,0.519475,2.4025376,-4.2370625
216,1715699597.1016498,1.7962233,0.09490826,-0.40856272,0.3213375,2.430175,-4.7260127
217,1715699597.1276374,1.8194649,-0.04506116,-0.2811468,0.2542375,2.311925,-6.010675
218,1715699597.143253,1.0928593,-0.027217126,0.10386851,0.7261375,1.8635374,-6.5209374
219,1715699597.1587112,0.746789,0.19744648,0.22711009,1.5602125,0.90475,-6.03845
220,1715699597.1852038,0.5400612,0.2603517,0.07503058,1.92775,-0.055,-5.724125
221,1715699597.2024686,0.12059633,0.3833792,-0.12110092,1.7573875,-0.61325,-4.9753
222,1715699597.231023,-0.19316514,0.5608563,-0.5184556,0.561,-0.27335,-3.129225
223,1715699597.2578356,-0.3996942,0.37064222,-0.39316514,-1.403325,0.8344875,-1.1732875
224,1715699597.2739189,-0.4480122,0.22477065,-0.17278287,-1.754775,1.081575,-0.581075
225,1715699597.2895272,-0.66004586,0.029464832,0.34668195,-1.553475,1.0283625,0.6908
226,1715699597.3051348,-0.6998012,0.005611621,0.45943424,-1.089,0.6224625,1.528175
227,1715699597.3281353,-0.5168196,-0.040672783,0.23955658,-0.2165625,-0.15619999,3.1953626
228,1715699597.4214938,-0.15830275,-0.15412845,-0.1745107,-0.14093749,-0.2627625,4.6739
229,1715699597.4397626,1.9558562,-0.10142202,0.36279815,1.9640499,-0.91368747,4.309525
230,1715699597.4624283,1.2754282,-0.012844036,-0.28318042,3.6524124,-1.7573875,2.9492376
231,1715699597.476398,0.7152905,0.057079513,-0.70662075,3.9155874,-1.8404375,2.842675
232,1715699597.4844797,0.3504587,0.18379205,-1.1392508,3.776025,-1.7989125,3.1334875
233,1715699597.4925282,0.27655962,0.2683945,-1.7116208,3.00795,-1.7093999,3.6757874
234,1715699597.5089116,0.42273703,0.32405198,-2.013043,2.2281876,-1.6380374,3.9964375
235,1715699597.5286574,1.3848165,0.3767584,-1.8313913,-0.2239875,-1.293875,4.28395
236,1715699597.5462303,1.622737,0.33527523,-1.2428135,-2.414225,-1.1213125,3.4882374
237,1715699597.5625253,1.4406728,0.46269113,0.21223241,-2.616625,-2.2847,2.2301126
238,1715699597.589503,1.7237462,0.85759944,1.2069266,0.94985,-2.5392125,0.6546375
239,1715699597.6131005,0.6601376,1.240474,0.20948012,2.3134375,-2.897125,0.045375
240,1715699597.6287742,0.22772172,1.5224313,-0.45493883,1.6476625,-2.77035,0.91135
241,1715699597.645454,-0.08062691,2.3894954,-0.78123856,0.98931247,-2.70325,1.964875
242,1715699597.6611266,0.47319573,2.5489297,-0.829052,0.265925,-2.3645875,3.8355625
243,1715699597.6766121,2.535474,2.82763,-1.2830734,-0.205975,-2.3368125,4.2233124
244,1715699597.6922562,2.8755352,2.8173242,-1.3459786,-0.7737125,-2.154625,3.8196125
245,1715699597.7080274,2.8891895,2.75974,-1.1856269,-2.35565,-1.0115875,2.09275
246,1715699597.8105392,0.8957187,1.2966361,-0.9804281,0.6334625,1.3831125,-0.7940625
247,1715699597.8291874,0.75362384,1.1370031,-1.1344495,-0.97295,1.4075875,-1.5802875
248,1715699597.8453476,0.5374159,1.0494343,-0.93863916,-1.3798125,1.5684625,-1.7304375
249,1715699597.8629644,0.049541287,0.70019877,0.069220185,-2.4046,2.45685,-2.1395
250,1715699597.880598,0.17155963,0.45535165,0.5399541,-1.4735875,2.449425,-2.3398376
251,1715699597.9142487,0.9328288,0.4075382,-0.07594801,0.055,2.193675,-3.2069125
252,1715699597.9325302,1.053318,0.63425076,-0.41590217,0.0902,1.9827499,-3.8322625
253,1715699597.9481575,1.0665597,0.7653364,-0.47298166,-0.0301125,1.9039625,-3.969625
254,1715699597.9640262,1.5019419,0.87003064,-0.44984707,-0.50105,2.0818875,-4.492675
255,1715699597.982052,1.5626912,0.8175382,-0.3680887,-0.7492375,2.026475,-5.15845
256,1715699597.993433,1.5831804,0.73333335,-0.17961773,-0.7896625,1.725075,-5.56435
257,1715699598.0015874,1.5683028,0.624052,-0.06422019,-0.6384125,1.4928375,-5.9552627
258,1715699598.009458,1.5227369,0.5432263,-0.020993883,-0.4808375,1.353275,-6.1704497
259,1715699598.0251248,1.121208,0.5598318,0.050152905,-0.306075,1.2296625,-6.3771124
260,1715699598.042232,0.846896,0.6377217,0.08287462,0.013475,0.8589625,-6.318537
261,1715699598.0577066,0.36024466,0.9122324,-0.10814985,0.1722875,0.53295,-5.2223873
262,1715699598.0734847,0.36024466,0.9122324,-0.10814985,-0.018424999,0.5809375,-4.693012
263,1715699598.0923102,0.19082569,1.0949999,-0.2077523,-0.3040125,0.6246625,-4.2029624
264,1715699598.1846437,-0.5001988,-0.305,0.055045873,-0.4285875,0.442475,1.951125
265,1715699598.2002447,-0.3792049,-0.5675841,0.11559633,-0.2091375,-0.1254,3.0547
266,1715699598.2311718,-0.27665138,-0.7053058,0.12120795,-0.2091375,-0.1254,3.0547
267,1715699598.2486987,0.43322632,-1.0676911,-0.14016819,0.4918375,-0.15619999,5.6816373
268,1715699598.2734897,1.7996942,-0.96564215,-0.73344034,0.6260375,-0.5504125,5.9010873
269,1715699598.2900565,1.9432263,-0.7084556,-0.6880734,0.3224375,-1.0115875,4.8112626
270,1715699598.305519,1.6556575,-0.6029511,-0.39032108,0.298925,-1.0115875,4.4182873
271,1715699598.3313687,0.78980124,-0.5061162,0.16391437,1.8126625,-1.04995,3.8770876
272,1715699598.346874,0.6956116,-0.48685014,0.048730887,2.2952874,-1.2566125,3.9921749
273,1715699598.370632,1.1441437,-0.17125382,-1.0558562,2.5147374,-1.3376,4.38735
274,1715699598.386434,1.3599389,0.18521407,-1.2647249,1.904375,-1.092575,4.312825
275,1715699598.412177,1.598578,0.48226303,-1.0308869,0.1370875,-1.0745625,3.7002625
276,1715699598.4315763,1.4621866,0.624052,-0.599893,-0.508475,-1.0692,2.944975
277,1715699598.4613311,1.372783,1.1431193,0.31620798,1.0797875,-2.375175,2.6104374
278,1715699598.572315,1.0569878,1.8401682,0.3593272,-5.499175,-2.0013125,2.8406124
279,1715699598.5879536,2.1072326,1.8316054,1.4244648,-4.6971374,-0.722975,2.387825
280,1715699598.6061783,2.3402598,2.0626912,2.3706422,-1.8656,1.2489125,0.2657875
281,1715699598.6233888,1.5544343,1.8572936,0.79918957,1.0575125,1.0528375,-1.1851125
282,1715699598.6426508,1.2769573,1.7694191,-0.14842507,3.1464124,0.9911,-1.998975
283,1715699598.6632783,0.92496943,1.633945,-1.4380275,1.533675,1.2478125,-2.0766625
284,1715699598.6785226,0.78542817,1.3540214,-1.5400611,-1.2925,1.85185,-2.1203876
285,1715699598.7054946,0.751682,1.0067278,-0.8420031,-3.0694125,2.6081,-2.334475
286,1715699598.7284787,0.6487309,0.46055046,0.6622783,-2.9937875,2.8638499,-3.0982876
287,1715699598.7449803,0.63925076,0.34770644,0.9133486,-1.9443874,2.7295125,-3.3794749
288,1715699598.7606432,0.68165135,0.24842508,0.76207954,-0.3711125,2.6069999,-3.700125
289,1715699598.7829473,0.8117278,0.21498471,0.16900611,0.7761875,2.8232875,-3.834325
290,1715699598.7985182,1.053104,0.20255351,-0.14495413,0.98285,3.123725,-3.904725
291,1715699598.81421,1.662997,0.19010703,-0.6199847,0.8710625,3.1450374,-4.5555124
292,1715699598.8331385,1.8150918,0.122217126,-0.7110092,0.6782875,2.9607875,-5.1052375
293,1715699598.848825,1.5838991,-0.12640673,-0.6360856,0.2041875,2.62515,-6.130025
294,1715699598.9534369,0.8159022,1.3781805,-0.16891438,0.960575,0.484,-3.3433125
295,1715699598.9701626,-0.17970948,1.2266055,0.039449543,0.485375,0.998525,-2.669975
296,1715699598.9853935,-0.53241587,1.0914373,0.15188073,0.5589375,1.2489125,-1.9446625
297,1715699599.0019107,-0.68665135,0.8990826,0.054541286,0.84328747,1.4331625,-0.783475
298,1715699599.0175977,-0.52068806,0.6218196,-0.4579052,0.78375,1.24355,0.3532375
299,1715699599.0333347,-0.46503058,0.5157034,-0.56207955,0.57805,1.1924,0.534325
300,1715699599.0489256,-0.34648317,0.2820642,-0.6133486,0.0103124995,0.8003875,0.767525
301,1715699599.0588548,-0.39766055,-0.15535168,-0.36441895,0.0092124995,0.47547498,0.9273
302,1715699599.0721574,-0.5558563,-0.3689144,-0.2838991,0.07535,0.22935,1.35025
303,1715699599.0915937,-0.71426606,-0.6542355,-0.2653364,-0.0132,0.2102375,3.03655
304,1715699599.1071892,-0.48359326,-0.80845565,-0.26922017,-0.26235,0.6171,4.7100625
305,1715699599.1333852,1.0101988,-0.9871559,-0.33536696,-0.47547498,0.760925,5.3587875
306,1715699599.1520212,1.8538226,-0.79337925,-0.43833333,-0.2847625,0.558525,4.1647377
307,1715699599.1675322,1.4348624,-0.74720186,-0.458104,0.10505,-0.687775,2.3579874
308,1715699599.1832623,0.8631958,-0.7982722,-0.28654435,0.3746875,-1.3151875,2.1236875
309,1715699599.211142,-0.0814526,-0.7550459,-0.13811927,1.0819875,-1.8404375,3.0141375
310,1715699599.2338865,-0.09460244,-0.90631497,-0.4664679,1.2161875,-1.5208875,4.79215
311,1715699599.3347852,1.8331347,-0.5378135,0.27634558,-1.5065875,-0.7613375,5.1096373
312,1715699599.350535,2.5413914,0.4651376,-0.05882263,0.0433125,-2.53715,4.633475
313,1715699599.3661218,2.5413914,0.4651376,-0.05882263,0.34155,-3.31265,4.8060374
314,1715699599.3836784,2.4942966,1.1324159,-2.0642202,-0.810975,-3.540625,5.8232627
315,1715699599.3993485,3.8754282,1.2416972,-2.275841,-5.8337126,-0.8124875,7.1677375
316,1715699599.4149742,4.219266,1.2099847,-1.73211,-7.24625,-0.3042875,7.078225
317,1715699599.4343004,4.6719723,1.3258868,0.6614679,-8.788725,-0.4492125,5.776375
318,1715699599.4499483,5.017844,2.1225228,3.1767585,-6.3556623,-1.0126874,4.042225
319,1715699599.4655752,4.806529,2.3900154,3.4025536,-3.766125,-1.076625,2.86715
320,1715699599.4811993,3.5866513,2.3539295,2.087569,0.7602375,-0.8529125,0.51301247
321,1715699599.496835,2.84526,2.1627982,1.364419,1.5772625,-0.638825,-0.006875
322,1715699599.541632,0.36024466,1.3913302,-0.22110093,0.38953748,1.023,-0.62796247
323,1715699599.557252,0.24261469,1.2922477,-0.08451071,-0.1793,1.3160125,-0.5746125
324,1715699599.5755124,0.24016818,1.0410857,0.31977066,-0.8888,1.7452875,-0.8207375
325,1715699599.5925033,0.28062692,0.83200306,1.1484251,-0.442475,2.1000376,-1.6303375
326,1715699599.6006687,0.22426605,0.70041287,1.3875688,0.353375,2.2182875,-2.0937126
327,1715699599.696948,0.124969415,0.19958717,0.19337921,3.1922,1.7686625,-3.531825
328,1715699599.7143714,1.3974465,0.4966361,-0.020795107,1.2684375,2.2842875,-5.05945
329,1715699599.7351718,1.5600458,0.48929664,0.16024464,1.3077625,2.2693,-5.80085
330,1715699599.750749,1.8175383,0.5554587,0.13211009,1.69125,1.8123875,-6.2929626
331,1715699599.7662766,1.8360857,0.57522935,-0.016100919,1.79575,1.605725,-6.5252
332,1715699599.79093,1.7564679,0.85535175,-0.4439297,1.0478874,1.420375,-7.190975
333,1715699599.8127866,1.269312,1.2168195,-0.32120794,0.429,1.5311999,-6.7915373
334,1715699599.835582,0.916208,1.5595261,-0.17675841,-0.1835625,1.6781875,-5.437575
335,1715699599.8516116,0.9440367,1.6166208,-0.15993884,-0.27513748,1.5918375,-4.9508247
336,1715699599.8669972,1.0909327,1.5075382,-0.15331803,-0.4445375,1.07305,-4.11455
337,1715699599.8835511,0.6828746,0.9827676,-0.09866972,-0.3188625,0.2443375,-3.6938
338,1715699599.9047856,-0.1077523,0.7399541,-0.2751223,-0.574475,-0.31707498,-2.2482624
339,1715699599.9199789,-0.31987768,0.3730887,-0.30683485,-1.606825,0.3881625,-0.5746125
340,1715699599.9357877,-0.3845107,0.16616207,-0.21284403,-2.0796876,0.83655,0.2061125
341,1715699599.9610803,-0.48215598,-0.2952141,0.10336392,-3.0661125,1.5940375,2.5092375
342,1715699599.9766061,-0.31009173,-0.38481653,0.41304278,-3.0831625,1.4139125,3.2261624
343,1715699599.9923406,-0.07848624,-0.45974007,0.80233943,-2.6773999,0.9675875,3.7992625
344,1715699600.0934157,-0.1880734,-0.9845107,-1.4333334,3.2944999,-0.51094997,0.8399875
345,1715699600.11636,-0.57441896,-1.0477065,-1.1005046,0.671825,-0.5077875,2.640275
346,1715699600.1353452,-0.31396025,-1.1987767,-0.5683945,-0.2336125,-0.4651625,3.5712874
347,1715699600.1652951,0.34556574,-1.1560704,-0.12915902,0.22013749,-1.835075,3.991075
348,1715699600.1809049,0.7577982,-0.9715596,-0.12059633,1.296075,-2.6543,3.856875
349,1715699600.1964486,0.26697248,-0.61009175,-0.3980581,2.272875,-2.8609624,4.6696377
350,1715699600.2207959,1.0399541,-0.23149848,-1.3198777,2.678775,-3.025,6.807625
351,1715699600.2364452,2.6155963,0.03558104,-2.1103976,2.3177,-3.44795,7.4372373
352,1715699600.2520692,4.97289,1.1284404,-2.6605504,0.27981248,-2.9024875,6.2942
353,1715699600.2677903,3.9864373,1.5506575,-1.9363914,-1.219075,-1.7445999,4.983825
354,1715699600.2854528,2.9525995,1.6236545,-1.07237,-2.6219876,-0.69519997,4.378825
355,1715699600.3012922,2.7107034,1.8794037,0.053318042,-2.294875,-0.6292,5.3237247
356,1715699600.3170166,3.088578,2.0183487,0.1077523,-1.9870125,-0.7326,5.405675
357,1715699600.3369782,4.230474,2.4085627,-0.12599388,-0.7555625,-0.502425,4.024075
358,1715699600.3526382,4.1133485,2.4803212,-0.23720182,-0.52442497,-0.300025,3.10585
359,1715699600.3753316,2.9194648,2.4269114,-0.31100917,-0.30827498,0.153725,1.01145
360,1715699600.4525564,0.58237004,1.6961316,-0.24607034,-1.3319625,1.771825,-0.1794375
361,1715699600.4745493,-0.047507647,0.885627,0.6014221,0.0092124995,1.589775,-1.9041
362,1715699600.4903138,0.030993884,0.57909787,0.5119266,0.957275,1.319175,-2.603975
363,1715699600.5086608,0.071972474,0.4712538,0.39766055,1.482525,1.20945,-3.2005875
364,1715699600.537183,0.2828746,0.22619265,-0.12079511,1.2417625,1.435225,-3.7981625
365,1715699600.555279,0.32946482,0.103165135,-0.15279818,0.68255,1.5736874,-4.258375
366,1715699600.5707397,0.37512234,0.052186545,-0.04444954,0.402325,1.656875,-4.441525
367,1715699600.5920777,0.865948,0.21671253,0.23292048,0.3650625,1.68135,-4.6514874
368,1715699600.6161573,1.495107,0.58154434,0.28195718,0.823075,1.303225,-5.3779
369,1715699600.6360533,1.0835932,1.6688073,0.14873089,0.907225,1.286175,-6.3622622
370,1715699600.647607,1.0835932,1.6688073,0.14873089,0.8102875,1.6270375,-6.3526373
371,1715699600.6738818,2.0745106,2.6443427,0.22874619,1.4612125,1.1477125,-4.774
372,1715699600.6896603,3.0107033,2.5884862,-0.46157494,1.549625,0.1164625,-5.2809625
373,1715699600.7051408,2.9767585,2.4341438,-0.7527064,1.1906124,0.0589875,-5.6655498
374,1715699600.7218056,1.8660551,2.0698318,-0.722737,-0.2580875,0.46585,-5.9574623
375,1715699600.7375064,1.3310857,1.6539296,-0.3775688,-0.6543625,0.5489,-5.70075
376,1715699600.75398,0.9767584,1.4370031,-0.09836391,-0.6384125,0.3188625,-5.3417373
377,1715699600.9815621,0.5732875,-1.1111162,-0.7892966,1.1075625,-1.598575,5.2864623
378,1715699600.9971876,1.3811468,-0.71793574,-0.87542814,0.252175,-1.89255,4.6068
379,1715699601.012833,0.9474006,-0.5883792,-0.5469878,-0.76945,-0.7954375,3.671525
380,1715699601.0381875,0.024663609,-0.6318043,-0.08715596,-0.358325,-1.348325,4.6057
381,1715699601.0537772,0.34831804,-0.54587156,-0.18328746,-0.172975,-1.75835,4.9753
382,1715699601.0693622,1.23711,-0.16269113,-0.3553517,0.0209,-2.2174625,5.318362
383,1715699601.086421,1.9683028,0.32405198,-0.5023395,0.046475,-2.26435,5.2907248
384,1715699601.1019926,2.7554588,1.729159,-0.865948,-0.09735,-1.8936499,5.1734376
385,1715699601.117744,3.0907187,2.1105962,-1.1941895,-0.523325,-1.8638124,5.1415377
386,1715699601.1331062,3.3804283,2.4815443,-1.5307798,-1.5844125,-2.021525,5.038275
387,1715699601.223028,2.4372017,2.1659482,0.9590214,-0.5957875,0.53405,1.75505
388,1715699601.245983,2.471055,1.9255811,0.4830734,-0.09405,0.7321875,0.432025
389,1715699601.2663882,2.0908258,1.7415903,0.41181958,-0.018424999,1.030425,-0.2220625
390,1715699601.2866874,0.70285934,1.2173241,0.32446483,0.4939,1.9966375,-1.0934
391,1715699601.3072782,0.21915902,0.9955199,0.09674312,0.3597,2.3408,-1.0881749
392,1715699601.328058,0.39490825,0.76830274,0.34475535,0.0902,2.6103,-1.5675
393,1715699601.3483272,0.50662076,0.6284404,0.50703365,0.2553375,2.6773999,-1.98715
394,1715699601.3688245,0.5318043,0.4795107,0.6075382,0.5621,2.768975,-2.4644125
395,1715699601.389787,0.1537156,0.02558104,0.5914373,2.4135375,2.465375,-3.5468125
396,1715699601.410263,0.23822631,0.014571866,0.44720182,2.6691499,2.32155,-3.513675
397,1715699601.426194,1.0380275,0.1390367,0.028639143,2.7949624,2.1159875,-3.8333626
398,1715699601.4432144,1.5859327,0.30458716,-0.0024464831,2.3986876,1.8624375,-4.6035
399,1715699601.4618573,1.9005047,0.40316513,0.2204893,2.3475375,2.0499876,-5.811575
400,1715699601.4823086,1.4179357,0.33363914,0.11946484,2.595725,2.3098624,-6.4783125
401,1715699601.5081851,1.0279357,0.46880737,-0.055963304,2.7660875,1.286175,-6.384675
402,1715699601.6081185,0.9764526,0.50683486,-0.08328746,2.7566,0.9334875,-6.3292623
403,1715699601.6346843,-0.48185015,0.29796636,-0.529159,0.453475,0.011,-0.242275
404,1715699601.6503115,-0.121712536,0.106834866,-0.45249236,-0.7055125,-0.0529375,1.0978
405,1715699601.6658297,-0.14025994,0.024877677,-0.32955658,-0.9590625,0.1431375,1.3789876
406,1715699601.681546,-0.19266056,-0.41478595,0.10408258,-1.522675,1.0176375,2.9129374
407,1715699601.7125795,0.2567737,-0.8765597,0.1792049,-1.0858375,-0.120037496,4.75805
408,1715699601.7243145,0.85249233,-1.04526,0.14189602,-0.83765,-0.6622,5.238475
409,1715699601.7329862,0.85249233,-1.04526,0.14189602,-0.5627875,-1.1309375,5.5952873
410,1715699601.7410302,1.130474,-1.0901071,0.13191132,-0.3359125,-1.3344375,5.761525
411,1715699601.7567718,1.651789,-1.0237463,0.09969419,0.0209,-1.1906124,5.6912622
412,1715699601.7723982,1.844847,-0.9031651,-0.1088685,0.2105125,-0.19139999,4.7218876
413,1715699601.7880182,1.4636086,-0.8273242,-0.19041285,0.14245,0.3966875,4.025175
414,1715699601.8032403,0.56625384,-0.8301682,-0.24556576,0.15619999,0.49568748,3.890975
415,1715699601.8238697,0.35851684,-0.84342504,-0.4617737,0.403425,-1.5698375,4.5940123
416,1715699601.844348,0.7434251,-0.6764526,-0.6651376,0.6664625,-2.9803126,4.970075
417,1715699601.8646894,1.6041744,-0.055351686,-1.7077522,-0.2816,-1.7423999,5.1233873
418,1715699601.8853881,1.4294648,0.13781345,-1.622737,-2.6038375,-0.4970625,4.5673375
419,1715699601.9972112,2.366361,2.4527063,-1.2405658,-1.2062875,-1.11705,3.5905375
420,1715699602.0128846,2.8405657,2.485734,-1.2174312,-2.5441625,0.109037496,3.4925
421,1715699602.0284574,3.6386392,2.5776758,-0.9557645,-3.77355,1.0932626,2.9470375
422,1715699602.0447474,3.657691,2.5188532,0.28154433,-5.0337377,1.7378625,0.683375
423,1715699602.0604858,2.6382263,2.4246638,1.86789,-3.7235,1.5332625,-0.4500375
424,1715699602.0833597,2.550153,2.2380276,1.993578,-0.643775,1.030425,-1.0231375
425,1715699602.0989685,2.262691,1.853104,0.94851685,1.4845876,0.861025,-1.962675
426,1715699602.1146042,1.9968349,1.6371101,0.33883792,1.852125,0.831325,-2.3898876
427,1715699602.1302142,1.4436239,1.2472936,-0.46769115,1.4037375,0.693825,-3.1420126
428,1715699602.1457307,1.15026,1.059633,-0.634052,0.98931247,0.73645,-3.33685
429,1715699602.1675665,0.7346636,0.7426147,-0.56769115,-0.43175,1.4427875,-3.4593625
430,1715699602.1832078,0.64506114,0.67328745,-0.44720182,-0.80465,1.843325,-3.4115124
431,1715699602.1998918,0.77003056,0.36799696,-0.10111621,-1.20835,2.45685,-3.3496375
432,1715699602.229038,1.0799235,-0.076039754,0.32782874,-0.020624999,2.634775,-4.3467875
433,1715699602.2409692,1.1185474,-0.08022936,0.32671255,0.486475,2.38865,-4.5332375
434,1715699602.2569654,1.2624924,-0.084816515,0.14576453,1.2480875,2.162875,-4.763275
435,1715699602.3681412,0.46269113,0.29500002,0.10600917,1.651925,0.55962497,-5.858325
436,1715699602.3873227,-0.14750765,0.535474,0.025993885,1.614525,0.493625,-4.392575
437,1715699602.4092865,0.47981653,0.78267586,-0.42324162,1.05325,0.33055,-3.1557624
438,1715699602.4296777,0.43975535,0.77798164,-0.64047396,-0.3433375,0.6810375,-2.86605
439,1715699602.449973,0.19938838,0.6735933,-0.5386392,-1.064525,1.286175,-2.602875
440,1715699602.4704936,-0.68818045,0.21111621,0.11212538,-1.9295375,2.6868875,-1.425875
441,1715699602.4911203,-0.99001527,-0.20417432,0.42181957,-0.7205,1.4928375,0.37125
442,1715699602.5117073,-0.8924618,-0.4897095,0.177263,0.503525,-0.4609,1.8414
443,1715699602.5323238,-0.6773701,-0.75576454,-0.31579512,0.80396247,-1.3770624,3.3881376
444,1715699602.5528843,-0.42752293,-0.92324156,-0.5357798,0.1434125,-0.892375,4.8816624
445,1715699602.573707,-0.13608563,-1.027416,-0.6592202,0.1434125,-0.892375,4.8816624
446,1715699602.5941975,1.5178441,-1.1518807,0.02090214,-0.83655,0.1995125,6.71495
447,1715699602.6148415,2.1755352,-0.67206424,-0.04934251,0.2638625,-0.9733625,6.2695875
448,1715699602.6353748,1.7430123,-0.5527064,-0.15188073,2.1429374,-2.5562625,4.68985
449,1715699602.656494,1.3321102,-0.44698778,-0.2506575,2.5551624,-2.70325,4.565275
450,1715699602.734205,2.432003,0.3634098,-1.9427065,1.0894125,-1.2012,6.167425
451,1715699602.7493637,0.2853211,0.7224312,0.5409786,-2.0807874,-1.9735374,3.839825
452,1715699602.7593162,0.61723244,0.81559634,0.682263,-1.349975,-2.0823,4.2125874
453,1715699602.7695515,1.2915443,0.9680887,0.5679969,-1.349975,-2.0823,4.2125874
454,1715699602.7847388,1.9737004,1.2964374,0.39377674,-0.340175,-2.242075,3.8248374
455,1715699602.8027582,2.1669726,1.8899083,0.0044801226,0.0199375,-2.3293874,2.386725
456,1715699602.8240042,0.9293578,2.9312997,-0.21334863,-0.8333875,-2.088625,1.8519875
457,1715699602.8390987,1.2166208,3.270535,-0.22752294,-2.059475,-0.69519997,2.8501
458,1715699602.85472,3.0392509,3.124358,0.053103976,-2.7402375,-0.1456125,2.96835
459,1715699602.8804219,3.5610552,2.9894037,0.6268043,-3.6350875,0.451,-0.0345125
460,1715699602.896067,2.820795,2.740474,1.004893,-3.3400126,0.729025,-1.388475
461,1715699602.9117026,2.0153975,2.3621867,1.3224312,-2.1745625,1.47785,-1.8145875
462,1715699602.927301,2.2865443,2.0300765,0.97808874,-1.3883375,2.0222125,-1.9157875
463,1715699602.942927,2.2418962,1.7254894,0.64851683,-0.0429,2.48985,-2.6114
464,1715699602.965173,1.8047858,1.2437309,0.020076452,0.7997,2.4079,-3.30495
465,1715699602.9808128,1.5295565,1.0209022,-0.21946482,0.7997,2.4079,-3.30495
466,1715699602.9977372,0.7842049,0.5356728,-0.60795105,0.859375,2.6038375,-4.0346622
467,1715699603.0154212,0.76830274,0.26330277,-0.56747705,0.688875,2.7072375,-4.0154123
468,1715699603.0510385,0.76830274,0.26330277,-0.56747705,0.437525,2.8978124,-4.0517125
469,1715699603.112072,0.76830274,0.26330277,-0.56747705,0.369325,2.971375,-4.0847125
470,1715699603.1334548,0.41295108,0.10539756,-0.5979664,1.4623125,1.1455125,-4.4958377
471,1715699603.149083,0.6347553,0.32527524,-0.23894496,0.6601375,0.526625,-3.77685
472,1715699603.1652586,1.0799235,0.3714526,0.0111162085,0.72833747,0.3199625,-3.80985
473,1715699603.1826208,1.506315,0.41314983,-0.017324159,1.111825,0.3540625,-4.798475
474,1715699603.1982253,1.1061163,0.36360857,-0.072782874,1.092575,0.4882625,-5.1904874
475,1715699603.2137086,-0.016513761,0.36310396,-0.21701835,0.8006625,0.2528625,-4.8602123
476,1715699603.2407491,-0.68328744,0.54882264,-0.44108564,-0.763125,1.44375,-1.694275
477,1715699603.2564023,-0.1795107,0.5090673,-0.48940367,-1.4587375,1.774025,-0.733425
478,1715699603.278218,0.8237462,0.3272171,0.13211009,-2.0978374,0.8877,-0.4181375
479,1715699603.290442,0.25698778,0.09683486,0.8562691,-1.1466125,0.46695,0.00055
480,1715699603.3020427,-0.044541284,-0.016009174,0.92874616,-0.289025,0.2836625,0.6397875
481,1715699603.3232863,-0.36961773,-0.19591743,0.43333337,1.3173875,0.0556875,2.3016124
482,1715699603.3408723,-0.25688076,-0.37747705,-0.49938837,1.4675375,-0.1519375,3.7855124
483,1715699603.3565085,-0.18195719,-0.41681957,-0.6604434,1.1320375,-0.1956625,4.3638372
484,1715699603.3768656,0.97767586,-0.7706422,-0.6690061,-1.20835,0.1249875,6.438025
485,1715699603.3929965,1.5197706,-0.73750764,-0.40978593,-1.6984,0.3381125,6.7425876
486,1715699603.4087346,1.9834862,-0.6540214,-0.08521406,-1.8880125,0.407275,6.6862125
487,1715699603.6402812,0.561055,2.2060091,0.15607034,-3.0458999,-2.1258874,1.5004
488,1715699603.6558607,0.4631957,2.9088686,1.062997,-3.711675,-0.9552125,2.4836626
489,1715699603.6822667,5.3782873,3.683991,1.2105963,-1.2914,-0.07095,1.4727625
490,1715699603.6977565,5.106422,3.4089756,0.29347095,-0.109037496,-0.3139125,-3.0578625
491,1715699603.7133858,3.925688,3.0826757,0.22925076,-0.0067375,-0.17545,-3.7629626
492,1715699603.729183,2.0530121,2.1953058,-0.12110092,0.674025,0.6395125,-3.94625
493,1715699603.757042,2.161361,1.6251835,-0.6534098,0.4651625,1.4224375,-3.5935624
494,1715699603.7823415,1.7179358,1.0426147,-0.43986237,0.047575,1.3948,-3.853575
495,1715699603.9043558,1.0623853,-0.31406727,0.09897554,-0.205975,2.699675,-4.6728
496,1715699603.920053,0.9408716,-0.40478593,0.10917432,0.0592625,2.5762,-4.8431625
497,1715699603.9427252,0.5415902,-0.4683028,-0.07472477,0.9339,2.1649375,-4.983825
498,1715699603.958238,0.3262997,-0.38704893,-0.20408258,0.9999,1.5098875,-4.442625
499,1715699603.988875,0.5108104,-0.12833335,-0.3434251,0.588775,0.47753748,-3.6191375
500,1715699604.0080318,0.470841,0.012125383,-0.32171252,0.34265,0.4488,-3.584075
501,1715699604.0238078,0.032003056,0.13425076,-0.3380275,-0.1122,0.726825,-3.4541376
502,1715699604.048231,-0.14220184,0.15759939,-0.33149847,-0.9334875,1.5321625,-2.722225
503,1715699604.06698,-0.3735015,0.17889908,0.055764522,-1.3979625,1.6611375,-1.8722
504,1715699604.0835264,-0.43405196,0.18206422,0.5394496,-0.763125,0.78113747,-0.9816125
505,1715699604.09931,-0.13680428,0.18470947,0.4608563,0.1700875,-0.1797125,-0.3477375
506,1715699604.1149223,-0.041896023,0.14984709,0.33669725,0.4310625,-0.3309625,-0.2572625
507,1715699604.1304047,-0.11457186,0.013149847,0.06116208,0.50985,0.16115,-0.1123375
508,1715699604.1461911,-0.15270643,-0.05240061,0.0006116208,0.4332625,0.3529625,0.00165
509,1715699604.1617963,-0.6185474,-0.20366973,0.007951071,0.30965,0.44027498,0.8058875
510,1715699604.267342,2.545061,-0.5602447,-0.06616208,-1.301025,-0.44275,7.0877123
511,1715699604.2831583,2.5174313,-0.34087157,0.23853211,-0.948475,-0.2479125,6.721275
512,1715699604.2986424,2.4681957,0.052905202,0.57778287,-0.2261875,-0.3958625,6.3122125
513,1715699604.3149261,2.4650307,0.19204892,0.44912842,1.99595,-1.6454625,5.19585
514,1715699604.3306792,2.179006,0.39877677,-0.39521408,3.5448875,-2.493425,3.8930376
515,1715699604.3511448,1.3867431,0.5642202,-1.1380274,3.370125,-2.494525,3.0141375
516,1715699604.3646414,0.9216055,0.62966365,-1.2778746,2.798125,-2.3177,3.078075
517,1715699604.3727636,0.67431194,0.73772174,-1.3006116,2.120525,-2.053425,3.417975
518,1715699604.3891041,1.1038686,0.8761468,-1.4567738,0.502425,-1.4356375,3.974025
519,1715699604.418248,1.4826758,1.0103976,-1.0345565,-2.5207875,-1.1831875,2.22695
520,1715699604.4338932,0.9730887,0.8988838,-0.50866973,-3.205675,-1.35465,1.5813875
521,1715699604.4531977,-0.064113155,0.7704434,0.49480122,-3.2962875,-1.6198875,1.25125
522,1715699604.4730058,-0.025489297,0.7443425,1.2284404,-1.8038625,-1.9768375,1.696475
523,1715699604.492496,0.8019419,1.1114221,0.5756422,-0.36465,-1.9768375,1.6484874
524,1715699604.5197434,1.6640214,2.4425075,-0.22649847,-0.3262875,-1.034,1.3737625
525,1715699604.549478,2.343425,2.7397554,-0.934052,-0.6373125,-1.396175,1.6484874
526,1715699604.6361694,2.343425,2.7397554,-0.934052,-1.61535,-1.548525,1.458875
527,1715699604.6633909,2.0794036,1.6053976,0.17461774,2.0491624,2.699675,-0.9741875
528,1715699604.6893427,1.6405658,1.2605504,-0.52772176,2.6010876,1.0869375,-2.49315
529,1715699604.704897,1.2817584,1.1616666,-0.73200303,2.205775,0.6639875,-2.9640875
530,1715699604.7206497,1.0035627,1.0720643,-0.83761466,1.66045,0.86955,-3.1856
531,1715699604.7591395,0.993578,0.8159022,0.23761468,-1.0965625,3.1450374,-3.3891
532,1715699604.7780566,1.8455658,0.28766057,1.0390366,1.1724625,2.5048375,-5.3246875
533,1715699604.7941732,1.4856269,0.09735474,0.563104,2.3390124,1.8954375,-6.0234623
534,1715699604.809695,1.2204893,-0.10856269,-0.3609633,2.6585624,1.5428874,-6.315375
535,1715699604.8253167,1.1719725,-0.14464831,-0.72558105,2.2292874,1.7217749,-6.3228
536,1715699604.8525696,1.3123394,-0.1961315,-0.90448016,0.2041875,1.5417875,-6.0714498
537,1715699604.868068,1.6327217,-0.42680427,-0.48226303,-0.1579875,1.183875,-6.1439123
538,1715699604.882265,1.6327217,-0.42680427,-0.48226303,-0.287925,0.6842,-6.6061873
539,1715699604.9060788,1.1346636,-0.83435774,-0.29999998,-0.2443375,0.457325,-7.2358
540,1715699604.9262,0.1351682,-0.8040826,-0.28603974,-0.490325,0.7535,-7.107925
541,1715699605.0303602,-0.30744648,0.11732416,-0.07206422,-0.43285,1.181675,1.21495
542,1715699605.0458717,-0.46310398,-0.10906728,0.08899082,-0.43395,1.4277999,2.6189625
543,1715699605.061578,-0.54148316,-0.25157493,0.15851681,-0.43395,1.4277999,2.6189625
544,1715699605.0907366,-0.5637156,-0.40672785,0.2346636,-0.27513748,1.30955,3.3785124
545,1715699605.108804,0.13986239,-0.89785933,0.109892964,0.57915,0.1079375,5.407875
546,1715699605.1273916,1.0319114,-1.1352752,-0.4212997,0.78045,-0.4279,6.9333
547,1715699605.1430209,1.8746178,-1.0381193,-0.63241595,0.3320625,0.106837496,7.3338375
548,1715699605.159591,2.3866515,-0.72385323,-0.52844036,0.1860375,0.2091375,6.4944
549,1715699605.1752837,2.1638074,-0.50876147,-0.3798165,0.4651625,-0.4577375,5.573975
550,1715699605.190963,1.4741132,-0.31896025,-0.31172782,1.2854875,-1.48995,4.78995
551,1715699605.206593,1.1861315,-0.22079511,-0.4188532,1.581525,-1.717925,4.6536875
552,1715699605.2243319,0.8173241,0.030993884,-0.7600459,1.69345,-1.5453625,5.037175
553,1715699605.2400246,0.8656422,0.14617737,-1.0849082,1.45695,-1.1757625,5.2907248
554,1715699605.2654388,2.2219114,0.70408255,-1.7399541,-1.17645,-0.42473748,5.000875
555,1715699605.2905676,1.6745107,0.7938838,-0.79082566,-3.46995,-1.2705,3.3358874
556,1715699605.3067968,1.0382262,0.8702293,0.7540214,-3.1279874,-1.904375,2.892725
557,1715699605.4168808,1.0103976,3.5390368,0.6266055,-2.12135,-1.698675,0.37867498
558,1715699605.4309402,2.3905199,3.1082568,0.4088685,-1.74845,-1.8563875,-0.4745125
559,1715699605.439019,2.4159021,2.9991896,0.30325687,-1.6930375,-1.4782625,-0.817575
560,1715699605.4761984,1.4368043,2.7963302,-0.13230887,-0.5511,1.283975,-2.80005
561,1715699605.4919965,1.3216056,2.6706421,-0.4312997,-0.3487,1.6537125,-2.8532624
562,1715699605.5076418,1.2470948,2.3719723,-0.69897556,-0.2921875,2.1756625,-3.0397124
563,1715699605.5232368,0.7441437,1.7081498,-0.63995415,0.37675,1.7964375,-3.0514
564,1715699605.5388684,0.8671712,1.5982722,-0.9072324,0.3298625,1.3607,-3.109975
565,1715699605.554486,1.0257951,1.2866514,-0.9118195,-0.39875,1.2573,-3.466925
566,1715699605.5700638,1.0529052,1.019679,-0.65168196,-0.896225,1.74735,-3.8621
567,1715699605.592398,0.9333333,0.48879203,-0.31142202,-1.1881375,2.0031,-4.459675
568,1715699605.610696,1.0953058,-0.09582569,-0.10814985,-1.24245,2.1745625,-4.580125
569,1715699605.6265008,1.0443425,-0.39949542,0.07553517,-1.10715,2.1916125,-4.7271123
570,1715699605.6421034,1.0267125,-0.46360856,0.111116216,-0.946275,2.1256125,-4.7152877
571,1715699605.669979,0.7390367,-0.65688074,0.038425077,-0.41799998,2.093575,-4.596075
572,1715699605.6925225,0.7141743,-0.66402143,0.006422018,-0.0845625,2.18515,-4.31695
573,1715699605.7709303,-0.0032568807,0.0185474,-0.052293576,0.7261375,0.678975,-3.1057124
574,1715699605.7929435,-0.33475536,0.22110093,0.078899086,0.030524999,2.2055,-2.2471626
575,1715699605.8084407,-0.41773698,0.31701833,-0.05004587,0.07425,2.262975,-1.7528499
576,1715699605.8241565,-0.14750765,0.42120793,-0.22599387,-0.0334125,1.285075,-1.1435875
577,1715699605.8397737,-0.23007645,0.53007644,-0.055963304,-0.46048748,0.2272875,-0.952875
578,1715699605.8554273,-0.47044343,0.46463302,0.13088685,-0.5542625,0.2486,-0.682275
579,1715699605.8709283,-0.911422,0.25668198,0.39235476,-0.323125,1.083775,0.47575
580,1715699605.893424,-1.2702293,0.091238536,0.16432722,0.0188375,1.57905,2.337775
581,1715699605.9089005,-0.78726304,-0.20133027,-0.21457188,-0.1164625,1.1466125,4.2307377
582,1715699605.9245048,-0.43772173,-0.29204893,-0.2690061,-0.2165625,0.930325,4.801775
583,1715699605.951293,0.53058106,-0.66503054,-0.16503058,-0.113299996,-0.7250375,6.8002
584,1715699605.9639833,0.8056116,-0.7911315,-0.19133028,0.1104125,-0.8295375,7.7045374
585,1715699605.9722865,1.1842048,-0.87564224,-0.3141743,0.1104125,-0.8295375,7.7045374
586,1715699605.987348,2.3022478,-1.0337461,-0.7224312,0.14135,-0.1456125,9.020138
587,1715699606.0163229,3.4434252,-0.6834862,-0.5897095,-0.577775,0.86955,8.26815
588,1715699606.031986,2.9508715,-0.27573395,-0.08256881,-0.102575,-0.4736875,6.116275
589,1715699606.0486493,2.0717585,-0.19082569,0.036697246,0.6175125,-1.5442625,5.5207624
590,1715699606.0642772,1.1819571,-0.2046942,-0.12181956,1.2662375,-2.1003125,5.53575
591,1715699606.2022731,2.1379206,0.81784403,1.0122324,-2.7061374,-1.3663375,0.0985875
592,1715699606.2177343,1.3081498,0.8673853,1.5930734,-1.9434249,-1.9075375,-0.3733125
593,1715699606.2335079,0.051269114,1.1826758,1.3343579,0.1519375,-2.460425,0.5971625
594,1715699606.2640276,0.58379203,1.7323087,0.40866974,0.8347625,-1.4026375,3.6064875
595,1715699606.294784,3.6393423,2.7639146,-1.3069266,-0.493625,-1.194875,1.9606125
596,1715699606.3114917,2.296835,2.9074464,-0.8117278,-2.0669,-0.2968625,0.3169375
597,1715699606.327136,2.1435323,2.948425,-0.5035627,-2.3354375,0.1153625,0.2594625
598,1715699606.3427453,3.0851223,2.7663608,-0.26503056,-2.45465,1.553475,-0.30305
599,1715699606.3583708,3.288685,2.5699236,-0.12793578,-2.0031,2.4173875,-1.88705
600,1715699606.3785102,3.3243577,1.9360856,0.2495413,-1.505625,2.18625,-2.8138
601,1715699606.3943388,2.7990825,1.4384251,-0.13302752,-0.74181247,1.3723875,-4.427775
602,1715699606.409797,1.9839909,1.1306881,-0.3980581,-0.96442497,2.01795,-5.1489625
603,1715699606.4255772,1.6740061,1.005,-0.4608563,-1.1785125,2.347125,-5.1404376
604,1715699606.4411883,1.44974,0.7994954,-0.29897556,-1.5151125,2.52285,-5.0018373
605,1715699606.5370545,1.7994955,-0.19805811,0.45555046,0.654775,3.2217624,-6.519975
606,1715699606.553836,1.2686086,-0.79796636,-0.5832875,1.3386999,3.1865625,-5.7156
607,1715699606.5702245,1.4636086,-0.94984716,-0.6074465,1.0286375,2.9361749,-5.419425
608,1715699606.5951152,1.7413915,-1.0647247,-0.577263,0.85085,2.7093,-5.6783376
609,1715699606.6122591,1.3142661,-1.1091744,-0.41906726,0.6419875,2.5867875,-6.434725
610,1715699606.6278994,0.8266055,-1.0547401,-0.26555046,0.7027625,2.508,-6.483675
611,1715699606.6435359,-0.20347095,-0.8121254,-0.034250766,0.8006625,2.3747625,-6.30575
612,1715699606.6590056,-0.89510703,-0.32232416,0.10866973,1.5283124,1.51195,-4.2328
613,1715699606.6794553,-1.0108105,-0.100504585,0.05259939,1.75945,1.1103125,-3.3603625
614,1715699606.696558,-0.69866973,0.22762997,-0.37879205,1.614525,0.60225,-1.8242124
615,1715699606.7122252,-0.45432723,0.34261468,-0.6623853,0.436425,0.6725125,-0.983675
616,1715699606.727836,-0.47603974,0.33964834,-0.55698776,-0.2486,0.92716247,-0.7269625
617,1715699606.7434683,-1.0041744,0.19154435,-0.09888379,-0.9942625,1.1572,-0.0292875
618,1715699606.7589788,-1.5032569,-0.022125384,0.22925076,-0.8525,1.2029876,1.6432625
619,1715699606.774715,-1.4579052,-0.18298166,0.2795107,-0.6298875,1.080475,2.7383125
620,1715699606.795435,-0.671055,-0.41090214,0.19805811,0.41195,-0.9317,5.3502626
621,1715699606.8111694,0.44862384,-0.50876147,-0.15065749,0.68255,-1.6071,5.7541
622,1715699606.826801,0.77461773,-0.56004584,-0.40561163,0.741125,-1.7562875,6.07365
623,1715699606.9112809,0.929159,-0.63425076,-0.68756884,0.741125,-1.7562875,6.07365
624,1715699606.9343328,2.6370032,0.04637615,-0.3537156,0.61215,-1.2907125,4.79325
625,1715699606.9604518,0.9039755,0.07339449,-0.46911314,0.94875,-0.975425,4.5886497
626,1715699606.9759624,1.3527981,0.19082569,-0.9902141,0.5737875,-2.3442376,5.724262
627,1715699606.9957783,2.4686086,0.5522936,-1.2964374,-0.21133749,-1.7370375,5.3087373
628,1715699607.0060368,2.4686086,0.5522936,-1.2964374,-1.0443125,-1.263075,4.4928126
629,1715699607.014146,2.2152905,0.6103976,-1.1388379,-1.654675,-1.144825,3.8941374
630,1715699607.0380948,0.75535166,0.3648318,0.0060091745,-2.4057,-1.2247125,3.3273625
631,1715699607.062264,0.7621865,0.25454128,0.3701376,-1.9210125,-1.4249125,3.6821125
632,1715699607.0777898,1.7264985,0.588685,0.4828746,-1.031525,-1.4877499,3.64595
633,1715699607.0963194,2.0603518,0.7748165,0.4274159,-0.4296875,-1.213025,2.75
634,1715699607.1128364,2.1401682,1.427416,0.41284403,-0.2123,-1.2705,2.5177624
635,1715699607.1283267,1.9717584,1.8889908,0.27074924,0.2275625,-1.7573875,2.4954875
636,1715699607.1439426,2.1051986,2.290214,-0.3456728,-0.0078375,-1.52515,2.726625
637,1715699607.1594973,2.4174314,2.369526,-0.63169724,-0.644875,-1.0223125,2.7457376
638,1715699607.1806264,2.9254892,2.2972476,-0.58062696,-2.0563126,-0.3042875,2.152425
639,1715699607.2103105,3.1300764,2.0059175,0.38573396,-3.0534625,0.831325,0.00055
640,1715699607.2926376,2.0896025,1.3010246,0.36350152,-0.2145,1.1902,-1.95635
641,1715699607.3122327,1.0567737,0.7184557,0.09551988,-0.517,2.6837249,-2.5997124
642,1715699607.3278766,0.9606575,0.5788991,0.24536698,-0.1579875,2.9096375,-2.9374125
643,1715699607.346046,0.9755352,0.5166208,0.31100917,0.07425,2.92765,-3.0503
644,1715699607.3665113,1.1248777,0.2767584,0.22711009,1.01805,2.96395,-3.5616624
645,1715699607.3967774,1.2437309,0.0048929662,-0.08695719,1.8085375,2.6006749,-4.4969373
646,1715699607.4289782,1.3506575,-0.057079513,-0.111116216,1.9597875,2.42385,-4.7526875
647,1715699607.4446661,1.4965291,-0.09897554,-0.14495413,2.0332124,2.2906125,-4.9176874
648,1715699607.4663138,1.7730887,-0.29204893,-0.15331803,2.0257876,1.58125,-6.0597625
649,1715699607.4920697,1.8623853,-0.51753825,-0.050764527,2.209075,1.3553375,-6.752075
650,1715699607.5100875,1.1583028,-0.5612691,-0.33516818,2.09605,0.8344875,-7.2708626
651,1715699607.5255575,0.45585626,-0.106834866,-0.34954128,1.8126625,0.729025,-7.056775
652,1715699607.5385294,0.45585626,-0.106834866,-0.34954128,1.4612125,0.5809375,-6.6530747
653,1715699607.5477028,0.23088685,0.13007645,-0.28899083,0.88275,-0.03795,-5.288525
654,1715699607.5713336,0.17717126,0.67237,-0.023440367,0.61435,-0.20735,-4.002625
655,1715699607.5972576,0.35310397,0.80316514,-0.20061162,0.3267,0.105875,-3.5563
656,1715699607.675107,-1.3749236,-0.1475994,0.13558105,0.537625,1.0602624,1.762475
657,1715699607.6977932,-0.80845565,-0.42262998,-0.030076453,0.8699625,0.1079375,3.4541376
658,1715699607.713437,-0.0042813458,-0.8448471,-0.6311927,0.621775,0.1463,4.89445
659,1715699607.729066,0.29357797,-1.0456728,-0.7842049,-0.322025,0.9229,5.8851376
660,1715699607.7446508,0.6086697,-1.1021407,-0.5730887,-0.9356875,1.0709875,6.518875
661,1715699607.7725763,1.1634098,-1.0930734,-0.07909786,-0.56168747,-0.44275,7.0131874
662,1715699607.7912223,1.8865442,-0.78429663,-0.13792048,-0.0908875,-1.0148875,6.4145126
663,1715699607.8070195,1.3972477,-0.57105505,-0.02324159,0.653675,-1.0115875,4.7293124
664,1715699607.822668,1.0867431,-0.53955656,0.013042814,0.8806875,-0.942425,4.4820876
665,1715699607.838291,0.5852141,-0.48735473,0.005504587,1.2684375,-0.8210125,4.4342375
666,1715699607.8573217,0.33383793,-0.5209939,-0.28359327,1.567775,-0.41195,5.321525
667,1715699607.8732011,0.9953058,-0.4692202,-0.82079506,1.4601125,-0.7528125,5.3502626
668,1715699607.8979692,1.3879664,-0.16808869,-1.4187615,0.0336875,-1.8808625,4.45445
669,1715699607.9137046,1.0499542,-0.10122324,-1.0282416,-1.8038625,-1.363175,4.007025
670,1715699607.929343,0.7922477,-0.12344036,-0.7675841,-2.35345,-0.9871125,4.005925
671,1715699607.9448605,0.6331346,-0.25963303,0.078180425,-2.786025,-0.69629997,4.6057
672,1715699607.9743066,1.5099847,-0.18521407,0.32181957,-2.0744624,-1.093675,4.883725
673,1715699608.0696466,4.2199845,1.4242661,0.6946942,-6.2310877,1.7197125,1.4834875
674,1715699608.0788386,2.5259938,1.3810397,2.3535168,-4.51605,0.9548,0.6045875
675,1715699608.086978,2.2326148,1.4016361,2.4851224,-2.228875,0.5383125,0.633325
676,1715699608.1049604,2.2816515,1.4020337,2.2195718,-0.946275,0.4786375,0.66316247
677,1715699608.1135585,2.3688073,1.3752294,1.5218196,0.58134997,0.66715,0.430925
678,1715699608.1215537,2.3280275,1.346682,1.1310856,1.1468875,0.947375,0.22
679,1715699608.1379297,2.1196787,1.2155963,0.21732417,1.9086375,1.85075,-0.480975
680,1715699608.1559973,1.7674772,1.1319113,-0.42935783,2.0343125,1.71545,-0.9805125
681,1715699608.182502,1.5204892,1.0860398,-0.62018347,1.144825,0.727925,-2.36225
682,1715699608.1977992,0.5745107,0.95056576,-0.4735015,0.029424999,1.3660625,-2.3876874
683,1715699608.2137392,0.5855199,0.91957194,0.21345566,-0.3018125,1.7197125,-2.384525
684,1715699608.2331126,0.7234404,0.8600459,0.6446483,-0.035475,1.759175,-2.4761
685,1715699608.2488449,1.1101987,0.62252295,0.97584105,1.5016375,1.496,-3.1312876
686,1715699608.2669623,1.7692201,0.19399083,0.56830275,3.2626,0.6128375,-4.3115873
687,1715699608.2830646,1.7623854,0.07584098,0.2654434,4.1743627,0.0653125,-5.66775
688,1715699608.3023932,1.6544343,-0.038226303,-0.18868501,4.15305,-0.07315,-6.1226
689,1715699608.32733,1.6899083,-0.20733945,-0.40958714,2.8331876,0.6501,-6.8000627
690,1715699608.3514135,1.8690062,-0.34475535,-0.18573394,2.1696124,0.4147,-7.3731623
691,1715699608.453479,0.45056576,0.38481653,-0.1479052,0.603625,-0.502425,-5.6101375
692,1715699608.4691265,0.54036695,0.52588683,-0.31509176,0.386375,-0.521675,-5.4322124
693,1715699608.4847538,0.062492356,0.72262996,-0.30733946,-0.1931875,-0.1274625,-5.0136623
694,1715699608.5040965,-0.54464835,0.7994954,-0.3329205,-0.83655,0.8866,-3.40505
695,1715699608.5197773,-0.81896025,0.64668196,-0.2557645,-1.368125,1.6643,-1.6036625
696,1715699608.5353467,-0.8670795,0.5803211,-0.2077523,-1.6099875,1.841125,-0.0856625
697,1715699608.5519772,-0.89633024,0.2845107,-0.09062692,-1.7623374,1.7771875,0.91025
698,1715699608.574539,-0.6944954,0.07420489,0.2700306,-1.6440874,1.2489125,2.02455
699,1715699608.6044788,-0.30133027,-0.3030581,0.24781345,-0.63635,0.122925,3.6629999
700,1715699608.6220722,0.21987768,-0.58368504,-0.10010704,-0.507375,0.106837496,4.5524874
701,1715699608.632766,0.44056576,-0.6547401,-0.2243578,-0.67141247,0.323125,4.75805
702,1715699608.6544127,0.9252752,-0.8422018,-0.3609633,-1.5736874,1.6003625,4.7867875
703,1715699608.6755667,0.82129973,-0.87584096,0.27227828,-1.8357625,1.7942375,4.2339
704,1715699608.695497,0.46686545,-0.8924618,0.92068803,-0.154825,0.3518625,3.8526125
705,1715699608.7131696,0.28970948,-0.9365902,0.8501529,2.1110375,-1.2705,4.1625376
706,1715699608.7306135,0.3856269,-0.93272173,0.1961315,3.166625,-1.3492875,4.5738
707,1715699608.9628894,2.6380274,1.1485168,0.6626911,-1.183875,-1.194875,3.51175
708,1715699608.9890554,2.5816514,1.1053059,-0.20091744,-0.4637875,-1.0404625,2.46235
709,1715699609.0054944,1.987156,0.9703364,-0.46004587,-1.0613625,-0.77935,1.92225
710,1715699609.021135,1.3762538,0.7989755,-0.31334862,-1.9124875,-0.315975,1.99265
711,1715699609.0367734,1.2266055,0.6862385,-0.1374159,-2.18845,-0.091299996,2.1225874
712,1715699609.058421,1.4735932,0.6435321,0.10723242,-2.25445,0.2410375,2.1311126
713,1715699609.0817626,1.5492355,0.64056575,0.3845107,-1.40965,0.171875,0.5577
714,1715699609.0973449,1.3328288,0.5969419,0.4711468,-0.880275,0.0556875,0.076175
715,1715699609.113628,1.1299695,0.5374159,0.47431195,-0.2773375,-0.10725,-0.2976875
