id,timestamp,acc_x,acc_y,acc_z,gyro_x,gyro_y,gyro_z
0,1715699408.1682842,0.85270643,0.5205963,-0.091330275,0.1552375,-0.00605,0.0793375
1,1715699408.173112,0.8668654,0.51100916,-0.10111621,0.088,0.0823625,0.0741125
2,1715699408.1920617,0.8615749,0.50489295,-0.076452605,0.07535,0.09405,0.075075
3,1715699408.2007337,0.86126906,0.49541283,-0.06808869,0.0891,0.0749375,0.0719125
4,1715699408.2096927,0.86299694,0.4943884,-0.06441896,0.1093125,0.054725,0.06985
5,1715699408.2244904,0.8859327,0.4890979,-0.078394495,0.165825,-0.00385,0.0581625
6,1715699408.2411046,0.8591284,0.475841,-0.0903211,0.17545,-0.0336875,0.0400125
7,1715699408.2577534,0.83934253,0.47267583,-0.09816514,0.17655,-0.0677875,0.044275
8,1715699408.265859,0.82048935,0.47003058,-0.13577981,0.1370875,-0.0529375,0.0878625
9,1715699408.273761,0.81977063,0.4593272,-0.16961774,0.048675,0.0004125,0.13475
10,1715699408.2911916,0.83761466,0.4504587,-0.15331803,-0.0803,0.0738375,0.176275
11,1715699408.306851,0.85321105,0.43414372,-0.09469419,-0.1579875,0.1016125,0.1881
12,1715699408.3352156,0.8586086,0.41804284,-0.06808869,-0.153725,0.078099996,0.16995
13,1715699408.3567624,0.76830274,0.3819572,-0.07472477,-0.0419375,-0.0763125,0.1475375
14,1715699408.3723638,0.76605505,0.39143732,-0.105504595,-0.0482625,-0.097625,0.2008875
15,1715699408.3880541,0.8027523,0.38776758,-0.13619266,-0.1431375,-0.0242,0.2893
16,1715699408.4033625,0.81957185,0.3853211,-0.14056575,-0.2017125,-0.0006875,0.3254625
17,1715699408.4195096,0.8766514,0.38073394,-0.12568808,-0.2943875,-0.013475,0.362725
18,1715699408.4391081,0.86055046,0.37951073,-0.14698777,-0.3168,-0.0444125,0.3595625
19,1715699408.4599268,0.8386392,0.35749236,-0.16116208,-0.409475,-0.0369875,0.366025
20,1715699408.4755456,0.8386392,0.35749236,-0.16116208,-0.43821248,-0.0763125,0.364925
21,1715699408.4923477,0.76778287,0.34576452,-0.11865443,-0.4467375,-0.183975,0.37235
22,1715699408.5781834,1.0982722,0.8617737,-0.037110094,-1.07525,-0.0369875,-0.06765
23,1715699408.5938022,1.0982722,0.8617737,-0.037110094,-1.1551375,0.0056375,-0.13255
24,1715699408.6196275,1.3510704,1.3157034,0.37573397,-1.2020249,0.2921875,-1.0060875
25,1715699408.6360133,1.2647249,1.3796178,0.4457645,-1.023,0.4456375,-1.206425
26,1715699408.65395,1.2430122,1.62763,0.52946484,-0.2805,0.7651875,-1.7890124
27,1715699408.6695855,1.3086698,1.7090673,0.4687003,0.0710875,0.78113747,-2.0788624
28,1715699408.685086,1.4420948,1.8455658,0.36738533,0.6942375,0.541475,-2.80005
29,1715699408.715893,1.5849082,1.8613608,0.12212538,1.111825,0.3125375,-3.8982625
30,1715699408.7238753,1.7579969,1.6957186,-0.15229358,0.78375,0.7429125,-4.5810876
31,1715699408.740062,1.792156,1.5784863,-0.17603976,0.5652625,0.9868375,-4.881525
32,1715699408.770009,1.4377217,0.92711014,0.14995413,0.370425,1.3255,-6.03735
33,1715699408.8104682,0.84811926,0.5479052,0.16707952,1.2566125,0.8152375,-6.249375
34,1715699408.8398352,0.26819572,0.575948,0.056467887,1.48885,0.5863,-5.909475
35,1715699408.855454,-0.17879206,0.64526,-0.013455657,1.5081,0.3507625,-5.2991123
36,1715699408.955546,0.15301223,-0.8091743,-0.4253823,-0.36685,-0.318175,0.4224
37,1715699408.9769263,0.32090214,-1.1211009,-0.35779816,-1.14015,0.291225,1.478125
38,1715699408.9977682,0.80662084,-1.2551528,-0.016620796,-1.31065,-0.37675,2.0873876
39,1715699409.0179946,1.0555505,-1.2990825,0.30784404,-0.83655,-1.5868875,2.1300125
40,1715699409.0388546,0.81417435,-1.2922477,0.38501528,0.115775,-1.7765,2.5081375
41,1715699409.0595386,0.5776758,-1.1748166,0.4274159,0.115775,-1.7765,2.5081375
42,1715699409.0801368,0.93863916,-0.91876143,0.08940367,1.0575125,-0.3799125,4.462975
43,1715699409.1010432,1.3769572,-0.73353213,-0.16747706,1.0201125,-0.368225,4.5076623
44,1715699409.1215377,1.5939908,-0.6307798,-0.27900612,0.906125,-0.386375,4.310625
45,1715699409.142122,0.71365446,-0.40672785,-0.019266056,0.73149997,-0.0944625,3.1590624
46,1715699409.1630833,0.19399083,-0.5119266,-0.15769114,1.1704,-0.1018875,3.752375
47,1715699409.1835303,0.6006116,-0.51732415,-0.746896,0.519475,-0.8551125,5.441975
48,1715699409.1995792,1.1824619,-0.311315,-1.0746177,0.519475,-0.8551125,5.441975
49,1715699409.2165198,2.197049,0.3690061,-1.0958257,-1.7868125,-1.2599125,5.846775
50,1715699409.2351646,2.4118195,0.9742049,-0.44178897,-2.6805625,-1.007325,6.831
51,1715699409.3193429,3.2584097,2.6765597,1.1041743,0.3906375,-0.73149997,2.0651126
52,1715699409.3494928,2.2688074,2.4244647,0.14943424,1.736075,-1.08625,1.459975
53,1715699409.366362,1.1892967,2.075948,-0.8097859,0.4076875,-0.1615625,0.870925
54,1715699409.3819075,0.62457186,1.8418959,-0.653104,-0.7470375,0.508475,0.7387875
55,1715699409.397596,0.18206422,1.630474,-0.13180429,-1.873025,1.065625,0.4351875
56,1715699409.413253,-0.0111162085,1.5321101,0.28154433,-1.91895,1.1039875,0.146575
57,1715699409.429604,-0.33108562,1.4608562,1.0990826,-0.6810375,0.8504375,-0.73974997
58,1715699409.4505546,-0.5634098,1.2675841,1.0740061,1.0393625,0.70661247,-1.7219125
59,1715699409.4920201,-0.52680427,0.7445413,0.18603976,2.1866624,0.67045,-3.262325
60,1715699409.5128932,-0.2261009,0.900107,0.20805812,1.8117,0.7236625,-3.3837376
61,1715699409.5334167,0.29143733,1.0669725,0.20784405,1.65935,0.6736125,-3.4508374
62,1715699409.5503669,1.7384251,1.3834863,0.20784405,1.2054625,0.2495625,-4.4917126
63,1715699409.5666957,2.200413,1.3896024,0.05382263,0.6664625,0.74387497,-6.130025
64,1715699409.58205,1.908058,1.3088684,0.21732417,0.1189375,1.3734875,-6.9279375
65,1715699409.5982342,1.8394495,1.3314984,0.30662078,0.1115125,1.4277999,-7.006725
66,1715699409.6138823,1.7157034,1.5082569,0.5273242,0.418275,1.1242,-6.989675
67,1715699409.790395,0.69093275,-0.69235474,0.21784404,-1.4980625,1.808125,0.4629625
68,1715699409.8087468,0.8631958,-0.8926605,0.5748165,-0.320925,1.5577375,0.432025
69,1715699409.8244455,0.78704894,-0.96319574,0.48818043,0.72833747,1.0570999,0.3020875
70,1715699409.8498812,0.5420948,-1.1681957,-0.20744649,2.53385,-0.0859375,0.3521375
71,1715699409.8655534,0.6040826,-1.4400612,-0.8386392,2.3805375,-0.2809125,0.5044875
72,1715699409.8824966,0.66310394,-1.644847,-1.1058104,1.243825,-0.14245,0.616275
73,1715699409.9013712,0.17992355,-1.8650305,-0.7409786,-0.641575,0.50105,1.0412875
74,1715699409.9271152,-0.4182416,-1.9070336,0.038639143,-1.1688875,0.49885,2.5220249
75,1715699409.9704785,0.60570335,-1.8916361,0.119984716,1.3003374,-2.56795,5.692225
76,1715699409.986297,0.8563762,-1.8506576,-0.024159022,1.6539875,-2.9717875,5.7626247
77,1715699410.0020428,1.4621866,-1.6455659,-0.5545413,2.33475,-3.606625,5.6177
78,1715699410.070769,1.4621866,-1.6455659,-0.5545413,2.289925,-3.386075,5.5526624
79,1715699410.0909564,5.9650307,1.9038684,1.729052,-4.4914374,-1.35355,7.4201875
80,1715699410.1082802,5.8974466,2.1388378,2.0084558,-3.6712499,-1.28535,7.4041
81,1715699410.1238594,6.085627,2.426101,1.835887,-1.184975,-1.4388,6.975925
82,1715699410.1409378,5.569419,2.7341437,0.92120796,0.047575,-1.18525,5.2949877
83,1715699410.157541,4.206315,2.760046,0.4608563,-0.078099996,-0.1018875,3.2634249
84,1715699410.1764767,2.9152906,2.5935779,0.39133027,-0.135575,0.6193,2.286625
85,1715699410.195179,1.1439297,2.2648318,-0.35729358,-0.1398375,0.8100125,1.2692626
86,1715699410.217997,0.24281347,2.107844,-0.6912385,-0.998525,0.3592875,0.73768747
87,1715699410.2391253,0.04025994,2.0481193,-0.5879663,-1.4331625,0.254925,0.496925
88,1715699410.2602475,-0.60275227,1.7025535,0.60733944,-1.9199125,0.3848625,-0.7695875
89,1715699410.2808974,-0.911208,1.4506575,1.2362844,-0.3359125,0.6917625,-1.642025
90,1715699410.3256183,-0.8306881,1.3742049,0.7867431,0.462,0.46695,-1.947825
91,1715699410.3401701,0.12007645,1.2138685,0.6800153,0.8859125,0.560725,-3.834325
92,1715699410.3558195,0.287263,1.1865443,0.8228287,0.78045,0.6628875,-4.1421876
93,1715699410.3715246,0.52844036,1.1441437,0.94047403,0.4970625,1.134925,-4.4969373
94,1715699410.4540489,1.7211009,1.1343578,1.3914373,1.0212125,1.51305,-5.73265
95,1715699410.4764926,4.048211,2.58237,0.3803211,0.7847125,2.58995,-8.12735
96,1715699410.4916515,4.0160093,2.5591285,0.5296636,1.075525,2.2939124,-8.286162
97,1715699410.5126288,2.998471,1.7316055,-0.25821102,2.2259874,0.9601625,-7.4732623
98,1715699410.5332885,2.5889907,1.3386391,-0.5237462,2.13125,0.9868375,-7.196337
99,1715699410.5541568,1.2046942,0.54882264,-0.5755352,1.5357375,1.7271374,-5.7369123
100,1715699410.5699127,0.21334863,0.12588686,-0.60091746,1.1980375,1.9199125,-3.971825
101,1715699410.5854235,0.08715596,-0.06585627,-0.7119266,0.88275,1.4650625,-2.8213625
102,1715699410.6018884,0.5025535,-0.3867431,-0.68949544,-0.044,0.8355875,-1.2948375
103,1715699410.6259298,0.56035167,-0.870948,0.1262997,-0.1079375,1.0209374,-0.7227
104,1715699410.641647,0.4554587,-0.9110092,0.15504587,0.2872375,0.8941625,-0.564025
105,1715699410.6718771,0.28582567,-1.0645261,-0.18990825,1.346125,0.39985,0.2893
106,1715699410.6931486,0.4395566,-1.1790061,-0.6733945,1.042525,0.56925,1.087075
107,1715699410.7088482,0.6513761,-1.3575994,-0.63944954,0.44605,0.2943875,1.4557124
108,1715699410.7244892,0.64117736,-1.4977523,-0.48888382,0.1711875,-0.3906375,1.8616124
109,1715699410.7400265,0.78980124,-1.6575994,-0.4395566,-0.069575,-0.7368625,2.4028125
110,1715699410.7569926,0.81100917,-1.7749236,-0.3698318,-0.069575,-0.7368625,2.4028125
111,1715699410.8338451,0.81100917,-1.7749236,-0.3698318,-0.4829,-0.69519997,2.859725
112,1715699410.8501344,1.1844037,-2.685321,-0.68123853,-0.6576625,-2.308075,8.640912
113,1715699410.8909118,3.8585167,-1.7845106,-0.41396025,-1.554575,-2.1184626,10.620225
114,1715699410.9121845,5.8168197,-0.6435321,-0.24698776,-1.6163125,-1.6369375,10.802412
115,1715699410.9329906,7.5596333,1.47237,0.11723241,-1.0517375,-1.954425,10.583925
116,1715699410.953981,7.289496,2.961361,-0.20408258,-2.981,0.2283875,6.5327625
117,1715699410.9744327,5.335367,2.822737,0.42334864,-3.4709125,0.543675,5.965025
118,1715699410.9956782,4.6414833,2.648517,1.2511774,-5.0923123,0.9579625,4.0783873
119,1715699411.016381,3.6057034,2.251881,2.0711467,-4.2933,1.10935,3.0226624
120,1715699411.036959,2.4288533,1.984205,2.264419,-1.9210125,1.235025,1.5378
121,1715699411.0573237,1.1770643,1.7683945,1.0890979,0.8518125,1.0869375,0.078375
122,1715699411.0778792,0.9022477,1.7154893,0.6800153,1.094775,1.0687875,-0.109175
123,1715699411.0990548,0.10764526,1.7154893,-0.21181956,0.265925,1.4246374,-0.8900375
124,1715699411.1403067,0.4941896,1.7093731,1.2167125,0.7431875,1.3990625,-2.6241875
125,1715699411.2226634,2.3246636,0.66677374,0.4891896,0.9796875,1.0773125,-6.9194126
126,1715699411.2429924,2.9699235,0.59816515,0.7391437,0.839025,1.402225,-7.5659375
127,1715699411.2635758,3.4399543,0.2944954,1.0092814,1.446225,1.6834124,-9.282075
128,1715699411.2840223,3.4411771,0.08980122,0.8480122,1.9640499,1.6748875,-9.977688
129,1715699411.3049698,2.1730888,-0.40876147,-0.09989297,2.5499375,1.00815,-10.477363
130,1715699411.3266394,1.2053975,-0.13833334,-0.76983184,1.42065,0.3614875,-9.3269
131,1715699411.3478649,0.46105504,0.6735933,-0.6819572,-0.24213749,1.0965625,-6.8000627
132,1715699411.3686748,0.8365902,0.97737,-0.559633,-0.7929625,1.40965,-5.3428373
133,1715699411.389351,1.2913303,0.97350156,0.11579511,-0.287925,0.77907497,-4.627975
134,1715699411.41024,1.1168195,0.89958715,0.15382263,0.41085,0.73755,-4.036725
135,1715699411.4304006,-0.23252295,0.014877676,-0.21406728,0.4236375,1.2413499,-2.842675
136,1715699411.448048,-0.8972477,-0.36044344,-0.36299694,-0.1782,1.958275,-0.5916625
137,1715699411.471106,-0.40672785,-0.88980126,-0.41762996,-1.21055,2.163975,2.4751375
138,1715699411.491421,0.41365442,-1.1540214,0.19408257,-1.1253,0.5531625,3.8355625
139,1715699411.5121505,0.8488226,-1.3939909,0.2908257,-0.02695,-0.2861375,4.2147875
140,1715699411.6102343,1.1180428,-1.3212997,-0.55912846,1.4931124,-2.0843625,6.0714498
141,1715699411.6255667,1.058211,-1.1828746,-0.66677374,1.4931124,-2.0843625,6.0714498
142,1715699411.646081,0.934052,-0.95790523,-1.087049,0.0092124995,-0.61325,6.58075
143,1715699411.666991,1.2874619,-0.8738991,-1.1978593,-1.741025,-0.27665,6.8044624
144,1715699411.6876411,1.5976605,-0.8416973,-1.0326147,-2.1649375,-0.35227498,6.7755876
145,1715699411.7084155,1.3482109,-0.89704895,-0.17961773,-3.9854374,-1.2758625,6.5679626
146,1715699411.7289195,1.7683945,-0.8436239,0.5434251,-3.2110374,-1.62525,7.412625
147,1715699411.7703164,4.8623853,0.038333334,-0.46983182,-2.8221874,-1.1416625,6.722375
148,1715699411.7906618,5.6316056,0.965948,-0.021712538,-4.708825,-0.285175,6.4156127
149,1715699411.8068957,6.1737003,1.2080581,0.5816514,-5.4107623,0.2762375,6.0374875
150,1715699411.8236504,6.1383333,1.1907187,1.9627981,-5.3810625,1.9232125,3.7651625
151,1715699411.842273,5.64607,1.2626911,2.5126452,-4.6608377,2.1723626,2.7553625
152,1715699411.86287,3.679205,1.7120337,2.377263,2.1844625,-0.04015,-0.60555
153,1715699411.883136,2.934052,1.6320031,0.6131499,3.571425,-0.197725,-1.6974375
154,1715699411.8935697,2.137202,1.528945,-0.31579512,3.0025876,0.3092375,-2.1971126
155,1715699411.9824998,0.3980581,1.206315,0.4401682,0.4417875,2.0339,-2.4336126
156,1715699411.9988961,0.64842504,0.71631503,0.008363915,5.56985,-1.4111625,-3.7736874
157,1715699412.017159,0.82252294,0.58623856,-0.5503517,3.8473876,-0.594,-4.897475
158,1715699412.0376167,0.91426605,0.4448471,-0.39246178,2.679875,0.2443375,-5.2266498
159,1715699412.0584722,1.258104,0.4439297,0.25321102,1.0201125,1.1614625,-5.674075
160,1715699412.0993586,1.8814526,0.31142202,0.5316972,1.752025,0.43821248,-6.40695
161,1715699412.1199079,2.1571865,0.06391437,-0.26218656,2.5158374,-0.84122497,-7.8600497
162,1715699412.140433,1.7466819,-0.061467893,-0.8129511,1.465475,-0.84122497,-7.75555
163,1715699412.1608288,1.6261927,-0.10784403,-0.8537156,0.3821125,-0.61435,-7.48935
164,1715699412.18179,0.93038225,0.07655963,-0.3553517,-1.2914,0.3114375,-6.27165
165,1715699412.2023172,0.9703364,0.48512235,0.2905199,-1.1231,1.098625,-4.367
166,1715699412.2227511,1.1229358,0.4512691,0.29154435,-0.33055,1.0602624,-3.5435126
167,1715699412.2435026,1.0352752,0.2874618,0.16555046,0.4162125,0.36781248,-3.0162
168,1715699412.26416,0.21600917,0.17298165,-0.21070337,0.4065875,-0.0518375,-2.2983124
169,1715699412.2848723,-0.014266055,0.121712536,-0.32752293,0.150975,-0.3735875,-1.324675
170,1715699412.3678195,0.7600459,-0.84628445,0.43230885,-0.4445375,0.26235,3.8696625
171,1715699412.3885615,0.6818502,-0.95107037,0.24934252,0.453475,0.325325,4.310625
172,1715699412.4095414,0.82007647,-1.0102905,-0.09766056,0.943525,0.3040125,4.8816624
173,1715699412.4304852,1.4311926,-1.0769572,-0.12844038,1.48995,0.1687125,4.72505
174,1715699412.4393418,1.5668654,-1.0003059,-0.22313455,1.48995,0.1687125,4.72505
175,1715699412.4490423,1.3696177,-1.000107,-0.45668194,2.6085124,-0.9455875,3.7002625
176,1715699412.472747,1.2598318,-1.0018349,-0.5071407,2.7427125,-1.1213125,3.6246374
177,1715699412.4896107,-0.20876147,-0.8033639,-1.579312,2.16315,-1.0382625,5.1767373
178,1715699412.5065064,-0.013761468,-0.88756883,-1.9266056,0.22013749,0.190025,6.798
179,1715699412.5233564,1.3020335,-0.81142205,-1.295214,-2.0915124,0.2816,7.633175
180,1715699412.556164,1.421208,-0.28818044,-0.22915903,-2.3832874,-1.2843875,4.3681
181,1715699412.5719259,0.96227825,-0.33230886,-0.038639143,-2.4622126,-0.9648375,4.55675
182,1715699412.5939887,0.7938838,-0.44536695,0.4828746,-2.42165,-0.621775,6.0896
183,1715699412.6202948,5.157905,1.1084557,0.54189605,-1.3149124,-0.8976,7.2891498
184,1715699412.6398025,6.70133,2.1457646,-0.1501529,-1.9391625,0.4797375,4.700575
185,1715699412.6562765,5.8405657,2.3141744,-0.29368502,-3.1226249,1.4331625,2.5987499
186,1715699412.7347076,2.550153,1.390107,1.4683945,-2.6763,1.40965,0.767525
187,1715699412.7512538,1.2010244,1.1299695,-0.0017278286,0.9211125,0.011,-0.8569
188,1715699412.7906358,0.7273242,1.1028594,-0.2797095,0.132825,0.3614875,-1.139325
189,1715699412.8210614,0.73873085,1.2090672,0.59266055,-0.2517625,1.4938,-2.0084624
190,1715699412.8366842,0.85474,1.07237,0.68665135,1.6082,0.8941625,-3.6117125
191,1715699412.8522036,0.52619267,0.6477064,0.21120796,2.2836,0.3284875,-4.3052626
192,1715699412.8724964,0.36850154,0.50958717,0.04230887,2.6096125,-0.1945625,-5.0296125
193,1715699412.888195,0.2540214,0.39071864,-0.15626912,1.9427375,0.2816,-4.966775
194,1715699412.9038174,1.1754282,0.6543272,-0.04423547,1.1928124,0.8430125,-4.8932123
195,1715699412.919467,1.4650307,0.7172324,-0.05198777,0.977625,0.9590625,-5.1115623
196,1715699412.9350674,2.3831804,0.79337925,0.16655964,0.336325,1.233925,-6.6573377
197,1715699412.9506757,2.3831804,0.79337925,0.16655964,0.385275,1.1284626,-7.1548123
198,1715699412.9671705,2.1779816,0.42588687,0.54851687,0.8987,1.089,-8.06245
199,1715699412.9890506,1.6246636,0.26799694,0.34077984,1.5389,1.385175,-7.8865876
200,1715699413.0096478,1.7323087,0.39163607,0.08307339,1.76055,0.997425,-7.5499873
201,1715699413.0304904,1.7174313,0.628945,-0.05198777,1.6061375,0.66825,-7.3145876
202,1715699413.1347136,-0.30989295,0.1559633,-0.31946483,-1.0880375,0.6864,-0.36795
203,1715699413.1553817,0.29918963,-0.44506118,-0.04373089,-2.2182875,0.81949997,1.5345
204,1715699413.1762264,0.32802752,-0.8056116,0.38501528,-2.1319375,0.762025,2.2215874
205,1715699413.197301,0.30458716,-0.99010706,0.8303823,-1.100825,0.5479375,2.9396124
206,1715699413.2177925,0.55718654,-1.0645261,0.40989295,0.8113875,-0.2233,4.009225
207,1715699413.235578,0.9953058,-1.0755352,-0.15301223,1.397275,-1.061775,4.3043
208,1715699413.2510953,1.1045872,-1.1313914,-0.31998473,1.3728,-1.111825,4.32135
209,1715699413.2695782,1.2430122,-1.2746178,-0.64607036,0.6622,-0.3949,4.21685
210,1715699413.2954144,0.8832875,-1.4542354,-0.4942966,-0.1516625,-0.27981248,4.4394627
211,1715699413.3124588,0.7157951,-1.534052,-0.3470948,-0.2816,-0.8987,5.391925
212,1715699413.3292372,0.7600459,-1.5216055,-0.28195718,-0.1494625,-1.008425,5.687
213,1715699413.3448932,1.0804282,-1.2197707,-0.3224312,0.3139125,-1.21825,6.1950626
214,1715699413.3604467,1.4592202,-0.9164067,-0.5787003,0.73149997,-1.55925,5.9224
215,1715699413.3760552,1.6866513,-0.6589144,-0.778792,0.73149997,-1.55925,5.9224
216,1715699413.3957257,1.5472935,-0.20886849,-1.0861315,0.1604625,-2.4454374,5.59955
217,1715699413.4113483,1.5677829,-0.21518348,-1.0585169,-0.2591875,-2.5392125,5.7924623
218,1715699413.4908617,4.544847,0.888578,1.2840978,-4.255075,-0.8721625,6.9642377
219,1715699413.5010579,5.397049,1.4103975,1.2548472,-3.867325,-0.1018875,6.3155127
220,1715699413.5212536,5.6914372,1.8665596,0.98073393,-3.7596624,0.557425,5.0818624
221,1715699413.536881,3.8427064,2.293379,1.9867431,-2.3002374,0.088825,2.2897875
222,1715699413.5525072,3.4507644,2.2477064,1.9015291,-1.3712875,0.1568875,1.8392
223,1715699413.5681493,2.8464832,2.033945,1.4041743,-0.154825,0.83765,0.8837125
224,1715699413.5907114,1.9593272,1.7037767,0.56432724,0.6974,1.5727249,0.0303875
225,1715699413.6111517,1.7323087,1.6322172,0.140474,0.73356247,1.282875,-1.171225
226,1715699413.6326282,1.284205,1.4811468,-0.34587157,0.2894375,1.24245,-1.3938375
227,1715699413.6539602,0.99724764,1.2995872,0.17634557,-0.8600625,1.34255,-2.0117624
228,1715699413.674914,0.7609633,1.0638074,1.1605505,-0.4263875,1.671725,-2.5220249
229,1715699413.696468,0.8390367,0.6620795,1.2223241,2.5221624,1.6611375,-3.60745
230,1715699413.7173371,1.0411774,0.40897554,0.7488226,3.9571126,0.83875,-4.3649373
231,1715699413.7383974,1.380841,0.23894496,0.065550454,4.350225,0.256025,-5.3076377
232,1715699413.7794814,1.7095872,0.2379205,-0.32711008,3.5256374,0.70125,-6.0203
233,1715699413.8000267,2.3771713,0.15004587,-0.25779817,1.5464625,2.05315,-7.6118627
234,1715699413.8838444,0.985734,-0.20172784,-0.72977066,-0.7640875,1.5577375,-9.652912
235,1715699413.9046752,0.4470948,0.037813455,0.075733945,-0.93995,0.6065125,-7.9622126
236,1715699413.963657,-0.4368043,-0.103669725,-0.5501529,1.818025,-0.9563125,-1.65165
237,1715699413.9793153,-0.6110092,-0.151789,-0.7082569,0.9381625,-0.672925,-0.7440125
238,1715699413.99491,-0.7205963,-0.36207953,-0.5172324,-1.13905,0.6884625,1.72095
239,1715699414.0104816,-0.4692202,-0.71987766,0.041085627,-1.7921749,1.3041875,2.624325
240,1715699414.0220494,-0.4692202,-0.71987766,0.041085627,-2.5218875,1.959375,3.9782875
241,1715699414.0385566,-0.14659022,-0.96004593,0.42935783,-2.6444,1.961575,4.82405
242,1715699414.0711465,1.4250765,-1.1214067,0.72915906,0.87642497,-0.7954375,5.09355
243,1715699414.0867882,1.4021407,-1.1101987,0.2590214,2.0141,-0.8454875,4.5929127
244,1715699414.1024613,1.0677829,-1.0687003,-0.3831804,1.886225,-0.418275,4.581225
245,1715699414.1191714,0.7397554,-1.1032568,-0.61111623,1.2758625,0.6246625,4.9902873
246,1715699414.1394744,0.7065291,-1.2012233,-0.8435321,0.8199125,0.87065,5.3482
247,1715699414.1558757,1.0782874,-1.1587156,-0.8423088,-0.2006125,0.1175625,5.7476373
248,1715699414.1715338,1.3438379,-1.1184556,-0.4788991,-0.63414997,-0.5174125,5.29595
249,1715699414.2615967,1.9509633,-1.246789,-1.2918502,-3.94185,-1.21935,5.1841626
250,1715699414.2830386,1.3139603,-1.5053058,0.008669725,-4.95385,-2.2026124,6.0225
251,1715699414.3178358,7.034449,0.03680428,0.49285936,-3.628625,-1.6550875,8.40015
252,1715699414.3339472,6.9590216,1.2148777,0.92365444,-4.9069624,-0.029424999,5.33225
253,1715699414.3501556,5.397049,1.6556575,2.083899,-5.011325,0.19525,4.5045
254,1715699414.3658652,4.813349,1.7916361,2.7625842,-4.2241373,-0.1254,4.4831877
255,1715699414.3830824,4.7488227,1.9555504,2.9322171,-0.7887,-0.00495,3.4051874
256,1715699414.40241,3.9293578,1.9922477,2.1819572,0.3405875,0.2869625,2.656225
257,1715699414.4180303,3.3223243,1.8928593,1.3690062,1.45805,0.726825,1.3278375
258,1715699414.450429,1.6745107,1.6946942,0.033333335,2.0098374,0.78223747,-0.544775
259,1715699414.466732,1.1637156,1.6575994,-0.398578,1.4953125,0.5127375,-0.7514375
260,1715699414.4835346,0.69460243,1.5731958,-0.46769115,-0.5053125,1.0443125,-0.95713747
261,1715699414.5101473,0.39928135,1.3386391,1.2464832,-0.6810375,2.0244124,-2.0127249
262,1715699414.5257585,0.37931195,1.0804282,1.5025535,2.4305875,0.90475,-3.1079125
263,1715699414.541307,0.38215598,0.7021407,0.59123856,3.1805124,0.55,-3.3944626
264,1715699414.5551515,0.38215598,0.7021407,0.59123856,4.620825,-0.44494998,-4.1454873
265,1715699414.6579676,2.5797095,0.6228287,0.56269115,1.651925,0.6331875,-7.1686997
266,1715699414.6877818,2.7141743,0.46055046,0.09602446,1.72645,0.864325,-8.797387
267,1715699414.703385,2.5480123,0.41926607,-0.08665138,1.5101625,0.898425,-8.878375
268,1715699414.7190413,2.2378135,0.4819572,-0.19285934,1.0692,0.456225,-8.797387
269,1715699414.734658,1.6451529,0.7252752,-0.44882265,0.27981248,0.2602875,-8.019825
270,1715699414.7502418,1.5346637,0.7824618,-0.5071407,-0.760925,0.6534,-6.9928374
271,1715699414.7663803,1.3149847,0.830474,-0.3446483,-0.9697875,0.7673875,-6.5828123
272,1715699414.7819588,0.9584098,0.77022934,0.1590214,-0.980375,0.8589625,-5.8733125
273,1715699414.8030581,0.29429665,0.52446485,0.36697248,-0.16225,1.0624624,-4.1625376
274,1715699414.8241239,-0.18267584,0.23302752,0.14943424,0.3213375,1.0965625,-2.90015
275,1715699414.8453176,-0.3205963,0.15423548,0.071666665,0.3469125,1.07525,-2.724425
276,1715699414.879336,-0.5990826,-0.32426605,-0.20142202,-0.560725,1.3660625,1.4014
277,1715699414.8983424,-0.4508716,-0.48073393,-0.15157492,-0.77165,1.529,2.1481626
278,1715699414.9189346,0.07227829,-0.7511774,-0.06646789,-0.881375,1.7549125,3.3870375
279,1715699414.9400973,0.86126906,-0.9481192,-0.0683945,-0.5361125,1.17645,3.7492125
280,1715699415.0448654,1.2076452,-1.4130428,-0.7365902,0.7676625,-1.2566125,5.036075
281,1715699415.0659585,0.6096789,-1.4423089,-0.5469878,-0.153725,0.66825,5.456825
282,1715699415.086691,0.40244648,-1.535581,-0.75025994,-0.7673875,1.9146875,6.3292623
283,1715699415.1174994,2.2436237,-1.1909326,-0.90255356,-1.6270375,-1.7466625,5.556925
284,1715699415.1378345,1.4702294,-0.91417426,-0.91009176,-1.98495,-4.0305376,5.659225
285,1715699415.1584463,1.2105045,-0.74281347,-1.0009174,-2.397175,-3.6620374,6.4838123
286,1715699415.1787329,7.784909,1.004786,0.5377217,-5.6387377,-2.190925,9.003087
287,1715699415.1998088,7.8876605,1.9138685,1.478899,-5.46095,-1.42065,4.8848248
288,1715699415.2203872,3.8939908,1.9107034,2.4247706,-4.1591,-0.5897375,2.9407125
289,1715699415.2414298,3.2620797,1.9519877,2.2064219,-1.9146875,-1.213025,3.223
290,1715699415.2619987,2.94526,2.0285475,1.2955198,-0.4818,-0.5643,2.4080374
291,1715699415.2832737,2.293379,1.8692203,0.5880734,-0.5798375,-0.2701875,2.184325
292,1715699415.3038633,1.7960246,1.6932721,0.4806269,-1.4150125,1.0570999,0.77082497
293,1715699415.4046054,-0.12538226,1.1228287,0.1714526,1.7062374,1.023,-1.795475
294,1715699415.4293401,0.0034709482,1.0084556,0.19316514,1.7562875,1.30955,-2.0416
295,1715699415.450249,0.5374159,0.75707954,0.7318043,2.70435,0.9835375,-3.43805
296,1715699415.468176,0.5445413,0.66085625,0.7288532,3.859075,0.1431375,-4.2893124
297,1715699415.491352,0.47542816,0.60255355,-0.09643731,3.5704625,-0.2957625,-4.626875
298,1715699415.5124326,0.58848625,0.62477064,-0.14668196,3.27635,-0.2701875,-4.610925
299,1715699415.5334363,1.2454587,0.7592202,-0.088379204,2.3271875,0.0803,-4.7729
300,1715699415.5539663,2.798884,1.0257951,0.38348624,1.093675,0.9112125,-6.424
301,1715699415.5752301,2.9560704,1.2094802,0.52405196,0.9978375,1.7601374,-8.118825
302,1715699415.5959408,2.5692203,1.6785933,0.5524006,1.5379375,1.10825,-7.7748
303,1715699415.60634,2.6497402,1.693471,0.52263,1.5379375,1.10825,-7.7748
304,1715699415.642675,2.9287462,1.6280276,0.04770642,1.5379375,1.10825,-7.7748
305,1715699415.670019,1.1882722,0.7072324,-0.5235474,-0.085525,0.0323125,-4.1421876
306,1715699415.6863093,1.1800153,0.2479052,-0.75759935,-1.723975,0.7258625,-2.63065
307,1715699415.7739491,-0.47970948,-1.0633028,0.89215595,-1.8709625,2.0477874,-0.496925
308,1715699415.7918992,0.06350153,-1.4573853,0.033333335,1.650825,0.2506625,3.50845
309,1715699415.8075566,0.4656422,-1.5394496,-0.28359327,1.82765,0.2453,3.7599375
310,1715699415.843278,0.23914374,-1.535581,-0.39908257,2.0524626,0.85153747,3.7651625
311,1715699415.8589041,0.054235473,-1.4420948,-0.5902141,1.9905875,0.339075,4.35435
312,1715699415.8744533,0.28215596,-1.224572,-0.65463305,1.6476625,-0.9339,5.1682124
313,1715699415.8900492,0.5986697,-1.0967431,-0.6521865,1.3333375,-1.5794625,5.4451375
314,1715699415.9077165,1.0948013,-0.8192661,-0.6343578,0.8338,-1.5857875,5.3152
315,1715699415.9233348,0.96911323,-0.66594803,-0.729052,-0.1175625,-0.656975,4.916725
316,1715699415.9387872,0.76778287,-0.62915903,-0.71365446,-0.4637875,-0.417175,4.9550877
317,1715699415.959718,0.61181957,-0.59123856,-0.5130428,-0.996325,-0.318175,5.2597876
318,1715699415.9749608,1.0851222,-0.53639144,-0.30611622,-1.00595,-0.7783875,5.593225
319,1715699415.991768,1.6412843,-0.24567279,-0.39071864,-0.5127375,-1.8574874,4.5098624
320,1715699416.0126455,1.5297706,-0.21570335,-0.42782873,-0.7077125,-1.651925,4.782525
321,1715699416.0334063,1.3664678,-0.011926605,-0.7719725,-1.20945,-1.2716,5.5719123
322,1715699416.053714,2.9958258,0.38359326,-0.85493886,-2.7209876,-0.6078875,7.1974373
323,1715699416.0863516,5.426101,0.9500458,-0.61070335,-4.2273,-0.0177375,6.7639
324,1715699416.2415519,0.80539757,1.569526,1.3560704,0.7187125,1.1455125,-0.8633625
325,1715699416.2648666,0.7971407,1.5760398,1.1969419,2.0449,0.7194,-1.58235
326,1715699416.2853477,0.8864373,1.2380276,-0.0479052,4.0093627,0.1101375,-3.903625
327,1715699416.3063052,0.9300764,1.0357798,-0.856682,2.9909,0.0738375,-5.36195
328,1715699416.3230124,0.3963303,0.89204895,-0.50428134,2.3805375,0.152625,-5.692225
329,1715699416.3385317,0.36360857,0.88909787,-0.31100917,1.298275,0.1494625,-5.7561626
330,1715699416.359229,1.101942,0.89663607,0.50071865,1.3492875,0.1005125,-5.7187624
331,1715699416.3802805,2.229251,1.0445412,0.47848624,2.087525,-0.4492125,-6.6669626
332,1715699416.4013546,3.2720644,1.098471,-0.3427064,1.8660125,-0.6015625,-8.495988
333,1715699416.4221284,2.6236544,0.7023395,-0.7397554,0.3821125,-0.049775,-9.485575
334,1715699416.442726,2.4923546,0.123241596,-0.43833333,-0.8941625,0.4434375,-9.602725
335,1715699416.4640453,2.3717585,-0.43894497,0.222737,-0.980375,0.356125,-9.826437
336,1715699416.5489085,0.25168195,0.29897556,-0.9511774,0.1530375,0.56815,-0.5438125
337,1715699416.5701928,0.7262997,0.24698776,-0.51763,-1.13905,1.352175,0.30635
338,1715699416.5912945,0.44637614,0.01824159,0.6082569,-1.030425,2.043525,0.9838125
339,1715699416.6119297,0.13639143,-0.1,0.8179358,-0.1835625,1.8698624,1.4631375
340,1715699416.6323557,0.32212538,-0.6591284,-0.47818044,1.4484249,1.07525,3.78015
341,1715699416.6531913,0.7175382,-0.6157034,-0.76544344,0.8773875,0.4882625,5.0712748
342,1715699416.6708822,1.479006,-0.5356728,-1.0604434,-0.456225,0.304975,5.5474377
343,1715699416.6836543,1.9481193,-0.52660555,-0.707844,-2.48875,0.846175,5.2182627
344,1715699416.6989276,1.8133485,-0.6237462,-0.29285932,-2.48875,0.846175,5.2182627
345,1715699416.7166367,1.2575994,-0.8170184,0.4767584,-2.396075,0.172975,4.6844873
346,1715699416.7378995,0.5364984,-1.0157033,0.3908257,-0.24213749,-1.1661375,5.407875
347,1715699416.7587998,0.49958718,-1.0883791,-0.006116208,0.4129125,-1.72645,5.943712
348,1715699416.7800343,1.3386391,-0.8221254,-1.2420031,-0.392425,-1.8585875,6.4252377
349,1715699416.8210094,0.8295565,-0.7833792,-0.3680887,-3.23345,-0.95301247,6.319775
350,1715699416.8415234,0.6662538,-0.7994954,0.2842049,-3.09705,-1.28645,6.7010627
351,1715699416.9203207,1.6444496,-0.50998473,0.6409786,-1.0252,-2.19945,7.240062
352,1715699416.9363549,3.8588228,1.4116207,0.7706422,-5.2254124,0.7481375,6.115175
353,1715699416.957401,4.2810397,1.490214,1.3187615,-5.1093626,0.9282625,5.695525
354,1715699416.9779737,5.020795,1.8606576,1.9989755,-3.9557376,1.3382875,4.126375
355,1715699416.9985855,4.3010244,1.9738991,1.7619724,-0.644875,0.40301248,-0.2189
356,1715699417.0194612,3.1314986,1.4865444,0.40642202,0.24887499,0.3933875,-1.6698
357,1715699417.0402732,3.1314986,1.4865444,0.40642202,-0.253825,0.9345875,-1.9413625
358,1715699417.060821,1.8863455,0.6547401,0.55974007,-1.233925,2.261875,-2.32595
359,1715699417.0816057,1.7840979,0.60275227,0.8487309,-1.0954624,2.2512875,-2.3120625
360,1715699417.101814,1.6169267,0.44220185,1.1896025,1.4537874,1.1358875,-2.639175
361,1715699417.1224828,1.4420948,0.25912845,0.6563761,3.4329624,0.4786375,-3.4115124
362,1715699417.1427028,1.0021406,0.0938838,-0.06524465,3.71635,0.6384125,-4.25095
363,1715699417.1642609,0.69235474,0.054633025,-0.43761468,2.5892625,1.283975,-4.425575
364,1715699417.1900127,0.69235474,0.054633025,-0.43761468,2.079,1.5662625,-4.3905125
365,1715699417.2038932,1.5202906,-0.08603976,0.5802294,1.3440624,2.0073626,-4.443725
366,1715699417.219999,1.5202906,-0.08603976,0.5802294,1.6966125,1.8539125,-4.873
367,1715699417.3118742,1.7447554,0.026100919,-0.1969419,2.984575,-1.4612125,-6.249375
368,1715699417.3275805,1.9712539,0.069525994,-0.10275229,2.7097125,-2.0823,-6.132087
369,1715699417.3432257,1.7833792,0.11957187,-0.40366974,2.3336499,-1.8543249,-6.317575
370,1715699417.3748953,0.7529052,0.3545413,-0.57920486,1.058475,-0.873125,-5.520625
371,1715699417.3955312,0.2343578,0.46249235,-0.6219113,-0.05995,-0.1552375,-4.509725
372,1715699417.430177,-0.44964832,0.1737003,-0.30876148,-0.5820375,0.9846375,-2.874575
373,1715699417.4501317,-0.9775688,-0.19469419,-0.6250765,-0.7535,1.3063875,-1.3256375
374,1715699417.4656737,-1.1105964,-0.47217128,-0.63211006,-1.51415,1.61315,0.618475
375,1715699417.4812953,-1.0783944,-0.5129511,-0.4620795,-1.6856124,1.64615,1.3311375
376,1715699417.5116155,-0.26616207,-0.8282416,-0.13455658,-1.4906375,1.235025,4.0602374
377,1715699417.527627,0.19307339,-0.9073394,-0.15188073,-1.4235375,1.1306624,4.579025
378,1715699417.5576215,1.3305811,-0.9312997,-0.3590214,-1.6504124,0.63414997,4.697275
379,1715699417.5738184,1.1519878,-0.92854744,0.36207953,-1.3234375,0.1590875,4.202
380,1715699417.5964515,0.9361927,-0.97053516,0.54362386,-0.763125,-0.096525,4.1784873
381,1715699417.6750865,1.5824617,-0.7111162,-1.3172324,-1.9232125,-0.5055875,4.89445
382,1715699417.691663,1.4455657,-0.67940366,-1.1468961,-0.5852,-0.8518125,5.23105
383,1715699417.712379,0.8488226,-0.70814985,-0.187263,-3.0097375,-0.088,4.84
384,1715699417.730617,0.551789,-0.75279814,0.35157493,-2.4728,-0.4310625,5.2523623
385,1715699417.7476475,1.1282415,-0.68990827,0.3689144,-1.5098875,-1.38875,5.5559626
386,1715699417.7687964,1.6664679,-0.40703365,-0.47298166,-1.37555,-2.814075,5.1000123
387,1715699417.7904766,1.898578,-0.015596331,-0.42762998,-3.09925,-1.870275,6.1780124
388,1715699417.811156,2.7066207,0.31111622,-0.44200304,-4.01005,-1.6348749,6.908825
389,1715699417.8323333,5.9962234,1.3864373,1.5801224,-5.8614874,0.0004125,5.1756372
390,1715699417.8534439,5.739557,1.9248776,2.6720643,-3.9791124,-0.0666875,2.9492376
391,1715699417.8746305,3.5773702,2.140367,1.6394495,0.429,-0.5685625,0.57695
392,1715699417.8956695,2.9250765,2.0102906,0.37961775,0.5493125,0.1857625,0.0804375
393,1715699417.9166772,2.9250765,2.0102906,0.37961775,-0.2187625,1.1444125,-0.443575
394,1715699417.9373999,1.4856269,1.3832874,0.38623855,-0.5457375,1.9082249,-0.800525
395,1715699417.9583657,1.0770643,1.2183486,0.6022477,-0.3125375,2.008325,-0.84947497
396,1715699417.9793026,0.68582565,1.1294649,0.85382265,1.868075,0.6661875,-1.440725
397,1715699418.0841265,0.6916361,0.33649847,0.27492353,3.152875,0.678975,-4.9113626
398,1715699418.104551,0.975734,0.41365442,-0.09377676,3.37755,0.2954875,-5.32785
399,1715699418.1253562,1.8597401,0.6382263,-0.36055046,2.663925,-0.0891,-5.691125
400,1715699418.1458144,2.5296638,0.5481193,-0.49551988,1.6391375,-0.335225,-6.67645
401,1715699418.1627061,2.641896,0.50591743,-0.388578,1.18635,-0.3980625,-7.211325
402,1715699418.1794813,2.2350612,0.49154434,-0.10183486,1.5624125,-1.1969374,-7.6682377
403,1715699418.1983905,1.7174313,0.5959174,-0.3180428,1.3034999,-0.875325,-7.31885
404,1715699418.21954,1.4653363,0.6527982,-0.32588685,1.197075,-0.81455,-7.0343623
405,1715699418.240864,0.78298163,0.7465902,-0.35657492,1.1352,-1.11815,-5.5185623
406,1715699418.2534494,0.65188074,0.66697246,-0.50010705,1.0393625,-1.243825,-4.5566125
407,1715699418.2694857,0.12059633,0.27451068,-1.0795107,0.2105125,-0.81675,-3.2591624
408,1715699418.2846167,-0.20509173,0.070030585,-1.3676912,-2.2160876,0.3711125,-0.9944
409,1715699418.3032277,-0.31151375,-0.5150917,-0.42344037,-4.3657627,1.589775,1.0648
410,1715699418.3199978,-0.31620798,-0.63669723,0.057691135,-4.5661,1.7623374,1.6176875
411,1715699418.3363883,-0.36625382,-0.70744646,1.0668654,-3.426225,1.37665,2.7979875
412,1715699418.3552046,-0.26055047,-0.7564679,1.1167126,-2.059475,0.6543625,3.502125
413,1715699418.4486508,0.63038224,-0.8690061,0.14729358,0.2116125,0.592625,2.8491375
414,1715699418.465446,-0.041896023,-0.97053516,0.3678899,1.3578125,0.392425,3.5948
415,1715699418.4818044,0.3080581,-1.0202905,-0.023746178,1.9661125,-0.2915,4.5854874
416,1715699418.4986997,1.0257951,-0.9019419,-0.43272173,1.9905875,-0.889075,4.6121626
417,1715699418.514397,1.4364985,-0.63374615,-1.0326147,1.25565,-1.4942125,3.532925
418,1715699418.530026,0.90081036,-0.59541285,-0.8420031,-0.2847625,-0.91685,2.454925
419,1715699418.5455496,0.67828745,-0.63200307,-0.6728899,-0.6161375,-0.554675,2.3857625
420,1715699418.5611722,-0.15240061,-0.86830276,0.023042813,-0.67045,0.863225,3.3242
421,1715699418.581458,0.41854742,-0.9302752,-0.58654433,0.1573,-1.162975,4.3586125
422,1715699418.5970051,1.0116209,-0.8868502,-0.87940365,0.2019875,-1.971475,4.4394627
423,1715699418.6127079,2.0778747,-0.5854281,-1.3748165,-0.8536,-2.5755124,3.6289
424,1715699418.6448133,1.5371101,-0.38848624,-0.78053516,-3.0342126,-0.6271375,6.032125
425,1715699418.6604555,2.9264987,-0.10906728,-0.4493425,-3.778775,-0.087037496,8.0806
426,1715699418.681833,4.446483,0.12955658,-0.059128445,-3.778775,-0.087037496,8.0806
427,1715699418.7005117,5.621101,1.5321101,0.91876143,-1.9295375,-0.3799125,3.468025
428,1715699418.71755,3.951575,1.7481194,0.8657492,0.1381875,-1.1715,2.39635
429,1715699418.7331672,3.5300763,1.8233486,0.27389908,0.775225,-1.1906124,2.3772376
430,1715699418.8298733,0.27064222,1.3415902,1.2548472,0.538725,1.1572,-0.3669875
431,1715699418.850743,0.04587156,1.1509633,1.038838,1.7722375,1.0880375,-1.2436875
432,1715699418.8714797,-0.39133027,0.8626911,0.29490826,2.7352874,1.0954624,-2.249225
433,1715699418.8907712,-0.5539296,0.8444495,0.0683945,2.4519,1.17645,-2.31
434,1715699418.9128056,0.73628443,1.0072324,0.10631499,1.8841625,1.048575,-2.49425
435,1715699418.9336562,1.2764525,0.88542813,0.49989298,2.038575,0.16225,-3.8726876
436,1715699418.9553654,1.1563761,0.66136086,0.37695718,3.41275,-0.924275,-6.0512376
437,1715699418.976611,1.121208,0.6277217,0.3132569,3.4948375,-0.9114875,-6.215275
438,1715699418.9973235,1.3212997,0.65963304,-0.38470948,2.4072125,-1.11705,-6.7095876
439,1715699419.0184832,1.9488226,0.8537156,-0.6385321,0.807125,-0.7921375,-7.276225
440,1715699419.0396388,2.385214,1.2537155,-0.08665138,-0.5383125,-0.039049998,-8.338275
441,1715699419.0604439,1.9532111,1.5683028,0.23802753,-0.2475,0.053625,-7.850425
442,1715699419.0809867,1.9290521,1.6607492,0.2861315,0.198825,-0.1711875,-7.309225
443,1715699419.1018164,1.9966362,1.5548471,-0.15157492,1.2247125,-1.2694,-4.7089624
444,1715699419.1228218,1.5815444,1.4560704,-0.69266057,1.2247125,-1.2694,-4.7089624
445,1715699419.208409,0.3368043,-0.4160092,0.6908257,-1.4469125,1.3916374,1.106325
446,1715699419.2291508,0.30478594,-0.6020336,0.74495417,0.164725,1.3649625,2.034175
447,1715699419.2503803,0.5051988,-0.82263,-0.07175841,0.773025,1.0432125,2.2727375
448,1715699419.27069,0.7733945,-1.1030581,-0.5891896,0.9626375,0.609675,2.1311126
449,1715699419.2914891,0.14159021,-1.5245719,-0.16870031,0.0017875,1.586475,1.4323375
450,1715699419.3122182,0.14159021,-1.5245719,-0.16870031,-0.0897875,1.6973,1.3556125
451,1715699419.3221312,-0.60784405,-1.5802293,0.017232416,0.1934625,0.9367875,2.2099
452,1715699419.3324437,-0.64668196,-1.5840979,-0.001529052,0.790075,-0.5237375,4.1135874
453,1715699419.3531637,-0.12538226,-1.4384251,-0.18359327,0.8636375,-0.6441875,4.38515
454,1715699419.374314,0.96677375,-0.888578,-0.79541284,0.4481125,-0.73039997,4.22015
455,1715699419.3956928,0.59133023,-0.6157034,-0.5848165,-0.53295,-0.3958625,3.399825
456,1715699419.4165585,-0.14240062,-0.51539755,0.063302755,-0.5905625,-0.0081124995,4.057075
457,1715699419.437296,0.2653364,-0.11172783,0.33811927,0.8338,-0.6516125,5.626225
458,1715699419.45867,1.3579051,0.17206423,-0.016100919,1.5943125,-1.0894125,6.117375
459,1715699419.4736774,3.5603516,1.569526,-1.8411773,1.0692,-1.3674375,3.20815
460,1715699419.4902346,2.9368043,1.7393425,-1.959526,-0.020624999,-1.1757625,2.6615875
461,1715699419.5705352,2.3998013,1.8552446,-1.7452599,-0.020624999,-1.1757625,2.6615875
462,1715699419.5875692,2.0510702,1.5587156,1.0080581,-2.8584874,0.6224625,1.711325
463,1715699419.6060717,1.6237462,1.4445413,1.1149848,-1.51415,1.0252,0.8932
464,1715699419.6265428,0.8422018,1.0212997,0.80111617,0.8657,0.8333875,0.2572625
465,1715699419.647045,0.69215596,0.6918501,0.340367,1.9501625,0.5627875,-0.18259999
466,1715699419.67968,0.1288532,0.35698777,-0.46055046,2.4550624,0.1494625,-0.7855375
467,1715699419.6952965,-0.016712539,0.24281347,-0.899893,1.28755,0.0812625,-0.7717875
468,1715699419.7109354,0.024464833,0.20061162,-0.9237462,0.64515,0.1568875,-0.7599625
469,1715699419.7265575,0.27380735,0.04637615,-0.38807338,-0.9334875,0.625625,-0.8591
470,1715699419.7421608,0.4099847,-0.0053058104,0.010397553,-0.9334875,0.625625,-0.8591
471,1715699419.762952,0.6016361,0.052706424,0.52946484,-0.2443375,0.221925,-1.11045
472,1715699419.783156,0.9594342,0.20305811,0.42863917,1.060675,-0.58025,-1.203125
473,1715699419.7987893,1.4055046,0.31212538,-0.5430122,1.39095,-1.0660375,-1.8018
474,1715699419.814286,1.1814526,0.33282876,-0.7880734,-0.1494625,-0.8721625,-1.4130875
475,1715699419.8300352,0.8813456,0.4631957,-0.8456727,-0.4041125,-0.7528125,-1.2574375
476,1715699419.8442545,1.2944953,0.558104,-0.5196789,-2.08505,0.4434375,-0.259325
477,1715699419.8601122,1.8373088,0.4675841,0.0069266055,-2.8648124,1.6110874,-0.1731125
478,1715699419.8792377,2.0349693,0.35974005,0.65860856,-2.5133624,2.025375,-0.783475
479,1715699420.0270934,1.1529052,0.31915903,-0.13058104,3.3232374,-1.0575125,-0.6961625
480,1715699420.0431068,0.7963303,0.317737,-0.57359326,1.6678749,-0.5951,-0.598125
