id,timestamp,acc_x,acc_y,acc_z,gyro_x,gyro_y,gyro_z
0,1715699464.045525,0.56350154,0.8365902,-0.024159022,0.07205,0.0834625,0.0847
1,1715699464.0748303,0.5664679,0.8275229,-0.04178899,0.116875,0.054725,0.061325
2,1715699464.0925522,0.5940826,0.8268043,-0.07084098,0.14135,0.0132,0.044275
3,1715699464.1003244,0.611422,0.8346636,-0.072782874,0.1370875,0.0089375,0.03355
4,1715699464.117424,0.6030581,0.8258869,-0.09836391,0.081675,0.068475,-0.007975
5,1715699464.1341047,0.5976606,0.82415897,-0.08542814,0.0625625,0.068475,-0.009075
6,1715699464.1468663,0.5984709,0.8056116,-0.08470948,0.0540375,0.0642125,-0.006875
7,1715699464.15928,0.61498475,0.7670795,-0.08909786,0.0603625,0.044,-0.0154
8,1715699464.1834922,0.55668193,0.6960245,-0.11325688,0.0902,-0.0006875,-0.0176
9,1715699464.1993892,0.54353213,0.6784863,-0.13496941,0.097625,-0.00495,0.0144375
10,1715699464.2290137,0.52619267,0.64790523,-0.19041285,0.0369875,-0.03795,0.129525
11,1715699464.2535856,0.51498467,0.65668195,-0.22579512,-0.136675,-0.03795,0.2913625
12,1715699464.2778027,0.5111162,0.67603976,-0.21631499,-0.2486,0.001375,0.432025
13,1715699464.3064957,0.6592202,0.7431193,-0.1606575,-0.3933875,0.0078375,0.5886375
14,1715699464.3223565,0.6524006,0.7441437,-0.14056575,-0.50105,0.1153625,0.55027497
15,1715699464.3379965,0.6384251,0.7385321,-0.12691131,-0.51919997,0.122925,0.53955
16,1715699464.4190772,0.5459786,0.3238532,-0.1783945,-0.121825,-0.183975,0.7942
17,1715699464.433944,0.49857798,0.23567279,-0.19408257,-0.2688125,-0.2926,0.8294
18,1715699464.4559276,0.44781345,0.20814984,-0.1888838,-0.3487,-0.35227498,0.8815125
19,1715699464.4788709,0.287263,0.25821102,-0.19622324,-0.56815,-0.5141125,1.2937375
20,1715699464.5072339,0.56625384,0.5166208,-0.19010703,-1.0113125,-0.5311625,1.7934124
21,1715699464.522572,1.1050918,1.1844037,-0.07084098,-1.5395875,-0.47795,1.6517875
22,1715699464.5391817,1.2939909,1.5514832,0.2612691,-1.9232125,-0.4395875,0.80808747
23,1715699464.555899,1.293471,1.624159,0.3598318,-1.925275,-0.3906375,0.6620625
24,1715699464.5785372,1.1355811,2.2147858,0.97655964,-0.49885,1.132725,-1.4865125
25,1715699464.5916657,1.0111161,2.2672782,0.68103975,-0.015262499,1.167925,-2.0607126
26,1715699464.6002758,1.0111161,2.2672782,0.68103975,0.252175,1.0539374,-2.4761
27,1715699464.616675,1.1299695,2.458104,0.49460244,0.58341247,0.5553625,-3.2186
28,1715699464.632294,1.3064221,2.511315,0.44770643,0.5823125,0.5031125,-3.4945624
29,1715699464.656111,1.7579969,2.5527983,0.36299694,0.47905,0.6417125,-4.45335
30,1715699464.6716862,2.1882722,2.2194648,0.23414373,0.351175,0.92922497,-6.0427127
31,1715699464.6992238,1.6571865,1.1583028,0.18440367,0.54505,0.880275,-6.8831124
32,1715699464.721407,1.480734,1.0200764,0.1795107,0.6292,0.7907625,-6.9513125
33,1715699464.8031435,-0.36227828,-0.3557645,-0.465948,-0.6523,-0.13915,-0.5405125
34,1715699464.8319633,-0.13628441,-0.63669723,-0.16188075,-1.705825,0.3348125,1.121175
35,1715699464.8569367,-0.18246178,-0.68206424,0.3249694,-1.30955,0.004675,2.5987499
36,1715699464.8725417,-0.08062691,-0.7445413,0.36911318,-0.6373125,-0.3724875,3.4456124
37,1715699464.8891115,0.19888379,-0.8019419,0.3051988,0.1945625,-0.687775,4.2904124
38,1715699464.9116805,0.7185474,-0.83139145,0.1262997,1.2566125,-0.9009,4.6844873
39,1715699464.9308777,0.89327216,-0.7877676,-0.08909786,1.871375,-0.707025,4.4427624
40,1715699464.969559,0.6424006,-0.71814984,-0.3446483,2.2122376,-0.5962,4.0943375
41,1715699464.9851964,0.70581037,-0.6589144,-0.49204892,2.1588874,-1.2641749,3.9771874
42,1715699465.0031977,0.6182416,-0.47094804,-0.82007647,1.01805,-1.9075375,3.5404875
43,1715699465.0248294,0.4207951,-0.45025995,-0.7738991,0.2979625,-1.4729,3.502125
44,1715699465.0410109,0.33944955,-0.48215598,-0.7332263,-1.04005,-0.3906375,3.61295
45,1715699465.0632403,0.43761468,-0.74230886,-0.19337921,-2.55695,-0.087037496,3.9846125
46,1715699465.0860622,0.7346636,-0.8688074,-0.04025994,-2.55585,-0.40974998,3.98255
47,1715699465.1061947,0.7346636,-0.8688074,-0.04025994,-2.4525876,-0.8124875,3.9334624
48,1715699465.1658292,0.7346636,-0.8688074,-0.04025994,-2.1341374,-1.45805,3.9441874
49,1715699465.183098,6.511728,1.2383333,0.71376145,-5.836875,-0.6100875,6.083275
50,1715699465.198911,6.3035626,1.4252752,1.330474,-5.4652123,-0.114675,4.632375
51,1715699465.2145026,6.155153,1.5040826,1.7658564,-5.01985,-0.2116125,3.988875
52,1715699465.2333126,4.5954127,1.9019419,2.812844,-0.103675,-1.6284125,1.07965
53,1715699465.2585313,3.3182416,1.7211009,1.3511773,2.47005,-1.2832875,-0.177375
54,1715699465.293699,1.0690062,1.3995872,-0.6030581,-0.2495625,0.2187625,-0.3999875
55,1715699465.3176012,1.0082569,1.3505658,-0.4701376,-1.1466125,0.493625,-0.3392125
56,1715699465.3332014,1.0833793,1.2412845,0.30010703,-2.04985,0.5841,-0.9059875
57,1715699465.3545508,0.3504587,1.1524006,1.132523,-0.2358125,0.3114375,-2.2482624
58,1715699465.3757215,0.1745107,1.1045872,1.0212079,0.2479125,0.4467375,-2.46015
59,1715699465.3918185,-0.053318042,0.88470954,0.64373094,1.32165,0.8834375,-3.3155375
60,1715699465.4196534,0.09051988,0.7199847,0.5079511,1.549625,0.7577625,-3.91105
61,1715699465.436157,0.19766055,0.61181957,0.548211,1.7062374,0.83765,-4.4011
62,1715699465.4595423,0.5274159,0.66677374,0.47940364,1.99595,1.2606,-5.069075
63,1715699465.475143,0.7724771,0.7685015,0.40233946,2.0321126,1.3223375,-5.3119
64,1715699465.5825782,1.1939908,0.106834866,0.14536697,0.72833747,1.013375,-8.4172
65,1715699465.5982985,1.0316055,0.2787003,0.35718656,0.72833747,1.013375,-8.4172
66,1715699465.6145563,0.40366974,0.9388379,-0.04759939,2.0449,0.27513748,-7.6682377
67,1715699465.631039,0.05585627,1.2598318,-0.39980122,1.9927875,0.4360125,-6.71275
68,1715699465.6481411,-0.029663607,1.322737,-0.7243578,1.5933499,0.6799375,-6.0000873
69,1715699465.6592681,-0.43108562,1.0745107,-1.0077523,0.2127125,0.87065,-4.916725
70,1715699465.6707551,-0.8350612,1.0286391,-1.0019418,-0.1772375,0.83985,-4.509725
71,1715699465.6832795,-0.7850153,0.8012233,-0.6704434,-2.313025,0.7577625,-1.8242124
72,1715699465.6999173,-0.7850153,0.8012233,-0.6704434,-2.7902875,0.998525,-1.240525
73,1715699465.7181847,-0.5579969,0.5500459,0.05891437,-3.1504,1.3308625,-0.5831375
74,1715699465.7337182,-0.3755352,0.33455658,0.7568807,-1.88155,1.3607,0.952875
75,1715699465.7594643,-0.10163609,-0.10784403,0.89215595,-0.170775,0.9334875,1.7061
76,1715699465.77584,0.42446482,-0.44659021,0.12457187,1.194875,0.6298875,2.3153625
77,1715699465.7914515,0.49469417,-0.54270643,-0.07767584,1.3003374,0.6213625,2.3483624
78,1715699465.8070948,0.52232414,-0.96860856,-0.7607492,0.369325,1.1477125,2.641375
79,1715699465.829364,0.5335321,-1.0796177,-0.7073394,-0.5841,1.452275,2.8969874
80,1715699465.8594966,0.624052,-1.2721713,-0.30489296,-1.58125,1.4309624,3.0919626
81,1715699465.944079,0.6662538,-1.385734,-0.08787462,-1.58125,1.4309624,3.0919626
82,1715699465.960593,1.5236545,-1.3195719,-0.7573853,0.4151125,-0.7090875,7.3445625
83,1715699465.9769647,1.796529,-1.0820642,-0.8024465,0.1530375,-0.51094997,7.11975
84,1715699465.9988093,1.5541284,-0.34576452,-0.75810397,0.00605,-1.8222874,6.2462125
85,1715699466.014396,1.5058104,-0.097752295,-0.5636086,0.0592625,-2.242075,6.5924373
86,1715699466.0300071,2.096743,0.82874614,-0.6272171,0.201025,-2.4624875,7.59165
87,1715699466.0604498,5.17818,2.7946942,-1.5059174,-1.6185125,-0.7986,7.66095
88,1715699466.075812,6.0079513,3.097049,-1.3681958,-2.6901875,-0.5930375,6.3261
89,1715699466.0918994,4.0408716,2.8757339,0.7815443,-3.343175,-0.353375,2.56575
90,1715699466.1081903,3.3214066,2.630887,1.250153,-2.550625,-0.6633,2.051225
91,1715699466.128918,2.8522935,2.385627,1.3399541,-1.5428874,-0.9658,1.7743
92,1715699466.1450868,2.2277217,1.9873548,0.7398624,-0.118525,-0.8614375,1.409925
93,1715699466.161238,1.8751223,1.7423089,0.11701835,0.2105125,-0.2723875,1.3332
94,1715699466.1774309,2.040367,1.6371101,-0.35025993,-0.254925,0.425425,1.0583375
95,1715699466.191995,1.7406727,1.511422,-0.32732415,-0.7640875,0.8419125,0.5907
96,1715699466.2158394,1.1201835,1.2878746,0.30347094,-1.6355625,1.0784125,-0.36795
97,1715699466.2313733,0.9715596,1.2472936,0.4457645,-1.6355625,1.0784125,-0.36795
98,1715699466.3296676,0.7641131,0.6235474,0.8520948,2.0119,1.504525,-3.3922625
99,1715699466.3456805,0.8258869,0.5624924,0.5350612,2.981275,1.1306624,-4.343625
100,1715699466.3747616,1.4336392,0.94178903,-0.008058104,2.493425,0.9697875,-4.8164873
101,1715699466.390357,1.7732874,0.9993884,-0.122522935,2.123825,1.00705,-5.115825
102,1715699466.4059653,2.0383334,0.9486239,-0.22334862,1.6902875,1.0922999,-5.5196624
103,1715699466.4215045,2.4271102,0.43313456,-0.13302752,0.7112875,0.9559,-7.0109873
104,1715699466.437249,2.3243577,0.20744649,-0.09541284,0.6100875,0.92716247,-7.5180874
105,1715699466.4615703,1.4331346,-0.22671254,0.011314985,0.569525,1.07305,-8.09325
106,1715699466.4910452,0.9316055,-0.22986238,0.036192663,0.9274375,0.5979875,-7.512725
107,1715699466.5065582,-0.19683486,0.22038226,-0.0479052,0.98395,0.044,-5.9723125
108,1715699466.5370057,0.040779818,0.54423547,-0.35198775,0.589875,-0.0209,-3.9898374
109,1715699466.552739,0.17155963,0.39163607,-0.67461777,-0.26345,0.39985,-3.2836375
110,1715699466.5685387,-0.42334864,0.21181956,-0.5545413,-1.690975,1.033725,-1.626075
111,1715699466.5936983,-0.24882263,-0.00264526,0.19735473,-2.5421,1.555675,1.5164875
112,1715699466.6093497,-0.100917436,-0.030168196,0.31172782,-2.4781625,1.5247375,2.2462
113,1715699466.8368087,0.49469417,-0.44943425,-0.9357798,0.8710625,-2.424125,4.783625
114,1715699466.8625977,1.5155964,0.025795106,-1.0583028,-1.40965,-1.5368375,4.055975
115,1715699466.8782969,1.3687003,0.33455658,-0.61457187,-2.008325,-1.0297375,4.0123873
116,1715699466.8939157,1.2898012,0.50662076,-0.2296636,-2.2001374,-0.9381625,4.0368624
117,1715699466.9102247,1.3696177,1.0438379,0.6738991,-1.451175,-1.9479625,4.632375
118,1715699466.9263375,2.0081499,1.8730886,0.68053514,0.048675,-3.1112125,5.422725
119,1715699466.9472654,4.3512692,3.1,-0.84373087,-0.2773375,-1.650825,4.6674376
120,1715699466.963073,4.467477,3.1770642,-1.0231345,-0.5457375,-1.382425,4.3841877
121,1715699466.9834194,2.5562692,2.7053058,-0.048119266,-3.9194374,1.2403874,1.390675
122,1715699467.0802205,1.719373,2.1647248,1.3851223,-2.8488624,0.8504375,0.9678625
123,1715699467.101114,0.68389904,1.019373,-0.5216055,0.4640625,0.002475,-1.95635
124,1715699467.1177578,0.35637614,0.89204895,-0.2730887,-0.4690125,0.5159,-1.7634375
125,1715699467.1341958,0.3105046,0.81243116,0.06116208,-0.7577625,1.0005875,-1.7752625
126,1715699467.163704,0.60672784,0.793685,0.34495413,-0.52442497,1.57905,-2.25885
127,1715699467.1793342,0.92252296,0.693578,0.4205963,0.386375,1.4075875,-3.2091124
128,1715699467.195842,1.1082569,0.7084556,0.23027523,1.446225,0.6853,-4.021875
129,1715699467.2114658,1.1658564,0.67206424,-0.012431193,1.7051375,0.458425,-4.375525
130,1715699467.2388098,1.441896,0.58766055,-0.4083639,1.195975,0.557425,-5.2064376
131,1715699467.249134,1.4513762,0.48440367,-0.41784403,0.8955375,0.6543625,-5.504675
132,1715699467.2621903,1.4961315,0.42558104,-0.32660553,0.64625,0.5638875,-5.6953874
133,1715699467.2815335,1.6391437,0.2091743,-0.27022937,0.35433748,0.0897875,-6.2588625
134,1715699467.2975442,1.4284403,-0.047813457,-0.1991896,-0.078099996,0.011,-6.736125
135,1715699467.3183005,0.9879664,-0.13119265,-0.080535166,-0.3774375,0.4519625,-6.8501124
136,1715699467.3378751,0.36605504,-0.062385324,0.06717125,-0.4488,0.9868375,-6.330225
137,1715699467.3637395,-0.043119267,0.17981651,0.15607034,-0.290125,0.9889,-5.287425
138,1715699467.3795085,-0.08359327,0.22844037,0.12802753,-0.2528625,0.9356875,-5.0072
139,1715699467.4620206,0.07859327,0.4,0.27828744,0.181775,0.4041125,1.85515
140,1715699467.4810522,0.6609633,0.37951073,0.08796636,1.0553125,-1.1022,3.6502125
141,1715699467.504599,1.7218195,0.03995413,-0.6714526,0.37565,-0.0592625,4.2882123
142,1715699467.520862,1.3277217,-0.14882264,-0.57186544,-1.0198375,1.2456125,4.1784873
143,1715699467.5365152,0.7680887,-0.3755352,-0.330474,-2.0296376,1.6088874,4.6770625
144,1715699467.5644298,0.5618807,-0.57717127,-0.055152904,-2.55695,0.862125,5.6304874
145,1715699467.5889416,0.8619725,-0.73282874,0.71692663,-1.638725,-0.19139999,5.7956247
146,1715699467.604588,1.2568808,-0.60172784,0.9233486,0.81345,-1.159675,5.152125
147,1715699467.6285572,1.445367,-0.42365444,0.3617737,3.573625,-1.465475,3.88135
148,1715699467.644353,1.3071407,-0.38134557,-0.10030581,4.4972124,-1.8222874,3.13995
149,1715699467.6685617,0.42221713,-0.116620794,-1.470948,4.566375,-2.6415124,2.470875
150,1715699467.685254,0.27655962,0.20622323,-2.000107,1.363175,-1.5186875,3.264525
151,1715699467.727589,1.4529052,0.26085627,-0.7422018,-3.3090749,-0.3031875,3.5820124
152,1715699467.7437155,1.8001987,0.3634098,-0.32120794,-3.563725,-0.37454998,3.061025
153,1715699467.765167,1.8775688,0.446789,-0.14016819,-3.5657876,-0.4310625,2.7787375
154,1715699467.849705,2.990214,2.3189602,-0.2182416,-3.8566,0.5297875,0.2765125
155,1715699467.8654025,1.9934709,2.125688,0.5977523,-4.2167125,0.9772125,-0.0771375
156,1715699467.8813155,1.826101,2.0568807,1.0839908,-3.1504,0.9175375,-0.0292875
157,1715699467.9126382,1.8880734,2.035673,1.3373089,-3.1504,0.9175375,-0.0292875
158,1715699467.9382856,1.8492354,1.3925536,0.62396026,1.82545,0.626725,-2.3376374
159,1715699467.961198,0.52763,1.0130428,-0.37461773,1.9342124,0.340175,-3.17075
160,1715699467.9769444,0.34556574,0.96452606,-0.52721715,1.31945,0.696025,-3.0204625
161,1715699468.00128,0.50152904,0.80489296,-0.45004588,-0.661925,2.2033,-2.9885626
162,1715699468.0172627,0.7080581,0.64331806,-0.217737,-1.2722875,2.905375,-3.2762125
163,1715699468.033647,1.0520948,0.358211,0.3742049,-1.2478125,3.256825,-4.0645
164,1715699468.04912,1.0900153,0.13444954,0.78573394,-0.60115,3.0831625,-4.5907125
165,1715699468.06558,0.9755352,-0.1390367,0.83425075,1.7403375,2.4451625,-5.2426
166,1715699468.0817318,1.034052,-0.32793579,0.34545872,3.00905,1.7985,-5.56655
167,1715699468.0988252,0.9676911,-0.4116208,-0.017324159,3.5693624,1.24465,-5.7987876
168,1715699468.1144137,0.94720185,-0.42701834,-0.15301223,3.607725,1.1306624,-5.83275
169,1715699468.1430454,0.9015291,-0.36697248,-0.68460244,2.47005,0.78223747,-5.8370123
170,1715699468.2128139,0.92304283,-0.33383793,-0.76319575,2.47005,0.78223747,-5.8370123
171,1715699468.2365603,-0.46625385,0.9991896,0.21142203,2.089725,-0.2904,-3.0386124
172,1715699468.262028,-0.4750306,0.9785933,-0.69337916,1.347225,-0.0603625,-0.7568
173,1715699468.2788622,-0.32252294,0.62915903,-0.93863916,0.20955,0.2369125,0.2327875
174,1715699468.3032155,-0.3130428,0.14689602,-0.73394495,-1.6696625,0.5872625,1.8008375
175,1715699468.3157206,-0.29836392,-0.18787462,-0.09714068,-2.2831874,0.5787375,2.8895624
176,1715699468.323746,-0.29908258,-0.29010704,0.1348624,-2.2001374,0.3817,3.5266
177,1715699468.3506536,-0.03261468,-0.57961774,0.32813457,-1.3457125,-0.1615625,4.89335
178,1715699468.3790505,1.1068349,-0.73822635,-0.14178899,-0.3168,-1.293875,6.1012874
179,1715699468.3945231,1.6010245,-0.62833333,-0.47278285,-0.2528625,-1.4356375,6.0768123
180,1715699468.4102104,1.6573853,-0.54709476,-0.5293578,-0.591525,-1.110725,5.6742125
181,1715699468.4258053,1.5053976,-0.38704893,-0.40733945,-1.2254,-0.3202375,5.0659122
182,1715699468.441463,0.9781804,-0.2850153,0.15729357,-1.3660625,0.077,4.564175
183,1715699468.4668088,0.6828746,-0.24842508,0.40377676,0.0262625,-0.61861247,4.1647377
184,1715699468.482431,0.9820642,-0.031697247,0.1795107,0.8273375,-1.126675,4.124175
185,1715699468.4979012,1.1700306,0.14108562,-0.099388376,2.09825,-1.9394375,3.769425
186,1715699468.514369,1.2479053,0.2828746,-0.31998473,2.2974875,-2.06415,3.5595999
187,1715699468.5985067,0.9181499,0.49490824,-0.617737,-2.5771625,-0.2286625,2.2226875
188,1715699468.6280346,1.2169266,0.9293578,0.61631495,-1.3052875,-1.261975,1.9809625
189,1715699468.6513107,1.7144803,1.4149847,0.38593274,-0.2858625,-1.615625,2.83635
190,1715699468.6779463,2.9250765,1.9824617,-0.28685015,-0.63305,-1.08295,2.776675
191,1715699468.708815,2.7707493,2.1477063,-0.1359786,-1.9199125,0.2347125,1.8286124
192,1715699468.7244062,2.6541283,2.213043,0.28634557,-2.1756625,0.6725125,1.4301375
193,1715699468.7514298,2.5205963,2.0939908,0.8835933,-0.8430125,1.236125,0.60665
194,1715699468.7672284,2.0955198,1.7279359,0.76105505,0.7517125,1.00815,-0.3861
195,1715699468.7838454,1.9068348,1.621208,0.675948,1.127775,0.8888,-0.63002497
196,1715699468.8013544,0.8056116,1.1516819,0.07522936,2.46895,0.0419375,-1.3586375
197,1715699468.817353,0.22946483,0.9474006,-0.46402138,2.46895,0.0419375,-1.3586375
198,1715699468.8324208,0.09857798,0.9188532,-0.611422,1.650825,0.357225,-1.2298
199,1715699468.8413608,0.030076453,0.90102446,-0.68481654,1.15115,0.626725,-1.206425
200,1715699468.8672333,-0.0062232413,0.79163605,-0.6306881,-0.205975,1.44485,-1.290575
201,1715699468.8857355,0.064938836,0.55279815,-0.10183486,-1.5013624,2.685925,-1.71985
202,1715699468.9830077,0.78685015,0.14342508,0.08185015,2.90895,1.0570999,-3.7288625
203,1715699469.0093975,1.2988838,0.30672783,-0.32313457,2.711775,0.4530625,-4.7504873
204,1715699469.0350254,0.87247705,0.81784403,-0.21915902,2.1269875,-0.3884375,-5.6112375
205,1715699469.052279,0.85718656,1.077263,-0.375841,1.7392375,-0.2627625,-5.3332124
206,1715699469.0689187,0.5552447,1.3508716,-0.5501529,0.7613375,0.341275,-4.6354
207,1715699469.0985432,1.1201835,1.6307799,0.071146786,-0.320925,0.152625,-2.3909874
208,1715699469.1171825,1.5082569,1.6453669,0.073593274,-0.2528625,-0.048675,-2.2737
209,1715699469.1381526,1.4142661,1.1846025,-0.027828746,-0.2784375,-0.437525,-2.687025
210,1715699469.1566846,1.0191591,0.9391437,-0.014678899,-0.2784375,-0.437525,-2.687025
211,1715699469.1756415,0.6557645,0.76269114,0.014067279,-0.4371125,-0.3821125,-2.02125
212,1715699469.2097175,0.22772172,-0.016819572,0.089189604,-0.9442125,-0.1018875,0.98065
213,1715699469.2253509,0.3553517,-0.41478595,0.051376145,-0.813175,-0.2190375,1.781725
214,1715699469.2409742,0.40876147,-0.6020336,-0.0029510704,-0.7385125,-0.30965,2.12795
215,1715699469.2689035,0.4307798,-0.8341437,-0.02029052,-0.50105,-0.5066875,2.9279249
216,1715699469.3639977,0.49399084,-0.932003,0.00764526,0.400125,-1.683825,4.1657
217,1715699469.3972864,0.95137614,-0.7790061,-0.091024466,0.84122497,-1.769075,4.547125
218,1715699469.41249,1.7051988,-0.3316055,-0.44025993,1.2023,-1.701975,3.905825
219,1715699469.4283042,1.0728899,-0.005504587,-0.6912385,0.8699625,-1.701975,2.877875
220,1715699469.4509325,0.15891437,0.037308868,-0.71732414,-0.0664125,-1.5709375,3.4530375
221,1715699469.4690049,0.3524006,0.16860856,-0.47227833,-0.879175,-1.8415375,4.8752
222,1715699469.4843488,1.646682,0.76778287,-0.20305811,-1.4235375,-2.19835,5.9670873
223,1715699469.5111332,3.690107,2.051988,0.08409786,-1.4331625,-1.936275,4.2669
224,1715699469.5269618,3.6738071,2.7978592,0.19652906,-1.4331625,-1.936275,4.2669
225,1715699469.5435398,3.2839906,2.819572,0.2609633,-1.41295,-1.160775,2.76815
226,1715699469.5695436,2.1662538,2.4908257,0.3005046,-1.5301,-0.07425,1.9639125
227,1715699469.5851116,2.0314984,2.3548472,0.2651376,-1.5961,0.5042125,1.461075
228,1715699469.6007047,2.088685,2.3026452,0.2780887,-1.586475,0.6480375,1.2266375
229,1715699469.6164482,2.4283333,2.4593272,0.7937768,-0.727925,0.4637875,0.3851375
230,1715699469.6320362,2.6623855,2.4535167,0.76860857,-0.0121,0.2613875,-0.21779999
231,1715699469.6487553,2.6199846,2.3348625,0.5033639,0.537625,0.1824625,-0.950675
232,1715699469.7330925,0.72977066,1.0765597,0.5604434,0.7101875,0.2816,-2.082025
233,1715699469.7536266,1.1558563,0.79652905,0.69958717,-0.1227875,2.0807874,-3.54145
234,1715699469.7798572,1.2554587,0.008455657,0.4996942,1.8478625,2.1916125,-5.3854623
235,1715699469.798338,0.8747248,-0.2459786,0.15830275,2.661725,1.7549125,-5.8872
236,1715699469.82806,0.6704434,-0.2351682,-0.4414832,2.5084126,0.932525,-5.237375
237,1715699469.8456943,0.86472476,-0.22029051,-0.5415902,2.0119,0.8344875,-4.916725
238,1715699469.8636503,1.3447554,-0.2725841,-0.599893,0.74855,1.0901,-5.303375
239,1715699469.8799274,1.5231346,-0.4075382,-0.5352753,0.74855,1.0901,-5.303375
240,1715699469.898528,0.90836394,-0.45830277,-0.13811927,-0.2187625,1.58125,-6.1854377
241,1715699469.9150918,0.13964832,-0.06340979,0.3412844,-0.1153625,1.5599375,-5.8370123
242,1715699469.923774,0.13964832,-0.06340979,0.3412844,0.2052875,1.3479125,-5.1808624
243,1715699469.947089,0.26116207,0.47808868,0.056467887,1.21825,0.406175,-3.1334875
244,1715699469.9673767,0.36197248,0.7119266,-0.3514832,0.554675,0.591525,-2.4228876
245,1715699469.983121,0.346789,0.6967431,-0.4083639,-0.5127375,1.0602624,-1.4981999
246,1715699469.9988859,0.1432263,0.7264985,-0.39102447,-1.03895,1.114575,-0.783475
247,1715699470.0145786,0.17472477,0.56493884,-0.21896024,-2.075425,1.34365,0.296725
248,1715699470.0304632,0.13444954,0.47686544,-0.05443425,-2.3428626,1.437425,0.7313625
249,1715699470.134215,1.4961315,-0.743318,-0.9076452,-0.322025,-0.3884375,6.505125
250,1715699470.1507132,1.6640214,-0.6356728,-0.76778287,-1.14235,0.325325,6.5179124
251,1715699470.1706848,1.7165138,-0.5358868,-0.25626913,-1.7771875,0.8152375,6.082175
252,1715699470.1917596,0.88542813,-0.34720185,0.525581,-0.85676247,0.253825,5.3343124
253,1715699470.2079213,0.88542813,-0.34720185,0.525581,0.4577375,-0.3927,5.1415377
254,1715699470.2283905,1.101942,-0.41509172,-0.09714068,2.5977874,-1.75835,5.0978127
255,1715699470.255271,1.4128441,-0.12874617,-1.0775688,2.80775,-2.377375,3.9111874
256,1715699470.273693,1.2283334,0.28818044,-1.3482109,0.0796125,-0.17545,3.4285624
257,1715699470.2992702,1.4469879,0.4182416,-1.1573853,-1.34475,0.7844375,3.249675
258,1715699470.3156762,1.2344496,0.3609633,-0.51865447,-2.6401374,-0.1573,2.320725
259,1715699470.3316338,1.1355811,0.33333334,-0.37022936,-2.5623126,-1.59225,2.187625
260,1715699470.3480833,1.4375076,0.39123854,0.3230428,-2.2331374,-1.988525,2.3068376
261,1715699470.3652494,2.1240518,1.0103976,0.38062692,-1.960475,-2.079,2.2930875
262,1715699470.381508,2.4046943,1.3407798,0.2119266,-1.64505,-1.1246125,2.178
263,1715699470.3996007,2.4046943,1.3407798,0.2119266,-1.8464875,-0.76876247,2.134275
264,1715699470.4159634,2.8396482,2.045153,0.0667737,-2.32375,-0.91795,2.101275
265,1715699470.514148,2.448624,2.1125383,1.1361927,-0.6054125,1.1913,-1.41625
266,1715699470.53568,1.1990826,1.2544342,0.22711009,1.1937749,1.183875,-2.5485625
267,1715699470.5563278,0.56625384,0.9361927,-0.27798167,1.067,1.27545,-2.6360126
268,1715699470.5724552,0.38613153,0.8600459,-0.4080581,0.81675,1.401125,-2.5900874
269,1715699470.5890741,0.031697247,0.7408716,-0.49449542,-0.2123,2.045725,-2.284425
270,1715699470.604682,0.15157492,0.7326147,-0.37512234,-0.896225,2.5048375,-2.1022375
271,1715699470.620374,0.39246178,0.7292507,-0.19460244,-1.2029876,2.6475625,-2.454925
272,1715699470.6358476,1.1968349,0.5686086,0.52701837,-0.67141247,2.231075,-3.3070126
273,1715699470.6522517,1.0916361,0.36533642,0.7407798,0.71555,1.640925,-4.3786874
274,1715699470.6828222,0.95137614,0.16788991,0.20244648,2.3368125,1.7527125,-4.610925
275,1715699470.713261,1.3310857,0.032415904,-0.047400612,2.4550624,1.8314999,-4.747325
276,1715699470.7287452,1.5099847,-0.08073395,-0.14261468,2.4391124,1.7122875,-5.0615125
277,1715699470.7472994,1.7430123,-0.48654434,-0.224052,2.2495,1.1721874,-6.2247624
278,1715699470.766838,1.5665596,-0.6171254,-0.24821101,2.1355126,0.9559,-6.6892376
279,1715699470.7866218,0.39347094,-0.43506116,-0.13108563,1.69235,1.117875,-6.4262
280,1715699470.8731704,-0.031085629,-0.16616207,-0.13230887,1.69125,1.1125125,-5.786
281,1715699470.8923938,-0.17022936,0.4504587,-0.29071864,-0.324225,0.6309875,-1.1424875
282,1715699470.908122,-0.4406728,0.19418961,-0.08940367,-1.0932626,0.93885,0.669625
283,1715699470.9236348,-0.32671255,0.04882263,0.35524464,-1.17645,0.8003875,1.2725625
284,1715699470.9393957,-0.20733945,0.0114220185,0.4867431,-0.694925,-0.133925,2.8320875
285,1715699470.9561362,0.43689603,-0.20937309,0.40203363,0.3884375,-1.145925,4.1358624
286,1715699470.9859169,1.130994,-0.46197245,-0.35585627,0.8210125,-1.109625,5.304475
287,1715699471.0023265,1.31763,-0.51029056,-0.6513761,0.164725,-0.4054875,5.710375
288,1715699471.0183182,1.4084557,-0.5537156,-0.72487766,-0.5522,0.1857625,5.9937625
289,1715699471.036725,1.5934709,-0.63108563,-0.2994954,-1.8431875,0.7726125,6.4486127
290,1715699471.0530226,1.8426148,-0.55637616,0.030382263,-1.7004625,0.2921875,6.3122125
291,1715699471.080112,1.7466819,-0.169526,0.33252293,0.6527125,-1.18415,4.9231873
292,1715699471.098294,1.66789,-0.1146789,0.24250765,1.0660375,-1.3034999,4.682425
293,1715699471.117132,0.52885324,0.059220184,-0.6672783,1.9129,-0.9796875,4.312825
294,1715699471.1325939,0.25015292,0.101529054,-0.9179358,0.704825,-0.0336875,5.4525623
295,1715699471.1477563,1.3855199,0.4778746,-1.0998012,0.015675,0.1164625,5.5196624
296,1715699471.1643834,2.2499542,0.78685015,-1.0982722,-0.63525,0.1505625,4.849625
297,1715699471.1811037,2.6504588,1.0051987,-1.0231345,-1.07415,0.0792,3.922875
298,1715699471.2648163,1.8514832,1.6393425,-0.21845567,-0.507375,-1.3685375,0.5204375
299,1715699471.2812612,1.2735015,1.9938838,0.07675841,-0.9868375,-1.195975,0.4895
300,1715699471.2968695,1.6312996,2.2926605,0.10233945,-1.0847375,-1.2225125,1.2874125
301,1715699471.3123884,2.080321,2.356575,-0.12599388,-1.6770875,-0.68145,1.1713625
302,1715699471.328135,2.3070338,2.3138685,0.08256881,-2.2044,-0.0103124995,0.6887375
303,1715699471.3477933,2.3910246,2.2842965,0.3185474,-2.315225,0.3529625,0.2146375
304,1715699471.3630333,2.3124313,2.193272,0.7635015,-1.754775,0.8674875,-0.6950625
305,1715699471.3908787,1.8956116,1.834052,0.5634098,0.6835125,1.2020249,-2.0340376
306,1715699471.4065216,1.5746177,1.5692202,0.014067279,1.463275,1.0698875,-2.4985125
307,1715699471.4374225,1.0303823,1.1194649,-0.78512233,0.8177125,0.8877,-2.9896624
308,1715699471.452949,0.8222171,0.9981652,-0.8491284,0.24145,0.9846375,-3.03325
309,1715699471.4718678,0.62263,0.6657492,-0.51814985,-0.913275,1.5269375,-3.00025
310,1715699471.480872,0.62263,0.6657492,-0.51814985,-1.3138125,1.873025,-3.061025
311,1715699471.4890368,0.64281344,0.51763,-0.30631498,-1.5098875,2.2012374,-3.2313874
312,1715699471.4968693,0.6496483,0.40775228,-0.13211009,-1.5023249,2.3450625,-3.40395
313,1715699471.5128348,0.75218654,0.09836391,0.1795107,-0.711975,2.2268126,-4.090075
314,1715699471.5283394,0.67237,0.0,0.1714526,-0.2336125,2.042425,-4.307325
315,1715699471.5447276,0.62793577,-0.03995413,0.12680428,0.1775125,1.857075,-4.359575
316,1715699471.648527,0.6469878,-0.19766055,-0.009587156,1.009525,0.9878,-6.2440124
317,1715699471.6643143,-0.28470948,0.08389908,0.030168196,1.08735,0.492525,-5.19585
318,1715699471.6811876,-0.501422,0.2174312,0.05432722,1.0478874,0.2805,-4.6216497
319,1715699471.6968772,-0.73475534,0.5108104,0.07798165,0.91368747,-0.1040875,-2.9299874
320,1715699471.712502,-0.38501528,0.71600914,0.04261468,0.7293,-0.383075,-1.492975
321,1715699471.7576187,0.36166668,0.32477063,-0.25799695,-0.4477,1.0124125,-1.0998625
322,1715699471.7730932,-0.36697248,0.07634557,0.14995413,-0.6917625,1.5151125,-0.8815125
323,1715699471.7906663,-0.70958716,-0.09490826,0.61784405,-0.323125,1.554575,0.6908
324,1715699471.817855,0.04567278,-0.068700306,0.45799696,2.19725,-1.2236125,4.3032
325,1715699471.8333616,1.506315,-0.0042813458,-0.59460247,2.8843374,-2.207975,5.3609877
326,1715699471.8490818,1.882156,0.061269112,-0.9860398,2.458225,-1.8808625,5.223625
327,1715699471.8646154,2.0335321,0.084602445,-1.3326147,1.396175,-0.941325,4.9178247
328,1715699471.882882,1.1919419,-0.07267585,-0.72365445,-2.1660376,2.3769624,5.019025
329,1715699471.8986058,0.8825688,-0.12344036,-0.35392967,-2.6709375,2.5207875,5.441975
330,1715699471.9140651,0.7737003,-0.17787461,0.013761468,-2.7328124,2.0711625,5.962825
331,1715699471.929866,0.8288532,-0.24056575,0.32711008,-2.32045,1.2882375,6.44655
332,1715699472.013507,0.8780887,-0.2969419,0.42252296,-0.915475,-0.1348875,7.0206122
333,1715699472.0309238,0.70244646,0.3875688,-0.099388376,-0.3881625,-0.18287499,2.66585
334,1715699472.0475433,0.5440367,0.35259938,-0.4029511,-0.5894625,0.675675,2.809675
335,1715699472.0631921,0.59888375,0.33363914,-0.46105504,-1.17645,0.33165,2.457125
336,1715699472.081475,1.0811468,0.5108104,-0.37931195,-1.3404875,-0.2212375,2.02565
337,1715699472.097159,1.1114221,0.5845107,-0.014480123,-1.5673625,-1.75945,1.074425
338,1715699472.112725,1.0904129,0.78685015,0.2448471,-1.5151125,-1.3034999,1.2522125
339,1715699472.1283982,1.0206882,0.88318044,0.27706423,-1.4906375,-0.9626375,1.4653375
340,1715699472.1438808,1.3787004,1.1882722,0.33516818,-1.3925999,-0.3128125,2.42825
341,1715699472.165195,2.4747248,1.6148777,0.36249235,-1.0027875,-0.98285,2.9396124
342,1715699472.1818268,3.0780885,2.156682,-0.17503057,-0.826925,-1.6753,2.3164625
343,1715699472.2108738,2.5958257,2.1681957,-0.1606575,-2.18735,0.186725,0.7206375
344,1715699472.229775,2.1536238,2.015902,0.33986238,-2.514325,1.4161125,0.3095125
345,1715699472.2468228,1.7694191,1.7461774,0.582156,-1.64615,1.54605,0.162525
346,1715699472.2627444,1.704786,1.6420032,0.6199847,-0.36355,1.097525,-0.113437496
347,1715699472.2819214,1.5537156,1.419159,0.5558563,-0.0462,0.9527375,-0.23375
348,1715699472.3069472,0.9962232,1.0423089,0.0930734,1.2588125,0.5724125,-0.891
349,1715699472.408152,0.54545873,0.13536698,0.2700306,1.59005,1.6952375,-3.3251624
350,1715699472.4245522,0.79928136,-0.004082569,0.21732417,2.0513625,1.7996,-4.1657
351,1715699472.4551897,1.1488227,0.06727829,-0.036391437,2.120525,1.739925,-5.269275
352,1715699472.4826314,1.2297707,0.23619267,-0.042706423,1.99705,1.6973,-5.6144
353,1715699472.4982574,1.6076453,0.40214068,0.13944954,2.0684125,0.7216,-6.1439123
354,1715699472.516735,1.7340521,0.5535168,0.12874617,2.6298249,-0.453475,-6.7926373
355,1715699472.540025,1.312844,0.6259939,-0.29460245,2.4871,-0.705925,-6.91405
356,1715699472.5555618,0.82640666,1.0816513,-0.5650306,1.86175,-0.2723875,-6.5305624
357,1715699472.5634832,0.82640666,1.0816513,-0.5650306,1.177825,0.2784375,-5.9915624
358,1715699472.5881457,0.78512233,1.3125383,-0.32558104,-0.2954875,0.9675875,-4.4021997
359,1715699472.6175778,1.3284403,1.3815444,0.04087156,-0.30827498,0.39985,-3.5595999
360,1715699472.6352468,0.90836394,1.1373088,-0.23772171,-0.26455,-0.0837375,-3.160025
361,1715699472.6522121,0.5071407,0.8673853,-0.37389907,-0.6980875,0.459525,-2.6923876
362,1715699472.682952,-0.16238531,0.3690061,-0.32263,-1.471525,1.1221375,-1.48335
363,1715699472.7063243,-0.51529056,0.039250765,-0.08766055,-1.8869125,0.9453125,0.18053749
364,1715699472.7743955,-0.41426605,-0.17859328,0.12282875,-1.8869125,0.9453125,0.18053749
365,1715699472.7981672,1.3589144,-0.8675841,-0.27389908,-0.3007125,-0.2233,3.2240999
366,1715699472.8137612,1.0755352,-0.8763456,-0.14178899,-0.4371125,0.3370125,2.80335
367,1715699472.838354,0.1293578,-0.89582574,0.026192661,-0.0248875,0.0664125,2.7841
368,1715699472.8541534,-0.1570795,-0.9171254,-0.060749233,0.4662625,-1.1980375,3.6991625
369,1715699472.8724911,0.9442355,-0.8058104,-0.8022477,0.754875,-2.3304875,4.6844873
370,1715699472.8918476,1.5990825,-0.4321101,-1.4518807,-1.149775,-1.345025,4.28505
371,1715699472.9080982,1.5856268,-0.26279816,-1.6323088,-2.483525,-0.538725,3.6139126
372,1715699472.92343,1.1053059,-0.14006117,-1.3777828,-3.4709125,-0.1637625,3.2901
373,1715699472.940909,0.58154434,0.27237004,0.5224312,-2.887225,-2.3901625,4.5610123
374,1715699472.9676282,1.9666667,1.0853211,1.3266056,0.2872375,-4.2372,4.6941123
375,1715699472.9828494,2.7514832,1.6832874,0.20631498,1.547425,-4.32465,4.107125
376,1715699472.998854,2.6702294,1.9170183,-0.34659022,1.481425,-3.9198499,3.4797125
377,1715699473.0192575,2.1681957,2.3238533,-0.9860398,-0.5383125,-2.7245624,3.4541376
378,1715699473.0488029,2.4122324,1.9936849,0.3379205,-3.3314874,-0.9018625,3.5223374
379,1715699473.0679672,2.4291592,1.9726759,1.3875688,-3.694625,0.73535,2.4836626
380,1715699473.1604624,1.0018349,1.2409786,-0.7605505,1.8425,0.3199625,-0.868725
381,1715699473.1841712,0.7053058,0.9913303,-0.5123394,-0.5138375,1.521575,-1.5206125
382,1715699473.1998222,0.65331805,0.8817584,-0.35952598,-0.9004875,1.739925,-1.7144874
383,1715699473.2154677,0.677263,0.57472473,0.25830275,-1.1944625,1.9306375,-2.6147
384,1715699473.2309988,0.6250765,0.44607034,0.46747708,-0.8578625,1.8687625,-3.0630875
385,1715699473.2478113,0.66310394,0.26105505,0.6082569,0.10505,1.6196125,-3.6650624
386,1715699473.2681093,0.6601376,0.21111621,0.57900614,0.8881125,1.2808125,-4.038925
387,1715699473.2936466,0.94281346,0.34484708,-0.06350153,1.79575,0.60225,-4.427775
388,1715699473.3094113,1.5617738,0.40897554,-0.3856269,1.2651374,0.1676125,-4.9944124
389,1715699473.3245742,1.6742048,0.2584098,-0.39714065,0.5311625,0.2495625,-5.8625875
390,1715699473.3458412,1.6008104,0.13761468,-0.20061162,0.0944625,0.4519625,-6.27385
391,1715699473.3679533,1.2820642,0.0094801225,0.23027523,0.1573,0.810975,-6.897
392,1715699473.3846154,1.1085627,0.11804282,0.3207951,0.434225,0.6543625,-6.98115
393,1715699473.4008334,0.6809327,0.4509633,0.41865444,0.9978375,0.0675125,-6.7073874
394,1715699473.4295657,0.8293578,1.3081498,-0.41906726,1.024375,-0.1007875,-5.015725
395,1715699473.4453526,0.9506575,1.1980581,-0.54230887,-0.425425,1.0698875,-4.1113873
396,1715699473.531665,0.9506575,1.1980581,-0.54230887,-0.73535,1.5961,-3.7236376
397,1715699473.559916,0.14056575,-0.65126914,0.056467887,0.5632,0.4371125,3.1271625
398,1715699473.5831773,0.48521405,-0.94515294,-0.44475535,0.80396247,0.291225,4.174225
399,1715699473.5994043,0.6194648,-0.9815443,-0.48348624,0.400125,0.5286875,5.1756372
400,1715699473.6130512,1.1306881,-1.0086697,-0.475948,-0.086625,0.8760125,5.5793376
401,1715699473.629812,1.7123394,-0.9297707,-0.2975535,-0.170775,0.659725,5.102075
402,1715699473.6461437,1.3011162,-0.7370031,-0.12599388,0.6505125,-0.5748875,3.9590375
403,1715699473.6619203,0.71610093,-0.73669726,-0.25168195,1.5752,-1.5059,3.754575
404,1715699473.6853817,-0.050458718,-0.67717123,-0.6364985,1.474,-1.498475,4.882625
405,1715699473.700894,0.8864373,-0.4712538,-0.851789,1.176725,-1.3930125,5.6060123
406,1715699473.7166398,1.7809328,-0.19154435,-1.0550458,0.2393875,-0.98175,5.880875
407,1715699473.7321162,2.3619726,0.040779818,-1.1866513,-0.2517625,-1.0126874,5.23215
408,1715699473.7477386,1.7125382,0.41437307,-1.0228288,-1.958275,-1.041425,2.66695
409,1715699473.7698078,0.47564223,0.24261469,-0.52405196,-3.3708124,0.2528625,2.437875
410,1715699473.7856221,0.036391437,0.22201836,0.050657492,-4.1496124,1.013375,3.2954624
411,1715699473.8112576,1.4280275,0.65963304,0.38470948,-4.035625,-0.37454998,3.3710876
412,1715699473.827606,1.9388379,1.1514832,0.8457645,-3.4975874,-1.5431625,2.539075
413,1715699473.9168391,2.264633,2.0129511,0.5838991,-0.8845375,-2.0917876,3.0771124
414,1715699473.9383316,2.603364,2.1845107,0.7598318,-3.022525,0.3933875,0.3680875
415,1715699473.9539788,2.4657493,2.061575,1.0278287,-2.852025,0.8185375,0.0900625
416,1715699473.9705687,2.0766513,1.7671713,1.4395566,-1.7675625,1.5727249,-0.3883
417,1715699473.9874127,1.6278287,1.406422,1.443731,-0.015262499,1.6163125,-0.7940625
418,1715699474.0030072,1.5,1.2341437,1.2377217,0.88165,1.4277999,-0.9922
419,1715699474.0214567,1.2246636,0.970841,0.6507645,2.005575,1.1136125,-1.626075
420,1715699474.036595,0.86055046,0.9278287,0.04178899,2.0491624,1.5514125,-2.0510874
421,1715699474.0587122,1.0191591,1.0564679,-0.44862384,1.2375,2.2075624,-2.3654125
422,1715699474.0865479,1.3913302,0.80366975,-0.5720642,-1.387375,4.0195374,-3.431725
423,1715699474.1020198,1.3377217,0.53811926,0.43597862,-1.891175,4.605425,-3.9920375
424,1715699474.1220672,0.94178903,-0.3152905,1.4627982,3.7024624,2.565475,-5.22775
425,1715699474.1394575,0.9615749,-0.44169724,1.0610551,4.704975,2.010525,-5.3235874
426,1715699474.1622965,1.1105046,-0.6166208,-0.107140675,5.7222,1.099725,-5.6090374
427,1715699474.186515,1.169526,-0.5444495,-1.0165137,4.533375,0.90365,-5.8392124
428,1715699474.2022321,1.3755351,-0.29204893,-0.80366975,2.36775,1.37885,-6.0405126
429,1715699474.2179043,1.3755351,-0.29204893,-0.80366975,1.3503875,1.741025,-6.3878374
430,1715699474.286913,1.2056116,-0.28551987,-0.6040826,1.3503875,1.741025,-6.3878374
431,1715699474.3053005,0.54128444,1.2322172,-0.24995413,1.5933499,-0.30855,-2.1736
432,1715699474.3210783,0.751682,1.130474,-0.3500459,0.76669997,0.2762375,-2.0532875
433,1715699474.3365436,0.73169726,1.0293578,-0.35585627,0.471625,0.543675,-2.0340376
434,1715699474.363012,-0.045764524,0.37431192,-0.036590215,-0.484,1.6504124,-1.2744875
435,1715699474.3914514,-0.8277217,-0.18440367,0.2365902,-0.2091375,1.24355,2.0362375
436,1715699474.4088056,-0.399893,-0.5031652,0.062385324,0.2308625,0.2261875,4.1784873
437,1715699474.4267957,-0.041896023,-0.606422,-0.0803211,0.284075,-0.2297625,4.9093
438,1715699474.4423416,1.097049,-0.8924618,-0.44862384,0.181775,-0.754875,5.6986876
439,1715699474.4580772,1.3991896,-0.8802294,-0.4801223,-0.492525,-0.4332625,6.3218374
440,1715699474.4843566,1.5778747,-0.7942966,-0.3371101,-1.0443125,0.4637875,6.151475
441,1715699474.501621,1.4677829,-0.6864373,-0.032003056,-0.93775,0.4860625,5.6538625
442,1715699474.5177767,1.4142661,-0.6576911,0.12680428,-0.4690125,-0.014575,5.3163
443,1715699474.533494,1.2356727,-0.5429205,0.07695719,0.875325,-1.6071,4.708
444,1715699474.5491784,0.95891434,-0.47339448,-0.47136086,1.9118,-2.7746124,4.52265
445,1715699474.564672,0.82640666,-0.40948012,-0.7302753,1.9394375,-2.832225,4.55675
446,1715699474.58826,1.0718654,0.012125383,-1.3891896,-0.105875,-1.69125,5.443075
447,1715699474.6950126,3.259633,1.9604434,-0.02885321,-0.90695,-1.6380374,0.9997625
448,1715699474.7106264,3.0380275,2.4334404,-0.22579512,-1.2392875,-1.3696375,0.4937625
449,1715699474.7381973,2.3700306,2.8407798,-0.42252296,-2.72745,-1.9118,0.30415
450,1715699474.7536862,2.0939908,2.5788991,-0.17889908,-3.8278625,-0.8614375,0.2893
451,1715699474.770777,1.3401682,2.2916362,0.6556575,-4.049375,-0.7783875,0.2935625
452,1715699474.7904012,0.6735933,2.0847094,1.5227369,-1.8880125,-2.798125,1.478125
453,1715699474.8067806,2.138945,2.0939908,0.8093731,0.0262625,-1.9075375,1.3949375
454,1715699474.836843,2.6103976,1.9922477,-0.0579052,0.14245,0.759825,-0.53735
455,1715699474.8524706,1.3881804,1.5809327,0.10061162,-0.3465,3.06625,-1.9265125
456,1715699474.8682578,0.56035167,1.2409786,0.17359328,-0.1931875,3.4986875,-2.0042
457,1715699474.8983817,0.35290518,0.9137615,-0.1906269,-0.2239875,2.0244124,-1.911525
458,1715699474.9140437,0.3553517,0.845367,-0.10224771,-0.526625,2.0361,-1.9754624
459,1715699474.9304805,0.61743116,0.76605505,0.23099388,-0.7310875,2.3610125,-2.267375
460,1715699474.9459877,0.69235474,0.71651375,0.31172782,-0.696025,2.4770625,-2.400475
461,1715699474.9677434,0.89816517,0.39897555,0.5245719,0.5407875,2.92875,-3.635225
462,1715699475.050535,0.8051988,0.37431192,-0.0903211,1.5112625,1.64835,-4.1305
463,1715699475.0725763,1.877263,0.10519878,-0.16922018,0.8668,2.2939124,-5.3491626
464,1715699475.0914512,1.5031651,-0.18298166,-0.073287465,1.0297375,2.0392625,-6.2451124
465,1715699475.1070642,0.5701376,-0.182263,-0.010810398,1.3685375,1.5023249,-6.465525
466,1715699475.1303556,-0.46778288,-0.007951071,-0.085932724,1.480325,0.947375,-5.3235874
467,1715699475.1459618,-0.9014221,0.1783945,-0.19215596,1.397275,0.6842,-4.223175
468,1715699475.1646628,-0.5539296,0.47022936,-0.39591745,0.8454875,0.3092375,-1.8082625
469,1715699475.1815417,0.2564679,0.38093272,-0.52721715,-0.709775,0.7546,-0.7973625
470,1715699475.2122624,-0.01937309,0.122522935,-0.07420489,-1.43,0.711975,0.0378125
471,1715699475.22847,-0.01937309,0.122522935,-0.07420489,-1.4342625,0.6821375,0.7495125
472,1715699475.2594385,0.17380734,-0.28103977,0.4413914,0.1274625,0.06325,4.5610123
473,1715699475.2891405,0.83619267,-0.34912843,0.15585627,0.6835125,-0.420475,5.3172626
474,1715699475.309679,1.8572936,-0.36727828,-0.73169726,0.417175,-0.64845,5.1745377
475,1715699475.3263083,1.7144803,-0.3316055,-0.5384251,-0.7310875,-0.015675,4.9146624
476,1715699475.3419552,1.2215137,-0.31233945,-0.07859327,-1.1774125,0.490325,5.0425377
477,1715699475.3577518,1.1087614,-0.30397552,0.105810404,-0.9686875,0.3796375,5.1777
478,1715699475.4357793,1.0677829,-0.29480124,0.22711009,-0.3689125,-0.19139999,5.2831626
479,1715699475.4546201,1.0643272,0.5193731,-0.89816517,-0.1420375,-0.336325,3.5564375
480,1715699475.4702497,1.3818502,0.57522935,-0.84077984,-0.6747125,-0.383075,3.23895
481,1715699475.4951823,1.5698318,0.8194648,-0.54423547,-1.5940375,-1.9437,0.88467497
482,1715699475.5116258,1.1810397,0.83435774,-0.340474,-1.826275,-2.289925,0.4629625
483,1715699475.527118,0.58154434,0.9081499,-0.0617737,-2.0882125,-2.6563625,0.532125
484,1715699475.5481856,0.16177371,1.0472019,0.3988838,-2.1638374,-2.9983249,1.0668625
485,1715699475.563782,0.4099847,1.329159,0.76330274,-1.6578375,-2.5551624,2.1885874
486,1715699475.5832403,2.0246637,1.748425,0.44964832,-0.5894625,-1.868075,3.1931624
487,1715699475.599169,3.67237,2.4059174,-0.5359786,-0.6661875,-1.971475,2.2695749
488,1715699475.6148775,2.7815444,2.3999999,-0.5027523,-2.2363,-0.804925,0.6887375
489,1715699475.6307704,2.2585168,2.3219113,-0.19796637,-2.7487624,-0.17215,0.4906
490,1715699475.6477513,1.1990826,2.1876605,0.5961315,-3.1087375,0.8652875,1.021075
491,1715699475.6632192,1.0467889,2.0297706,0.6551529,-2.92985,1.303225,1.4482875
492,1715699475.6820154,1.1119267,1.6810398,0.8032569,-1.553475,1.639825,1.8051
493,1715699475.698104,1.9754281,1.3952141,1.6067278,-0.152625,1.133825,1.2001
494,1715699475.7135665,1.9934709,1.2251835,0.93781346,2.2856624,0.389125,-0.8025875
495,1715699475.9478445,2.129159,-0.1737003,-0.36411315,0.3267,0.153725,-7.5724
496,1715699475.9634397,1.8597401,-0.33108562,-0.39714065,-0.33165,0.7981875,-8.382
497,1715699475.9907758,-0.711315,-0.14515291,0.08848624,-0.6864,0.9356875,-7.3711
498,1715699476.0198894,-1.411315,0.8983639,0.48940367,-0.43065,0.0919875,-2.7339125
499,1715699476.0353727,-1.1942966,0.9713609,0.5585168,-0.36355,0.021724999,-2.0831249
500,1715699476.0525868,0.71487767,1.2493424,0.31977066,0.3469125,0.6491375,-0.9634625
501,1715699476.0687182,0.66655964,1.2376148,-0.1254893,0.1775125,1.1444125,-2.1863875
502,1715699476.0911677,-0.29347095,1.0137615,-0.06666667,-0.17613749,1.6526124,-2.434575
503,1715699476.1067994,-1.279205,0.74923545,0.16411315,-0.19855,1.875225,-1.406625
504,1715699476.209479,1.4184556,-0.7496483,-0.2096789,-1.0294625,-0.3405875,4.7356377
505,1715699476.2253964,1.1509633,-0.8448471,0.27909786,-0.6639875,0.847275,5.038275
506,1715699476.2408998,1.224159,-0.8614679,0.3412844,-0.2921875,0.9197375,5.1181626
507,1715699476.25333,1.3469877,-0.7914373,0.16044343,0.5141125,0.3796375,5.020125
508,1715699476.2614536,1.3469877,-0.7914373,0.16044343,1.2247125,-0.318175,4.8080997
509,1715699476.291525,1.0777829,-0.49510705,-0.43221715,2.1258874,-1.4612125,4.174225
510,1715699476.3072562,0.79980123,-0.36065748,-0.6209021,1.79465,-1.1127875,4.1050625
511,1715699476.3314753,0.52518344,-0.317737,-0.6755352,1.1809875,-0.2957625,4.3467875
512,1715699476.3537104,1.0209022,-0.11539755,-0.7087615,0.4279,-0.74745,4.45225
513,1715699476.3691645,1.2190672,0.16911314,-0.68776757,0.318175,-1.5283124,4.0624375
514,1715699476.3874195,0.7892966,0.26472476,-0.60214067,-0.0099,-2.4135375,3.2528374
515,1715699476.403132,0.70753825,0.40264526,-0.5357798,-0.575575,-2.053425,3.432825
516,1715699476.4202209,1.0687003,0.63527524,-0.43863913,-0.83545,-2.0098374,3.668225
517,1715699476.442376,3.3245718,2.9711468,-0.0034709482,-0.3817,-2.8961625,2.067175
518,1715699476.4595182,2.4408717,3.261269,-0.20499998,0.6782875,-4.0689,0.010175
519,1715699476.4750571,1.8951072,3.3125384,-0.5830734,0.6782875,-4.0689,0.010175
520,1715699476.50122,1.2356727,3.0875688,-1.0731957,-1.0346875,-0.8625375,0.9614
521,1715699476.5792017,1.6314985,2.0773702,-0.5535168,-0.5489,0.5852,1.0157125
522,1715699476.5953913,1.1751223,1.8193731,-0.5657492,-1.148675,1.6291,0.3851375
523,1715699476.6111767,0.9321101,1.7013302,-0.50622326,-1.37665,1.9284375,0.2253625
524,1715699476.626766,0.39174312,1.2714527,-0.2623853,-2.009425,2.5645125,-0.0048125
525,1715699476.6440425,0.32090214,1.0889908,-0.102033645,-2.112825,2.32375,-0.16665
526,1715699476.6597095,0.3424006,0.7824618,0.25882262,-1.9679,1.992375,-0.681175
527,1715699476.6790285,0.4108104,0.4919419,0.6668654,-1.1721874,2.22035,-1.44925
528,1715699476.69476,0.32782874,0.23649846,0.7251835,0.1254,2.72525,-2.1352375
529,1715699476.7103548,0.26288992,0.16074924,0.633945,0.758175,2.8073375,-2.3813624
530,1715699476.7400045,0.41662076,0.07094801,0.075733945,2.072675,2.1671374,-2.7605875
531,1715699476.756814,0.7504587,0.029250765,-0.25657493,2.1355126,1.3138125,-3.2176375
532,1715699476.7723591,0.8168196,0.020993883,-0.30897555,2.038575,1.0847375,-3.4445124
533,1715699476.787453,0.9486239,0.014174312,-0.4080581,1.5411,0.9101125,-4.0687623
534,1715699476.8108296,0.7831805,0.092660554,-0.37686545,1.2139875,0.9878,-4.340325
535,1715699476.8263175,0.599893,0.3420948,-0.22457187,0.2607,1.184975,-4.28505
536,1715699476.8421023,0.587263,0.5479052,0.031804282,0.2275625,0.864325,-4.0517125
537,1715699476.8577075,1.0494343,1.0991896,0.40866974,1.024375,-0.0251625,-3.7246
538,1715699476.8766646,1.1907187,1.225581,0.365948,1.28645,-0.215875,-3.7118125
539,1715699476.9615214,-0.52385324,0.99185014,0.5602447,-0.358325,1.6429875,-1.118975
540,1715699476.9787455,-0.5109021,0.85882264,0.4205963,0.6004625,1.083775,0.109175
541,1715699476.9980655,-0.21712539,0.21793579,-0.0017278286,0.8699625,0.90475,0.9656625
542,1715699477.0135784,-0.035978593,-0.25963303,-0.23822631,0.5578375,1.00705,1.765775
543,1715699477.0292976,0.033944953,-0.5085627,-0.30142203,0.1370875,0.9579625,2.4495625
544,1715699477.073277,0.35657492,-1.1940825,0.23027523,-0.459525,1.4639624,5.2427373
545,1715699477.110821,1.9283333,-1.0171254,0.08429664,0.8284375,1.24245,4.868875
546,1715699477.126448,1.6962234,-0.9280275,-0.22507647,1.3386999,0.53515,3.7642
547,1715699477.1505497,0.40071866,-0.959526,-0.64506114,2.3208625,-1.665675,2.2451
548,1715699477.1786883,-0.2800153,-0.95983183,-0.90795106,0.98395,-1.0734625,5.12765
549,1715699477.1953542,0.916208,-0.8096789,-1.0277216,-0.06215,-0.0666875,5.9351873
550,1715699477.2110825,2.858211,-0.10733946,-1.0311927,-1.3127126,0.0174625,4.0464873
551,1715699477.226592,2.8774772,0.05168196,-0.9643272,-1.522675,-0.1626625,3.1846375
552,1715699477.242254,0.7016361,0.18960245,-0.46350154,-1.9870125,-0.8177125,1.1628375
553,1715699477.258019,0.2182416,0.18940367,-0.41203365,-2.0318375,-0.9392625,1.4301375
554,1715699477.341452,1.4690061,1.7512691,0.9714526,-2.35455,-3.3999624,2.9236624
555,1715699477.360252,2.5923548,1.9802293,0.6570795,-1.2914,-3.133625,3.3561
556,1715699477.375974,3.4529052,2.1388378,0.3642202,-1.2925,-1.1991374,2.3824625
557,1715699477.3959146,3.0243578,2.224052,0.41814986,-1.2392875,0.03025,0.6705875
558,1715699477.4114215,2.306315,2.153318,0.48429665,-0.14093749,0.3433375,-0.5236
559,1715699477.4277637,1.8675841,2.0075383,0.29246175,0.27445,0.2347125,-0.5874
560,1715699477.4432738,1.7741132,1.8641132,-0.38022935,0.7431875,0.29755,-0.67265
561,1715699477.466507,1.9336393,1.775734,-0.82568806,0.4673625,0.7173375,-0.784575
562,1715699477.4962049,1.4091743,1.3159021,-0.63975537,-2.0031,1.64835,-2.0937126
563,1715699477.5117595,1.0940826,1.1514832,-0.34637615,-2.3951125,1.9625375,-2.2642124
564,1715699477.527449,0.85882264,1.0308869,-0.048119266,-2.5026374,2.1756625,-2.334475
565,1715699477.5428123,0.5906269,0.72068805,0.5977523,-1.9380625,2.3865874,-2.5763376
566,1715699477.561907,0.56035167,0.49980125,0.6005046,0.013475,2.092475,-3.2176375
567,1715699477.5962813,0.60652906,0.2435321,0.32344037,1.2502875,1.8954375,-3.717175
568,1715699477.6280327,0.7602446,0.1493425,0.0069266055,1.952225,1.95195,-4.0101876
569,1715699477.711974,0.8825688,0.14056575,-0.058608565,1.952225,1.95195,-4.0101876
570,1715699477.7382832,0.83058107,0.63425076,-0.14576453,1.1587125,0.560725,-4.240225
571,1715699477.753852,0.98185015,0.7157951,-0.18409786,0.9285375,0.424325,-4.1080875
572,1715699477.7702835,1.1355811,0.8138685,-0.2509633,0.385275,0.1357125,-4.2977
573,1715699477.79659,0.81243116,0.75240064,-0.24821101,-0.3092375,0.2134,-4.3638372
574,1715699477.816022,-0.16533639,0.5825688,-0.029556574,-0.9229,0.7748125,-3.8759875
575,1715699477.8326113,-0.26931193,0.541789,0.028639143,-1.3745875,1.2552375,-2.7594874
576,1715699477.8448458,-0.25004587,0.28429663,0.49897555,-1.1774125,1.014475,-1.1765875
577,1715699477.8780987,-0.06992355,-0.08022936,0.4753364,0.470525,-0.1689875,0.1071125
578,1715699477.8969076,-0.19877675,-0.08368502,0.32833332,0.926475,-0.6164125,0.8421875
579,1715699477.9133127,-0.008455657,-0.0038685016,-0.023440367,1.25345,-1.067,2.3398376
580,1715699477.9289243,0.6438379,-0.014785932,-0.6609633,0.3117125,-0.2883375,4.2031
581,1715699477.9575644,1.3989755,-0.14729358,-0.56157494,-1.8294375,1.3968625,4.7856874
582,1715699477.9731705,1.487049,-0.21203363,0.20019877,-2.465375,1.639825,3.9931374
583,1715699477.9930997,1.1329205,-0.22201836,0.7881804,-0.810975,0.70345,3.2784126
584,1715699478.008976,0.9437309,-0.2379205,0.7903211,0.0902,0.2932875,3.1164374
585,1715699478.0951757,0.6911315,-0.32007644,0.50428134,1.4675375,-0.2712875,3.0567625
586,1715699478.114814,0.5372019,0.095107034,-0.16310398,-1.8880125,-0.5759875,2.4134
587,1715699478.1308115,0.49735475,0.08949541,0.029357798,-1.5269375,-0.875325,2.2930875
588,1715699478.1464252,0.4527064,0.22446483,0.0579052,-0.0567875,-2.392225,2.0416
589,1715699478.1619036,0.47227833,0.26524463,-0.06035168,0.18287499,-2.6904626,2.0106626
590,1715699478.1819851,0.30845568,0.6218196,-0.7302753,-0.088825,-3.3914375,2.034175
591,1715699478.1977863,0.706315,1.1777829,-0.69633025,-1.5577375,-2.9940624,3.3807125
592,1715699478.2132611,2.31315,1.7691132,-0.19744648,-1.8517125,-2.914175,3.74715
593,1715699478.2290492,3.3653362,2.015902,-0.23944955,-2.2235124,-3.082475,4.35105
594,1715699478.2446644,3.7553515,2.3092813,-0.4990826,-2.8562875,-2.2292874,2.4921875
595,1715699478.2688668,3.117844,2.2035627,-0.40958714,-3.3750749,-1.769075,1.7391
596,1715699478.292364,3.117844,2.2035627,-0.40958714,-3.732025,-1.5442625,1.38325
597,1715699478.3121636,0.9571865,1.6686085,0.6521865,-3.140775,-1.1820875,2.6445374
598,1715699478.3286335,1.6530123,1.7286391,0.7845107,-2.565475,-0.1689875,3.080275
599,1715699478.3445284,2.0376146,1.7571865,0.8704434,-2.3161874,0.12815,2.7841
600,1715699478.3638945,2.2053058,1.828945,1.229159,-1.24025,0.2805,1.2799875
601,1715699478.3781784,1.1880734,1.5938838,0.94117737,0.3661625,0.3944875,-0.4266625
602,1715699478.3910031,0.9960245,1.5170183,0.84628445,0.5429875,0.5234625,-0.57145
603,1715699478.499426,0.81977063,0.62232417,0.222737,1.8085375,1.6643,-3.1238625
604,1715699478.5296679,1.3057034,0.4346636,0.0579052,1.4004375,1.91785,-4.4309373
605,1715699478.5464196,1.164633,0.22496943,0.0035626914,1.2918125,1.74735,-5.1297126
606,1715699478.5620685,1.1087614,0.12079511,-0.064938836,1.176725,1.74845,-5.3406377
607,1715699478.5829606,1.0996941,-0.003058104,0.073593274,0.9700625,1.7964375,-5.53245
608,1715699478.5986478,1.2405658,0.047293577,0.16707952,1.1809875,1.758075,-5.6655498
609,1715699478.621796,0.9760397,0.6011162,0.077263,2.12905,0.9175375,-6.10665
610,1715699478.6375785,0.81120795,0.8900153,-0.1169266,2.2196624,0.81633747,-5.7752748
611,1715699478.6653855,0.6662538,1.7344496,-0.6683028,1.18745,1.3041875,-4.3223124
612,1715699478.682891,0.73414373,1.698165,-0.66655964,-0.1942875,1.7985,-3.0866
613,1715699478.6999393,0.53200305,1.5448471,-0.38490826,-0.4829,1.404425,-2.6412375
614,1715699478.7156987,0.31701833,1.4515749,-0.14862385,-0.53295,0.60005,-1.8594124
615,1715699478.7319107,0.4108104,0.87105507,-0.070030585,-0.5372125,-0.2138125,-0.058025
616,1715699478.7480564,0.4108104,0.87105507,-0.070030585,-0.7332875,-0.047575,0.7143125
617,1715699478.7784274,0.44444954,0.07737003,0.12212538,-1.3745875,1.1114125,1.846625
618,1715699478.8627615,0.52863914,-1.225795,-0.11253823,1.1937749,0.5957875,3.416875
619,1715699478.8789718,0.43516818,-1.0540215,-0.5118196,1.3844875,1.063425,3.13775
620,1715699478.8992248,0.24801223,-0.97542816,-0.7556575,1.2395625,0.4307875,3.332725
621,1715699478.9112663,0.28970948,-0.8311927,-0.8568807,1.1320375,-0.039049998,3.6278
622,1715699478.9194152,0.38389906,-0.74525994,-0.9103976,0.95411247,-0.6281,3.8674624
623,1715699478.9272928,0.44515288,-0.6108104,-0.8271101,0.672925,-1.1033,4.0709624
624,1715699478.9667943,0.8993883,0.056574922,-0.54139143,0.4140125,-0.9700625,4.7942123
625,1715699478.9822705,1.2117279,0.25351682,-0.6487309,0.38953748,-0.9307375,4.4831877
626,1715699479.0115955,0.9594342,0.56788987,-0.42396024,0.1348875,-1.42065,2.3942876
627,1715699479.0272586,0.52671254,0.5586086,-0.23506117,0.2116125,-1.6082,2.2056375
628,1715699479.0520964,0.861055,1.1518807,-0.16574924,1.044725,-1.8660125,3.5575376
629,1715699479.0680964,3.006315,1.9858258,-1.1768655,0.401225,-0.605825,3.9334624
630,1715699479.0836399,3.9307797,2.366055,-1.4690061,-0.41799998,-0.315975,3.3125124
631,1715699479.100327,4.19633,2.6094801,-1.3676912,-1.8379625,-0.181775,1.9980125
632,1715699479.116534,3.1212997,2.4073396,-0.6167125,-3.340975,0.29645,0.7803125
633,1715699479.132148,2.34974,2.087355,0.13577981,-3.7351875,0.7673875,0.5566
634,1715699479.1537013,1.8872631,1.7440368,0.7223242,-3.29945,0.9207,0.5704875
635,1715699479.251322,0.17665137,0.36992353,-0.5137615,-0.3465,1.148675,-0.9411875
636,1715699479.2675636,-0.09143731,0.1108104,-0.29969418,-0.608575,1.2967625,-0.986975
637,1715699479.2830348,-0.14995413,0.024159022,-0.1683945,-0.8185375,1.3862749,-1.050775
638,1715699479.3012743,-0.11406728,-0.18318042,0.3374159,-0.4723125,1.00815,-1.21275
639,1715699479.3173738,-0.077263,-0.2251835,0.4272171,0.3031875,0.8078125,-1.388475
640,1715699479.3409772,-0.060657494,-0.113868505,0.34250763,1.1235125,0.6139375,-1.1925375
641,1715699479.3566587,0.51498467,0.346789,0.027721712,1.3952125,0.527725,-0.985875
642,1715699479.3723044,0.51498467,0.346789,0.027721712,1.769075,0.3592875,-0.582175
643,1715699479.4029229,1.7333335,0.8544342,-0.9032569,0.4662625,-0.30965,-1.3076249
644,1715699479.4185362,1.2549388,0.78848624,-0.7231346,-1.4554375,0.7918625,-1.34915
645,1715699479.4355674,1.0875688,0.72701836,-0.49133027,-1.8709625,1.0912,-1.271325
646,1715699479.4442174,0.8432264,0.67625386,0.026712537,-2.6112626,1.7271374,-0.8111125
647,1715699479.459977,0.9864373,0.7264985,1.0568807,-2.0040624,1.3404875,-0.1038125
648,1715699479.4756508,1.2495413,0.7370031,1.3833792,-1.063425,0.9527375,0.1508375
649,1715699479.5150821,2.2101986,0.63527524,1.2489297,1.954425,0.4222625,-0.2061125
650,1715699479.5308452,2.009373,0.4890979,0.5038685,3.2157125,0.374275,-0.7610625
651,1715699479.6172535,0.75096333,0.3909327,0.32007644,-1.7697625,0.3614875,0.2987875
652,1715699479.6334486,0.7729817,0.40244648,0.41009176,-1.6674625,0.30827498,0.30305
653,1715699479.6541548,1.0431193,0.5237462,0.67074925,0.54505,-0.495,0.127325
654,1715699479.6698368,1.0613608,0.5264067,0.6215138,0.54505,-0.495,0.127325
655,1715699479.6852305,1.1271101,0.548318,0.25974005,1.1479875,-0.758175,-0.0963875
656,1715699479.701052,0.80316514,0.5742049,-0.20795108,0.9103875,-0.5951,-0.2838
657,1715699479.7166271,0.7175382,0.55493885,-0.27022937,0.54395,-0.3287625,-0.1848
658,1715699479.7322931,0.687263,0.5491285,-0.09521407,-0.12705,0.0823625,-0.082499996
