id,timestamp,acc_x,acc_y,acc_z,gyro_x,gyro_y,gyro_z
0,1715699553.1704743,1.0018349,-0.5614679,-0.048119266,-0.6554625,0.3689125,1.3567125
1,1715699553.1859274,0.9608563,-0.51834863,-0.035366975,-0.5894625,0.0099,1.107425
2,1715699553.2035186,0.9486239,-0.50876147,-0.017844036,-0.5787375,-0.0358875,1.087075
3,1715699553.2130516,0.95402145,-0.4963303,0.0037767584,-0.542575,-0.0572,1.071125
4,1715699553.2284849,0.97359324,-0.47197247,0.0037767584,-0.5053125,-0.0455125,1.0296
5,1715699553.2455482,0.9862385,-0.4413914,-0.048623852,-0.5064125,0.0897875,0.8954
6,1715699553.3524299,1.0457644,-0.38215598,0.07940367,-0.46805,0.2347125,0.3425125
7,1715699553.3776078,1.0636086,-0.34842506,0.068195716,-0.4052125,0.2102375,0.2657875
8,1715699553.393234,1.0406728,-0.33986238,0.06891437,-0.1463,0.1144,-0.1293875
9,1715699553.4121659,0.95891434,-0.33302754,0.08501529,0.1711875,-0.117837496,-0.3584625
10,1715699553.4284098,0.96911323,-0.33700308,0.07013761,0.1711875,-0.117837496,-0.3584625
11,1715699553.444078,0.99215597,-0.34087157,0.05474006,0.3298625,-0.2915,-0.4426125
12,1715699553.4596663,1.0235474,-0.33914372,0.038944952,0.3639625,-0.3245,-0.4648875
13,1715699553.4805827,1.4567738,-0.28715596,-0.06594801,0.2233,-0.453475,-0.91135
14,1715699553.4987595,2.1111162,-0.10386851,0.13628441,0.0358875,-0.7921375,-1.9776624
15,1715699553.5225081,2.2273242,0.03149847,0.62120795,0.555775,-0.384175,-3.74495
16,1715699553.538445,2.4813457,0.11885321,0.470841,0.8262375,0.1942875,-4.340325
17,1715699553.5539765,2.7486238,0.11172783,0.19633028,0.775225,0.9356875,-5.099875
18,1715699553.5786686,3.0814526,0.14862385,0.25270644,0.1903,1.91565,-6.5945
19,1715699553.5955274,3.1563761,0.093685016,0.4689144,0.2734875,2.2097626,-7.3913126
20,1715699553.6118085,3.2974463,0.06024465,0.37573397,0.4481125,2.516525,-8.4502
21,1715699553.6323771,3.1365902,0.04169725,0.29683486,0.503525,2.62625,-8.73785
22,1715699553.7213616,2.0274158,-1.0479052,-0.82007647,2.8609624,0.713075,-9.61455
23,1715699553.7294216,1.8597401,-0.99347097,-0.89918965,2.7075124,0.6747125,-9.532462
24,1715699553.7450588,1.8597401,-0.99347097,-0.89918965,1.5197875,0.56168747,-8.789963
25,1715699553.7537975,1.235474,-0.54587156,-0.7427064,0.5567375,0.7524,-8.151825
26,1715699553.761659,0.8617737,-0.5085627,-0.470841,-0.036575,0.9835375,-7.5840874
27,1715699553.7859616,0.5764526,-0.47655964,-0.29847094,-0.1313125,1.0016875,-7.2452874
28,1715699553.8156478,-0.94903666,-0.16463304,0.25412843,0.774125,-0.1689875,-3.8493125
29,1715699553.8311803,-0.9199847,-0.14148319,0.13383792,1.1693,-0.5578375,-1.980825
30,1715699553.8527067,-0.43475536,-0.22885323,-0.1972477,1.161875,-0.639925,-0.30195
31,1715699553.8682058,-0.20509173,-0.30061162,-0.40244648,0.8977375,-0.4885375,0.3265625
32,1715699553.8838303,-0.021406727,-0.40386853,-0.49694186,0.4747875,-0.2233,0.936925
33,1715699553.9001267,0.26747707,-0.624266,-0.40856272,-0.63635,0.678975,1.9383374
34,1715699553.9196854,0.22457187,-0.80478597,-0.0017278286,-1.0346875,1.2573,2.56575
35,1715699553.9352524,0.43811926,-0.96197253,0.41284403,-0.981475,1.24245,2.7649875
36,1715699553.9517896,0.77931195,-1.002951,0.4298624,0.5141125,0.044,3.4936
37,1715699553.9694457,0.88613147,-1.0366973,0.0579052,1.5389,-0.4981625,3.3433125
38,1715699553.9936304,0.4803211,-1.0205964,-0.2975535,1.431375,-0.336325,3.585175
39,1715699554.0161078,0.43252292,-1.011315,-0.33730888,1.331275,-0.3256,3.9208124
40,1715699554.0958507,0.934052,-0.8150917,-0.53894496,0.488675,-0.5812125,4.8316126
41,1715699554.116797,0.33536696,-0.8572936,-0.23383792,0.8944375,-1.482525,4.7185874
42,1715699554.1446455,0.670948,-0.9905198,-0.7642202,1.1544499,-1.65935,6.0033875
43,1715699554.1755235,2.0085626,-0.8719725,-1.133945,-0.8652875,-1.2161875,7.954925
44,1715699554.1921666,3.6032567,-0.19541284,-0.9640214,-2.4525876,-0.7079875,9.106487
45,1715699554.2162848,5.2235475,0.43608564,-0.6152905,-4.1826124,0.6171,8.325625
46,1715699554.2335873,5.913043,1.0132569,-0.2091743,-4.2975626,0.8014875,8.109338
47,1715699554.245502,5.6216054,1.421101,0.72691137,-4.5010624,0.9505375,6.6638
48,1715699554.2584715,5.6475077,1.6358868,1.3892967,-3.7841375,0.40301248,5.8201
49,1715699554.2773292,5.2205963,2.0381193,1.6382264,-1.4991624,0.0237875,3.6672626
50,1715699554.2931054,4.6070337,2.146682,0.9424006,0.51205,-0.1860375,1.525975
51,1715699554.3164108,3.3326147,2.0376146,-0.14964832,0.5993625,-0.420475,0.117699996
52,1715699554.3353987,2.3425076,1.8923547,-0.6382263,-0.2486,-0.116875,-0.33495
53,1715699554.368626,1.027523,1.4762539,-0.15087156,-3.4304874,1.8101875,-0.7227
54,1715699554.3847566,0.9312997,1.4196789,1.3163149,-2.4270124,1.1264,-1.3363625
55,1715699554.4798622,-0.13730888,0.9122324,0.58848625,1.2769625,0.7236625,-3.903625
56,1715699554.5004928,1.8180429,0.6738073,0.7715596,2.848175,1.0912,-5.0040374
57,1715699554.5249026,2.592156,0.6359786,0.21662079,2.87265,1.2029876,-6.316475
58,1715699554.554962,2.2480123,0.31987768,-0.1683945,1.3386999,1.8198125,-7.8643126
59,1715699554.5850697,2.643425,0.16931193,0.19897553,0.9018625,1.9135875,-7.9292126
60,1715699554.6007524,2.6411774,0.13781345,0.11753823,1.280125,1.2265,-8.406475
61,1715699554.6265187,2.3439298,0.19255352,-0.22110093,1.3398,1.1103125,-8.654662
62,1715699554.6437232,1.6449542,0.44515288,-0.34923548,0.9477875,1.2904375,-8.426687
63,1715699554.6592438,1.0826759,0.5647248,-0.2443425,0.57805,1.2711875,-7.7279124
64,1715699554.6748352,0.6382263,0.48298168,-0.035366975,0.537625,0.8941625,-6.3707876
65,1715699554.690443,0.34607035,0.3055046,0.031391438,0.7101875,0.60115,-5.8807373
66,1715699554.7168703,-0.75178903,0.1579052,-0.4593272,0.5248375,-0.013475,-3.1920624
67,1715699554.7398467,-0.53833336,-0.182263,-0.49062693,-1.24355,0.74181247,-0.3179
68,1715699554.7640026,-0.031085629,-0.7152905,-0.001529052,-2.332275,1.843325,1.444025
69,1715699554.8722317,0.7614679,-1.4779817,-0.022522936,2.072675,-0.5344625,3.8291
70,1715699554.8936543,0.50152904,-1.361055,-0.5545413,2.0332124,0.23155,4.241325
71,1715699554.9171886,0.5193731,-1.2180429,-0.5160092,1.5112625,-0.198825,4.802737
72,1715699554.9328048,0.7795107,-1.1030581,-0.43496943,1.9905875,-1.6017375,4.8741
73,1715699554.9483833,0.7409786,-1.0498471,-0.52863914,2.39965,-2.079,4.899675
74,1715699554.9663153,0.59816515,-0.9530122,-1.2944953,2.377375,-2.0374749,5.3024125
75,1715699554.9819174,0.72507644,-0.8614679,-1.8204893,0.8881125,-1.499575,6.2717876
76,1715699554.9994583,1.5866514,-0.84628445,-1.7972476,-1.266925,-1.05105,6.98335
77,1715699555.017224,1.9570796,-0.8087615,-1.6198777,-2.314125,-0.8327,7.0580125
78,1715699555.032955,2.5379205,-0.5451529,-0.6790061,-3.4177,-1.0329,7.3019376
79,1715699555.0540876,3.309373,-0.2620795,0.0991896,-3.0256875,-1.4729,7.733275
80,1715699555.0709474,3.7313912,-0.12120795,0.18440367,-2.177725,-1.0894125,7.7545877
81,1715699555.0877814,4.7764525,0.5071407,-0.47940364,-1.8528125,-0.5259375,7.129375
82,1715699555.1175988,5.2370033,1.3428135,-0.65463305,-2.6305125,0.037675,6.4252377
83,1715699555.1487787,5.190107,2.064419,0.40448013,-2.887225,1.1231,4.0027623
84,1715699555.2340987,4.8118196,2.0712538,0.6202905,-2.887225,1.1231,4.0027623
85,1715699555.2500327,0.04056575,1.4391438,-0.8439297,0.5930375,0.73755,-1.439625
86,1715699555.2660928,-0.32568806,1.3144802,-0.38715595,-1.215775,1.9476875,-1.5621375
87,1715699555.2837236,-0.3855199,1.1143731,0.58704895,-1.5269375,2.229975,-2.0075
88,1715699555.2993274,-0.3303823,1.0562692,0.97166663,-0.962225,2.0125875,-2.2983124
89,1715699555.311302,-0.041896023,0.75749236,1.2028594,1.009525,1.1966625,-3.0982876
90,1715699555.324462,0.01998471,0.65668195,1.0583028,1.49105,0.9548,-3.3155375
91,1715699555.3435805,0.06269113,0.522737,0.5765596,2.7193375,0.4445375,-4.0079875
92,1715699555.3692815,0.8937767,0.82466364,-0.026192661,2.1418376,-0.0422125,-4.6354
93,1715699555.3940141,1.8033638,0.9673853,-0.05810398,1.2716,0.36355,-5.3139625
94,1715699555.4211497,2.2470949,0.9024465,-0.09469419,0.055,1.4235375,-6.755375
95,1715699555.4387815,2.0269113,1.0135627,0.3764526,-0.2410375,1.81775,-7.2122874
96,1715699555.4586792,3.2683945,1.6056117,0.17512232,0.5077875,1.7430875,-7.073825
97,1715699555.4746401,3.4056115,1.6110092,-0.0039755353,0.9114875,1.1103125,-7.5180874
98,1715699555.4902806,2.990214,1.693685,-0.57818043,0.080575,0.864325,-7.8376374
99,1715699555.5187047,1.9980581,1.6446483,-0.08766055,-1.0954624,1.24465,-5.9585624
100,1715699555.65644,0.50152904,-1.1669725,-0.224052,-1.977525,3.5338874,0.312675
101,1715699555.6842885,0.5461774,-1.4330275,0.56830275,-0.2921875,2.3535874,0.06875
102,1715699555.699889,0.43394494,-1.5135627,0.6251835,1.5805625,0.8845375,-0.055825
103,1715699555.7193592,-0.108761474,-1.5784863,0.29561162,3.17515,-0.0231,0.1997875
104,1715699555.7445002,-0.64617735,-1.4608562,-0.5897095,3.672625,-0.24255,2.2248874
105,1715699555.7601466,-0.43038225,-1.3873547,-0.7795107,3.2177749,-0.2382875,2.9992874
106,1715699555.7768009,0.38001528,-1.2422019,-1.0784862,1.9789,-0.907225,3.7727249
107,1715699555.7980435,0.7712538,-1.1011162,-0.6487309,0.164725,-0.3639625,3.51175
108,1715699555.8147092,0.37931195,-1.0881804,-0.38073394,-0.017324999,-0.03795,3.5138125
109,1715699555.8298423,0.06350153,-1.1067278,-0.1888838,0.064625,0.0834625,3.8493125
110,1715699555.8441534,0.0038685016,-1.2301682,-0.31579512,0.519475,-0.504625,5.003075
111,1715699555.858482,0.50642204,-1.2738991,-0.58134556,0.57805,-0.91465,5.50055
112,1715699555.8765411,1.3081498,-1.2938838,-0.9284404,0.333025,-1.5687375,5.87125
113,1715699555.893457,1.2474006,-1.1702294,-1.1146789,-0.23155,-2.341075,6.71385
114,1715699555.9194472,1.2986697,-1.1230428,-1.2230428,-0.76835,-2.4710126,7.9442
115,1715699556.004008,4.3942966,2.6670794,0.9966361,-1.4724874,-0.9274375,4.2733626
116,1715699556.0274186,3.9668653,2.550153,0.44790518,0.012375,-1.1075625,3.40835
117,1715699556.043095,3.3748167,2.4085627,-0.24331804,-0.1335125,-0.61215,1.9724375
118,1715699556.06604,2.7204893,2.3021407,-0.26555046,-0.6554625,-0.1254,1.3013
119,1715699556.0817835,1.1299695,1.8907187,0.3930734,-1.8209125,1.0176375,0.30635
120,1715699556.0972643,0.9310856,1.8377218,0.70642203,-1.4394875,1.2893375,-0.4521
121,1715699556.120178,0.52763,1.7344496,1.0,-1.1380875,1.369225,-0.77385
122,1715699556.1427648,-0.20030582,1.3790978,0.9150918,0.4577375,1.5013624,-1.9413625
123,1715699556.1582425,-0.2204893,1.2924618,0.75616205,0.7368625,1.5269375,-2.1267126
124,1715699556.1776373,0.107140675,1.1368043,0.6278288,1.008425,1.8997,-2.6327126
125,1715699556.1946344,0.6230428,0.99674314,0.67125386,1.4004375,1.9668,-3.4860375
126,1715699556.2204537,0.8475993,0.88490826,0.80285937,2.0609875,1.4917375,-4.3894124
127,1715699556.243153,1.530474,0.6018349,0.26463303,2.77365,1.1284626,-5.3343124
128,1715699556.25864,1.6332264,0.42048928,-0.13425076,2.6745124,1.2254,-6.3036876
129,1715699556.274267,1.7340521,0.4124312,-0.2553517,1.9309125,1.150875,-6.9779873
130,1715699556.2900684,1.9544342,0.5171254,-0.30683485,1.6295125,1.0943625,-7.1218123
131,1715699556.4005857,1.0211009,1.127523,0.04475535,0.5493125,0.0994125,-6.6584373
132,1715699556.4215915,0.52721715,0.66360855,-0.5579052,0.1254,0.0132,-3.8141124
133,1715699556.437179,0.49102446,0.5108104,-0.78634554,-0.4158,0.13035,-3.1046126
134,1715699556.453703,0.32212538,0.12415902,-0.7346636,-2.143625,0.914375,-1.8594124
135,1715699556.4770908,0.013654435,-0.41120797,0.0025535168,-3.1450374,2.449425,-0.614075
136,1715699556.492731,-0.3745107,-0.86024463,0.783792,-2.516525,2.92985,0.5715875
137,1715699556.5218954,-0.09093272,-1.2217126,0.72304285,0.2638625,1.115675,2.49755
138,1715699556.5375416,0.29143733,-1.2690061,0.41448012,1.0979375,0.271975,2.843775
139,1715699556.5631137,0.770948,-1.41763,-0.5071407,1.8788,-0.790075,3.0749125
140,1715699556.5786629,0.76269114,-1.4645259,-0.582156,1.7114625,-0.37675,3.128125
141,1715699556.606422,0.2653364,-1.743425,-0.5648318,1.5549875,-0.1263625,3.8887749
142,1715699556.6221082,0.24016818,-1.7890978,-0.5281346,1.6412,-0.8710625,4.460775
143,1715699556.6413476,0.8805351,-1.7046943,-0.57380736,2.1153,-3.116575,5.4718122
144,1715699556.6589873,1.0091743,-1.5819572,-0.8738073,1.8671125,-2.0343125,6.0374875
145,1715699556.7541227,1.3333334,-1.2819571,-1.1461774,-0.46805,-1.474,7.597975
146,1715699556.7694306,2.5074465,-0.18470947,-0.3470948,-0.6884625,-2.6329875,8.356563
147,1715699556.7940693,5.522523,1.2541285,-1.4487308,-1.7612375,-1.2225125,8.525825
148,1715699556.8228827,5.291636,1.9521866,-0.79082566,-4.775925,-0.15619999,5.761525
149,1715699556.8384502,4.6092815,1.9390367,-0.20041285,-5.2424626,0.087725,5.1319127
150,1715699556.854132,3.7006116,2.0012233,0.8830734,-5.1583123,0.80465,4.4576125
151,1715699556.8696258,3.6676912,2.0029511,1.036896,-4.95275,0.9164375,4.2733626
152,1715699556.8913112,3.5944953,1.9231347,1.353211,-3.4742124,1.2478125,2.6136
153,1715699556.9012725,3.4478135,1.9250764,1.4341438,-1.808125,0.9686875,0.6578
154,1715699556.916317,3.040474,1.8867432,1.3851223,-0.9112125,0.8259625,-0.2913625
155,1715699556.953357,1.2591285,1.4296637,0.25392964,0.486475,1.7217749,-1.675025
156,1715699556.9689784,1.004786,1.3459786,0.12487768,0.1934625,2.2416625,-1.6473875
157,1715699556.9940243,1.1551529,1.1688074,0.5233486,-0.0908875,2.4855876,-2.0032375
158,1715699557.0233738,1.1043884,0.8780887,1.0432264,1.500675,2.2587125,-4.002625
159,1715699557.043383,1.1314985,0.34851682,0.9824618,3.3402874,2.3610125,-4.9039373
160,1715699557.154366,2.462997,-0.28888378,0.00081039756,0.3927,2.2405624,-8.101775
161,1715699557.1702323,2.244847,-0.5119266,0.26880732,0.9103875,1.4629999,-8.658925
162,1715699557.185795,1.9537156,-0.54974,0.28246176,1.244925,1.3041875,-8.73565
163,1715699557.2013865,1.2727829,-0.30845568,0.11651376,1.5442625,1.1455125,-8.605713
164,1715699557.222789,0.9788991,-0.10978593,0.009587156,1.871375,0.8237625,-7.7864876
165,1715699557.2387774,0.43516818,0.48022935,-0.36931193,1.6784625,0.3359125,-5.86795
166,1715699557.2834883,0.4542355,0.5495413,-0.86055046,0.5055875,0.575575,-4.359575
167,1715699557.3005269,-0.2617737,0.23547402,-0.79735476,-2.0307374,1.8390625,-2.39415
168,1715699557.323357,-0.8219113,-0.11345565,0.017431192,-2.93095,2.076525,-0.3499375
169,1715699557.3388603,-0.7203823,-0.31059632,0.5692202,-2.8094,1.8379625,0.4874375
170,1715699557.3545866,-0.63444954,-0.4079511,0.69571865,-1.9434249,1.00705,1.738
171,1715699557.3702137,-0.28665137,-0.65738535,0.6575994,-0.3944875,-0.013475,3.0163374
172,1715699557.3857195,-0.1285474,-0.75240064,0.37155965,0.34485,-0.34375,3.7417874
173,1715699557.4075854,0.217737,-0.8648318,-0.09377676,0.61105,-0.4800125,4.4149876
174,1715699557.4233978,0.83129966,-1.0032569,-0.5337462,-0.078099996,0.09625,5.3450375
175,1715699557.5274782,0.5687003,-0.8563762,-0.5491285,2.7097125,-1.6869875,4.7526875
176,1715699557.5450807,0.6165138,-0.7697248,-1.8439296,1.8436,-0.95301247,4.9945498
177,1715699557.5736666,0.48103976,-0.7681957,-1.801942,-2.3727,0.375375,5.1788
178,1715699557.5985117,0.6840979,-0.70203364,-0.6373089,-3.1812,-0.73149997,5.3673124
179,1715699557.6252224,1.6366973,0.04637615,-0.02151376,-1.7686625,-3.37865,5.26185
180,1715699557.640242,3.1232417,1.1089755,-0.9732875,-1.2882375,-3.4414876,5.0807624
181,1715699557.655618,3.2891898,1.2148777,-0.9781804,-1.6685625,-3.0900376,4.9658127
182,1715699557.6712158,3.2157032,1.2824618,-0.26463303,-2.7072375,-2.1269875,4.85815
183,1715699557.6870196,3.2745106,1.2087615,0.19704893,-2.5889876,-2.104575,5.272575
184,1715699557.7026956,4.8940825,1.492156,0.4032569,-1.84855,-1.9223875,4.9115
185,1715699557.724067,5.1181498,1.6393425,0.4259939,-1.5940375,-0.94985,2.6978874
186,1715699557.7558656,2.8899083,1.4237461,0.80478597,-0.796125,-0.2607,1.0594375
187,1715699557.782894,2.3409786,1.3059174,0.15626912,-0.2762375,0.253825,1.0253375
188,1715699557.8084002,1.8313913,1.2622783,-0.15821101,-0.5872625,1.0432125,0.3702875
189,1715699557.9291768,0.47717127,1.1634098,1.312844,1.330175,1.7314,-2.9277875
190,1715699557.9453928,0.5372019,0.90906733,1.0873547,2.259125,1.6281375,-3.6139126
191,1715699557.9600027,0.5151835,0.89051986,1.0519878,2.411475,1.6120499,-3.7268
192,1715699557.9680288,0.9186544,0.8988838,0.5094801,3.20925,1.84855,-4.2700624
193,1715699557.9760098,1.4145719,0.95402145,0.33475536,3.20925,1.84855,-4.2700624
194,1715699557.9924173,2.0815444,1.0200764,0.18532111,2.933425,1.9487875,-5.0765
195,1715699558.0079257,2.771055,1.0162079,0.035474006,2.6511376,1.8858125,-5.9318876
196,1715699558.027855,2.595107,0.575948,0.08868502,1.787225,1.7463875,-8.349
197,1715699558.0435445,2.3168194,0.47542816,0.15585627,1.7829624,1.8453875,-8.5151
198,1715699558.0708964,2.4976604,0.43047398,-0.22090214,2.1621876,1.1636626,-8.507675
199,1715699558.0870748,2.2514832,0.48490828,-0.5293578,2.0823,-0.22013749,-8.694125
200,1715699558.1088796,1.3401682,0.7797095,-1.0731957,-0.0067375,0.3817,-7.7290125
201,1715699558.1348853,0.8642202,0.6779817,-0.5472018,-1.27435,1.083775,-6.1534
202,1715699558.1653454,-0.26911315,0.68481654,-0.21284403,-1.066725,0.5564625,-3.60855
203,1715699558.1810038,0.32507646,0.30041283,-0.50152904,-1.859275,-0.0848375,-0.8804125
204,1715699558.3781924,0.3182416,-1.1501529,-0.84740067,1.2395625,-0.7591375,4.8763
205,1715699558.4071493,0.4470948,-1.1028594,-0.61509174,0.619575,-0.6697625,6.0608625
206,1715699558.4254668,1.056575,-0.98053515,-0.6030581,0.537625,-0.74965,5.9565
207,1715699558.4411116,1.1299695,-0.9280275,-0.6272171,0.5174125,-0.7954375,5.8829374
208,1715699558.456597,1.0362844,-0.71039754,-0.64607036,0.17545,-1.162975,5.1436
209,1715699558.483765,0.88298166,-0.65668195,-0.6282416,0.055,-1.3151875,5.1159625
210,1715699558.5005267,0.77737004,-0.4812385,-0.42099386,-0.0408375,-1.785025,5.559125
211,1715699558.5097148,1.6141742,0.34923548,-0.13425076,0.594,-2.643575,6.6754875
212,1715699558.537021,4.0186543,1.9733945,-1.574419,-0.02695,-0.8316,6.468825
213,1715699558.55338,4.174618,2.1368961,-1.7020336,-2.2353375,-0.688875,5.186225
214,1715699558.5752037,4.8410854,2.7775688,-2.2802293,-4.6022625,-0.5302,3.9623375
215,1715699558.6709545,1.6693119,1.3300765,1.0688074,0.7005625,0.19525,-1.5291375
216,1715699558.6873941,1.0982722,1.1497401,0.46013764,1.4174875,-0.0666875,-1.8742625
217,1715699558.7030163,0.27237004,0.90906733,-0.52619267,1.108525,0.09515,-1.81995
218,1715699558.7261965,0.21009174,0.86024463,-0.5130428,0.0891,0.7396125,-1.6218125
219,1715699558.7418466,0.11325688,0.7525994,-0.2525994,-1.0454125,1.705825,-1.51855
220,1715699558.7693663,0.2625841,0.5232416,0.5196789,-1.5151125,2.9799,-1.860375
221,1715699558.8005092,0.5477064,0.4283333,0.7944954,-0.90475,3.037375,-2.3887875
222,1715699558.8264668,1.1714526,0.30019876,0.71784407,1.3398,2.75935,-3.80875
223,1715699558.842112,1.3554587,0.3853211,0.29805812,2.1674125,2.6742375,-4.5758624
224,1715699558.865925,1.8518807,0.7748165,0.2,2.0865624,1.95195,-5.63145
225,1715699558.8972914,2.6007187,1.1518807,-0.048119266,1.8222874,2.1916125,-7.0769873
226,1715699558.9266615,2.8752294,1.201942,-0.18185015,1.5602125,2.278925,-7.59055
227,1715699558.9494445,2.5733945,1.1184556,-0.27166665,1.2045,1.5769875,-8.5162
228,1715699559.0419898,-0.5592202,0.224052,-0.18409786,0.6238375,1.184975,-5.5089374
229,1715699559.054957,-1.0901071,-0.19857799,-0.44006118,-0.1463,1.3607,-1.661275
230,1715699559.0831826,-0.99613154,-0.30255353,0.13333334,-0.7844375,1.41295,0.078375
231,1715699559.1026764,-0.39847094,-0.40285933,0.2656422,-0.610775,0.323125,3.9325
232,1715699559.1271336,0.7016361,-0.57441896,0.073287465,0.10835,-0.087037496,4.8868876
233,1715699559.1559436,1.2661622,-0.61304283,-0.062798165,0.38747498,0.1420375,4.4097624
234,1715699559.1812418,1.1954129,-0.640367,-0.053211007,0.6516125,0.676775,3.7087874
235,1715699559.1972444,1.064633,-0.6932722,-0.04301223,0.81345,0.7077125,3.4137125
236,1715699559.227332,0.93444955,-0.743318,-0.07053517,1.28975,-0.28187498,2.7809374
237,1715699559.2429576,0.32925078,-0.7506575,-0.1316055,1.9118,-1.4078625,2.659525
238,1715699559.2583964,0.029556574,-0.7431193,-0.7224312,2.0950875,-1.6273125,3.1527374
239,1715699559.2741563,0.057079513,-0.735474,-0.7763456,1.753125,-1.2023,4.2361
240,1715699559.2970293,0.9906269,-0.6654434,-1.1983639,-0.1857625,-0.24887499,5.1404376
241,1715699559.3273668,1.2913303,-0.554633,-0.9853211,-1.2733876,-0.5429875,4.52155
242,1715699559.4375012,2.1254892,2.5620794,-1.5637156,-3.3708124,-1.1565125,2.287725
243,1715699559.455827,1.796529,2.33711,-0.6536239,-4.504225,-0.8540125,3.24005
244,1715699559.472814,3.3879662,2.1586087,1.0119265,-3.9791124,-2.0780375,4.0123873
245,1715699559.4927812,3.7280276,2.1996942,1.1293578,-2.598475,-1.2673374,2.218425
246,1715699559.5094926,2.732217,2.1481192,1.7214068,-0.4945875,-0.3724875,0.5438125
247,1715699559.5277176,1.9075383,1.8889908,1.2650305,1.3514875,0.0908875,0.094325
248,1715699559.5433204,1.6603518,1.6890979,0.72691137,2.1951876,0.341275,0.0325875
249,1715699559.5596576,1.2505658,1.245153,-0.38879204,2.2239249,0.5820375,-0.410575
250,1715699559.5919666,0.9086697,1.106529,-0.674419,1.2480875,0.9527375,-0.8952625
251,1715699559.6075974,0.6182416,1.0525993,-0.6416972,0.639925,1.20835,-1.0998625
252,1715699559.6280909,0.13444954,0.95545876,-0.2875688,-0.3614875,1.7996,-1.31395
253,1715699559.6564662,0.06350153,0.68603975,0.6416972,-0.4882625,2.0702,-1.8434625
254,1715699559.6722422,0.07522936,0.65963304,0.7015291,-0.3870625,2.0722625,-1.9009374
255,1715699559.6877537,0.29999998,0.44270644,0.79399085,0.5429875,2.0796876,-2.3579874
256,1715699559.7047908,0.6996942,0.27940366,0.39958715,1.5123625,2.210725,-3.2538
257,1715699559.7907794,0.7268043,0.23842508,0.113149844,1.5123625,2.210725,-3.2538
258,1715699559.8127046,1.8053058,1.0904129,0.48409784,1.7445999,1.3564374,-6.788375
259,1715699559.8444605,1.7508715,1.3164067,0.16605504,1.9640499,0.40094998,-6.5604
260,1715699559.8603978,1.7601376,1.3766514,-0.56555045,1.2023,0.491425,-6.4251
261,1715699559.8964977,0.43414372,0.9151835,-0.13180429,-0.1931875,1.301025,-4.367
262,1715699559.9128299,0.05810398,0.60377675,-0.16432722,-0.207075,1.3266,-3.1930249
263,1715699559.92865,-0.2251835,0.45585626,-0.15524465,-0.203775,1.065625,-2.552825
264,1715699559.9442863,-0.51457185,0.20958716,-0.23405199,-0.2602875,0.2805,-0.9037875
265,1715699559.9597304,-0.351789,-0.028440367,-0.3514832,-0.7887,0.36781248,0.4544375
266,1715699559.9755027,-0.25321102,-0.18368502,-0.23333332,-1.27765,0.8248625,1.1031625
267,1715699559.99098,-0.23781346,-0.44414374,0.078899086,-1.4214749,1.0102125,1.31505
268,1715699560.0131264,-0.26686546,-0.6635015,0.28490826,-1.3149124,1.3052875,2.556125
269,1715699560.0343862,-0.11773701,-0.8982722,0.322737,-0.4499,0.39985,3.5968626
270,1715699560.0498555,0.42396024,-1.0071408,0.21314985,0.521675,-0.6909375,4.3638372
271,1715699560.0761547,1.0718654,-0.9988838,-0.12446483,1.2673374,-1.3322375,4.2989373
272,1715699560.092893,1.284205,-0.9698318,-0.31977066,1.381325,-1.313125,3.925075
273,1715699560.1756818,0.1579052,-0.83995414,-0.09766056,1.209725,-0.301125,3.33905
274,1715699560.1956306,0.78542817,-0.5749236,-1.0355811,0.71335,-2.2782376,4.342525
275,1715699560.2133248,0.96380734,-0.33425075,-0.9501529,-0.742775,-0.9317,4.092275
276,1715699560.2291286,1.2515749,-0.19490826,-0.6534098,-1.2541375,-1.0808874,3.6672626
277,1715699560.2484064,1.2910244,0.15076452,0.0853211,-0.7865,-2.7395499,2.7414749
278,1715699560.2646117,1.2095872,0.49857798,0.38960245,0.2255,-3.5512125,2.7522
279,1715699560.2846646,1.951789,2.0673854,-1.5409786,1.9288499,-3.2967,3.8440874
280,1715699560.300171,3.0273242,2.732217,-2.8281345,1.3833874,-2.8237,4.074125
281,1715699560.3208115,3.2816513,2.5137615,-2.2851224,-3.3622875,-1.5346375,3.958075
282,1715699560.3472972,2.8864372,2.1888838,-0.56819576,-4.4328623,-1.4282125,3.5479126
283,1715699560.3634043,2.3022478,1.8396484,0.633945,-3.340975,-0.5737875,3.0226624
284,1715699560.3789122,1.961055,1.6626911,0.76380736,-2.650725,0.0727375,2.8458376
285,1715699560.4030733,1.5283333,1.3310857,0.55952597,-0.7162375,0.8441125,2.6712124
286,1715699560.4300206,1.593685,1.2751223,-0.44475535,-0.41799998,0.99,2.0895875
287,1715699560.4455526,1.3415902,1.2530122,-0.42588687,-1.1017874,1.150875,1.1936375
288,1715699560.461159,0.519159,1.1836851,0.02649847,-1.5599375,1.318075,0.6887375
289,1715699560.5726466,0.45668194,1.1784862,0.8606575,0.235125,1.8635374,-3.90995
290,1715699560.5886564,0.98521405,1.1521866,0.6255811,0.5737875,2.0829875,-4.28175
291,1715699560.6042445,1.4469879,1.1429205,0.51437306,0.689975,2.328975,-4.6514874
292,1715699560.615199,1.9180428,1.0911314,0.40478593,0.80396247,2.855325,-5.7550626
293,1715699560.6416955,2.3416972,0.8199847,0.1648318,0.9722625,2.6103,-7.665075
294,1715699560.6571503,2.3204894,0.75240064,-0.011207951,1.025475,2.4718375,-8.09325
295,1715699560.6874447,2.2787921,0.63211006,-0.34362385,1.15115,1.9135875,-8.83575
296,1715699560.7032025,1.446789,0.59377676,-0.47818044,0.9317,1.2573,-8.546038
297,1715699560.731043,0.75759935,0.8787921,-0.6035627,0.554675,1.2733876,-7.5169873
298,1715699560.7475812,0.7641131,0.89958715,-0.65382266,-0.0397375,1.10715,-5.90095
299,1715699560.7632668,0.3680887,0.61203367,-0.5652446,-0.56168747,1.0209374,-4.864475
300,1715699560.7788327,-0.72496945,0.6779817,-0.39032108,-0.678975,0.8845375,-4.276525
301,1715699560.7945564,-0.7647248,0.62527525,-0.39877677,-1.1668249,0.088825,-1.3619375
302,1715699560.8517005,0.2748165,-0.29989296,0.4584098,-1.758075,1.016675,2.4784374
303,1715699561.0252082,0.42151377,-0.71233946,-0.15698776,1.7562875,-0.24887499,3.71195
304,1715699561.0491183,0.29093271,-0.4795107,-1.0667738,1.5602125,-1.4430625,4.258375
305,1715699561.077724,0.3551529,-0.055045873,-0.967997,-1.6313,-0.5077875,5.9010873
306,1715699561.0934758,0.9689144,0.43068805,0.4701376,-1.2467124,-1.5101625,6.2942
307,1715699561.1090455,3.0809326,1.2314985,0.84475535,1.142625,-3.0985625,5.3163
308,1715699561.126289,3.5153978,1.7372018,0.2798165,1.9991125,-2.9195375,3.9100876
309,1715699561.1424465,2.5858257,2.4358869,-0.7714526,1.2992375,-0.24035,1.8679374
310,1715699561.1524158,2.0472019,2.4579053,-0.91987765,0.7591375,0.85469997,1.7092625
311,1715699561.1680527,1.4035627,2.4171255,-1.0760397,-0.5212625,0.2156,2.6349125
312,1715699561.1957173,2.2943885,2.0425076,-1.2530122,-1.68135,-1.0745625,2.8949249
313,1715699561.2113757,2.6946025,1.748425,-0.83007646,-3.105575,0.77055,1.7615125
314,1715699561.2335465,2.3675842,1.658104,-0.37105504,-3.4293876,1.368125,1.1105875
315,1715699561.3328695,1.1954129,1.6151835,-0.36738533,0.2957625,1.1551375,-2.3111
316,1715699561.348785,0.6714526,1.4906269,-0.15402141,0.082775,0.8430125,-2.990625
317,1715699561.364381,0.27798167,1.2568808,0.037721712,-0.02585,0.6799375,-3.1312876
318,1715699561.3801358,0.40509173,1.0636086,0.32762995,-0.0556875,0.89196247,-3.312375
319,1715699561.4068203,0.84270644,0.74750763,0.5077523,0.166925,1.2615625,-3.7907374
320,1715699561.4333112,1.2735015,0.4778746,0.5562691,0.503525,1.7782875,-4.476725
321,1715699561.456757,1.1607492,-0.009892967,0.4938838,1.6284125,1.4971,-5.9222627
322,1715699561.4725251,1.0243578,-0.11120795,0.15340978,2.3123374,1.4597,-5.8977876
323,1715699561.496622,1.2212996,-0.16738531,-0.09541284,2.189825,1.1721874,-5.926525
324,1715699561.5124428,1.2423089,-0.18154435,-0.15749235,2.189825,1.1721874,-5.926525
325,1715699561.5357454,1.0499542,-0.13444954,-0.23628439,1.79245,0.55,-6.0245624
326,1715699561.551397,0.5461774,-0.013348624,-0.34923548,1.2034,0.26565,-5.8179
327,1715699561.567035,0.18237004,0.12151377,-0.3243578,0.807125,0.3273875,-5.3224874
328,1715699561.5863051,-0.16463304,0.387263,-0.25821102,0.2979625,0.66825,-4.1710625
329,1715699561.6026776,-0.24759938,0.6259939,-0.11885321,-0.4200625,0.5212625,-2.3313124
330,1715699561.7173314,-0.36279815,-0.0023394495,0.15504587,0.03795,0.593725,1.1595374
331,1715699561.7343225,-0.61295104,-0.11946484,-0.12374618,0.501325,0.3135,2.7190626
332,1715699561.7499356,-0.5253823,-0.17787461,-0.37247708,0.420475,0.2261875,3.584075
333,1715699561.7653966,-0.49602446,-0.19102447,-0.43322632,0.3608,0.2028125,3.7972
334,1715699561.7858844,0.29429665,-0.53363913,-0.71732414,-1.1518375,-0.2723875,6.193
335,1715699561.8020191,1.5507644,-0.7455657,-0.13649847,-1.7612375,-0.54614997,7.0387626
336,1715699561.8176873,2.0472019,-0.6020336,0.18042813,-1.3959,0.0675125,6.4304624
337,1715699561.843739,2.0537157,-0.41946483,0.2761468,-0.643775,0.170775,5.338575
338,1715699561.8601468,1.89052,-0.33425075,0.28368503,0.117837496,-0.5930375,4.4928126
339,1715699561.8757803,1.2629969,-0.24250765,0.04506116,1.330175,-2.1184626,3.5382874
340,1715699561.891639,1.2629969,-0.24250765,0.04506116,1.9564875,-2.8502374,3.1612625
341,1715699561.907846,0.78704894,-0.17614679,-0.4066208,2.5988874,-3.3765874,3.1249626
342,1715699561.934536,0.943318,0.052905202,-1.0465902,2.005575,-2.3645875,3.6383874
343,1715699561.957142,1.361575,0.19571866,-1.44974,0.7198125,-2.0044749,3.6309624
344,1715699561.9835012,0.7031651,0.19766055,-1.1586086,-1.9434249,-1.7573875,3.4307625
345,1715699562.092632,3.3065288,2.4195719,0.009587156,-2.22255,-1.058475,4.295775
346,1715699562.1086507,3.9845107,2.5713608,-0.11426606,-2.8914876,0.677875,3.081375
347,1715699562.1346183,3.9153976,2.4510705,0.27197248,-2.8914876,0.677875,3.081375
348,1715699562.160764,2.5540214,1.935367,1.0712539,-0.948475,1.47895,-0.4224
349,1715699562.1768637,1.6913303,1.3972477,0.47992355,0.9189125,0.996325,-1.120075
350,1715699562.1927464,1.4042814,1.2397554,0.12894495,1.6977125,0.77165,-1.58345
351,1715699562.2084777,1.0777829,1.1053059,-0.14943424,1.700875,0.7205,-1.7688
352,1715699562.2181015,0.9062233,1.0545413,-0.2648318,1.6061375,0.762025,-1.8156875
353,1715699562.2438142,0.5457645,0.9166208,-0.6555504,-0.3146,1.7921749,-1.880725
354,1715699562.259424,0.5501529,0.8568807,-0.14383793,-1.805925,2.717825,-2.1682374
355,1715699562.2750466,0.6576911,0.7909327,0.3246636,-2.0318375,3.0364125,-2.4154625
356,1715699562.2907913,0.76655966,0.71631503,0.78206426,-1.8049625,3.2866626,-2.76375
357,1715699562.314499,1.140474,0.5314985,1.1769572,0.7954375,3.43695,-3.67565
358,1715699562.341143,1.6036696,0.41142204,0.6612691,2.3368125,3.0501626,-4.3616376
359,1715699562.356655,2.0139601,0.2845107,0.3166208,3.1614,2.4184875,-5.218125
360,1715699562.372406,2.0466821,0.23547402,0.20631498,3.234825,2.3482249,-5.337475
361,1715699562.457866,1.6332264,-0.19246177,-0.42029053,1.8159624,2.4206874,-6.5146127
362,1715699562.4861014,0.36441895,0.35331804,-0.036896024,2.1770375,0.4371125,-5.1777
363,1715699562.5144932,-0.0032568807,0.4656422,0.024266055,1.7051375,1.03895,-3.6234
364,1715699562.5397587,-0.32671255,0.406315,-0.031299695,1.5976125,1.2276,-2.49315
365,1715699562.5557835,-0.59418964,0.15249236,-0.08940367,1.5442625,0.93885,-0.6428125
366,1715699562.5733156,-0.9556574,-0.053623855,-0.38879204,1.4419625,0.8749125,-0.1859
367,1715699562.590628,-0.8953058,-0.21029052,-0.5618807,0.8721625,0.85676247,1.2373625
368,1715699562.6156862,-0.5721713,-0.42946485,-0.5289449,-0.3848625,1.1807125,3.57775
369,1715699562.6342783,-0.014984709,-0.6396483,-0.40203363,-1.167925,0.88989997,4.683525
370,1715699562.6536782,0.558211,-0.8812386,-0.21162081,-1.6248375,0.38279998,5.237375
371,1715699562.6693628,0.76269114,-0.9234404,-0.033746175,-1.6759875,0.0642125,5.3493
372,1715699562.6859162,1.1282415,-0.90438837,0.30010703,-1.1028875,-0.5429875,5.3823
373,1715699562.7022476,1.411422,-0.840474,0.3088685,-0.5053125,-0.622875,5.1596875
374,1715699562.7183654,1.5322171,-0.7118196,0.09602446,0.199925,-0.6303,4.4182873
375,1715699562.7385833,1.0189602,-0.5803211,-0.24362385,0.7326,-1.2673374,3.20595
376,1715699562.8377671,1.4865444,-0.039250765,-0.45004588,-2.2672374,-1.0478874,3.569225
377,1715699562.854628,1.3479053,0.3462844,-0.36686546,-2.5207875,-1.145925,2.9833374
378,1715699562.8792136,0.80906725,0.5598318,-0.70244646,-3.544475,0.6980875,3.384975
379,1715699562.8960052,1.8868501,1.058211,-0.023746178,-4.8345,0.5234625,4.08485
380,1715699562.9246182,3.9379203,1.87237,0.7085627,-3.323925,-1.89475,4.024075
381,1715699562.9451299,4.5446486,2.132003,0.67267585,-2.9437375,-1.243825,3.3594
382,1715699562.9605443,3.76922,2.0937767,0.53558105,-2.8499625,0.5564625,1.0668625
383,1715699562.9771574,2.0102906,1.7393425,0.72201836,-2.9469,0.8430125,0.4607625
384,1715699563.0024831,1.7144803,1.6566819,0.9101988,-2.8733375,0.7002875,0.1486375
385,1715699563.019601,1.603471,1.5238532,1.3672783,-1.7974,0.3955875,0.21573749
386,1715699563.036292,1.6115137,1.4389449,1.4444495,-0.5457375,0.2858625,0.03355
387,1715699563.0662336,1.6937768,1.1436238,0.8638073,1.6443624,0.004675,-1.1605
388,1715699563.0819764,1.1204894,0.99796635,0.49847096,2.1461,0.1687125,-1.85405
389,1715699563.0987275,0.5356728,0.9144801,-0.005611621,2.2825,0.46805,-2.0394
390,1715699563.1146626,0.41365442,0.90030587,-0.31437308,1.8936499,1.2467124,-2.016025
391,1715699563.1430132,0.36686546,0.9144801,-0.48298168,1.3492875,1.706925,-2.033075
392,1715699563.2275524,1.0884862,0.39582568,0.12558104,0.5600375,2.4633124,-4.0836124
393,1715699563.2433677,1.3591285,0.14515291,0.5289449,0.9189125,2.3918126,-4.492675
394,1715699563.2578697,1.5534098,-0.14444955,0.8123395,1.1160874,2.297075,-4.6418624
395,1715699563.2732208,1.5148777,-0.28328747,0.78623855,2.3964875,1.638725,-5.5163627
396,1715699563.2985249,1.311315,-0.41926607,0.698578,3.032425,1.1199375,-6.00215
397,1715699563.3246343,0.45637617,-0.113654435,0.46013764,3.31045,1.199825,-6.0011873
398,1715699563.343489,0.016314985,0.46218652,0.22221711,2.8598626,0.80575,-4.461875
399,1715699563.3591084,0.21376146,0.7259939,0.13119265,2.5328875,0.5713125,-3.8726876
400,1715699563.374727,0.41487768,0.9878746,-0.08012232,1.7455624,0.2336125,-3.2762125
401,1715699563.3903341,0.40316513,1.070841,-0.123042814,1.162975,0.1739375,-3.0195
402,1715699563.417573,-0.08062691,0.8146789,0.43669727,0.013475,0.6747125,-1.1669625
403,1715699563.4436085,-0.18440367,0.59521407,0.5360856,0.6846125,0.628925,-0.2998875
404,1715699563.4654005,-0.18562691,0.3711468,0.21662079,1.581525,0.1452,0.277475
405,1715699563.4855583,-0.25688076,0.15668197,-0.3831804,1.8148625,-0.434225,0.5545375
406,1715699563.691693,0.37267584,-0.18685015,-0.8388379,3.8121874,-3.3627,2.794825
407,1715699563.7071686,0.31212538,-0.09877676,-1.1892967,3.71745,-3.8121874,2.691425
408,1715699563.7233202,0.21651375,-0.061467893,-1.8250765,2.6489375,-3.0793126,2.808575
409,1715699563.7441447,0.27461776,-0.07828746,-2.011315,0.20845,-0.7090875,3.2027874
410,1715699563.7597477,0.5144802,-0.13466361,-1.7784863,-2.1500876,0.70125,3.3125124
411,1715699563.7753713,0.90030587,-0.23077981,-1.2139603,-3.3367126,0.66934997,3.07285
412,1715699563.791295,1.2043884,0.046070337,-0.033440366,-3.3836,-1.2566125,2.7542624
413,1715699563.7993994,1.2129511,0.56961775,0.39469418,-2.3769624,-2.510475,3.4211376
414,1715699563.8236227,3.3179357,1.4650307,-0.29438838,-0.9846375,-1.799875,4.734675
415,1715699563.8445466,4.5704436,2.0173242,-1.6591284,-1.936,-1.5516875,3.6650624
416,1715699563.8602686,4.31396,2.0073395,-1.420688,-4.1666627,-0.64515,2.4028125
417,1715699563.8757308,3.0894954,1.5365902,0.007951071,-5.063575,0.2091375,1.8849875
418,1715699563.8915143,3.0894954,1.5365902,0.007951071,-5.434275,0.7151375,1.595275
419,1715699563.9773784,1.3218195,1.1583028,0.009373089,0.8657,0.7077125,-0.6865375
420,1715699563.9938624,0.7121254,1.1321101,-0.22232415,0.1445125,1.68025,-0.6012875
421,1715699564.0093641,0.63108563,1.2097859,-0.29928133,-0.7737125,2.7902875,-0.6237
422,1715699564.0251334,0.605,1.3381193,-0.16747706,-1.1551375,3.241975,-0.8463125
423,1715699564.054868,1.8165139,1.7046943,0.69001526,-0.53405,3.3207624,-3.0514
424,1715699564.0706077,1.4643272,1.7696178,0.83964825,0.705925,3.2164,-5.0424
425,1715699564.0862331,0.85759944,1.6693119,0.9448471,1.211925,3.089625,-5.6709123
426,1715699564.1060333,0.60233945,1.2280275,1.1652446,2.6884,2.5069,-5.860525
427,1715699564.12257,1.3305811,0.55637616,0.7432263,3.9890125,1.3809125,-6.366525
428,1715699564.145283,1.490214,0.35607034,0.5585168,4.0722,1.2722875,-6.4773498
429,1715699564.1684294,2.06789,-0.8075382,-0.27879205,2.8843374,0.67045,-8.1103
430,1715699564.1840286,2.077171,-1.0359786,-0.1991896,2.310275,0.996325,-8.489525
431,1715699564.21291,0.7697248,-1.1319113,0.28318042,2.4465375,0.5297875,-8.97325
432,1715699564.2284563,0.116406724,-0.924159,0.2261009,2.6895,0.0642125,-8.759025
433,1715699564.2453763,-0.9570795,-0.53853214,-0.14383793,2.80665,-0.2883375,-7.5713
434,1715699564.260987,-1.7239602,0.37267584,-0.9850153,1.0894125,-0.1126125,-4.3371625
435,1715699564.3587425,-0.7932722,-0.3132569,0.60784405,0.0231,-0.00495,1.9298124
436,1715699564.3884008,-0.16004588,-0.51957184,-0.1459786,1.1715,-0.3799125,4.2125874
437,1715699564.4041648,0.39785933,-0.66524464,-0.6121254,0.4065875,-0.3213375,5.1756372
438,1715699564.4198096,0.6492355,-0.7294648,-0.7268043,-0.238975,-0.10615,5.5452375
439,1715699564.4453425,1.0594342,-0.90539753,-0.12232416,-2.0307374,0.8749125,6.434725
440,1715699564.4609215,1.2032568,-0.91365445,0.19827217,-1.969,0.9559,6.54555
441,1715699564.4805822,1.5849082,-0.8214067,0.57808864,-0.93995,0.6193,6.34535
442,1715699564.498157,1.7333335,-0.67625386,0.41570336,1.1554124,-0.7964,5.373775
443,1715699564.5140746,1.5512692,-0.5010244,-0.24801223,2.477475,-2.0769374,4.258375
444,1715699564.5300596,0.81050456,-0.44117734,-0.7556575,2.26655,-1.816925,4.042225
445,1715699564.5457156,0.5203823,-0.42802754,-0.856682,1.75835,-1.0638375,4.3734627
446,1715699564.5731835,0.6228287,-0.43261468,-0.92059636,0.48014998,0.0248875,5.2449374
447,1715699564.5924778,1.6586086,-0.18246178,-0.8735016,-0.355025,-0.44701248,4.9445
448,1715699564.607938,1.8077523,0.053929668,-0.7134557,-0.70661247,-0.791175,3.729
449,1715699564.6236863,1.5639144,0.092660554,-0.56157494,-0.70345,-1.0286375,3.2283626
450,1715699564.6391175,0.68532115,0.22477065,-0.49347094,-0.24007499,-1.9331125,3.435025
451,1715699564.6554105,1.2864373,0.30795106,-1.0055046,-0.237875,-1.92775,4.2915125
452,1715699564.7568288,2.571147,1.516315,2.4807339,-4.5948377,-2.6255624,3.028025
453,1715699564.7776682,3.0326147,2.1535168,1.4143732,0.6153125,-0.689975,1.544125
454,1715699564.7937093,2.7332263,2.1683946,0.869419,0.9818875,-0.1370875,1.141525
455,1715699564.8091862,2.5316055,2.1203823,0.54801226,0.976525,0.2932875,0.8900375
456,1715699564.824953,2.258303,2.0178442,0.29591742,0.7198125,0.9942625,0.3829375
457,1715699564.846833,1.1387309,1.6153976,0.35718656,0.502425,1.8613375,-0.5916625
458,1715699564.8570924,0.717737,1.487263,0.36249235,0.674025,1.7122875,-0.9922
459,1715699564.866392,0.26432723,1.4076453,0.33588684,0.6303,1.673925,-1.2447875
460,1715699564.8895633,-0.05432722,1.3372018,0.5196789,0.2734875,2.3535874,-1.4205124
461,1715699564.918698,0.34659022,1.1248777,1.0768654,0.418275,3.173775,-2.2737
462,1715699564.9471526,0.66677374,1.0144801,1.3255811,2.562725,2.8499625,-3.769425
463,1715699564.9627821,1.4196789,1.1733946,0.9414832,3.4659624,2.667775,-4.3723626
464,1715699564.9838245,2.3586085,0.8521865,0.42671257,3.64925,2.6646125,-5.05725
465,1715699565.014358,2.5594342,-0.14954129,-0.08470948,3.2924376,2.3832874,-8.2115
466,1715699565.0300357,2.4794035,-0.34454128,-0.15545872,3.2177749,2.0967374,-8.554563
467,1715699565.1319017,-0.4716667,0.4005046,-0.711422,0.336325,0.6523,-4.087875
468,1715699565.1476843,-0.35229358,0.4961315,-0.6795107,-0.2580875,0.642675,-3.1750126
469,1715699565.1632693,-0.24831805,0.49877676,-0.5323089,-0.7896625,0.6969875,-2.437875
470,1715699565.1856763,-0.30347094,0.14912845,0.047201835,-1.3649625,0.8152375,-0.81014997
471,1715699565.2032378,-0.7974465,-0.22813456,0.5094801,-0.7918625,0.59482497,0.5641625
472,1715699565.231792,-0.08042813,-0.33527523,0.3105046,0.4503125,-0.91465,3.061025
473,1715699565.24804,0.8603517,-0.39021406,-0.3138685,0.959475,-1.3600125,4.428875
474,1715699565.2641158,0.8820642,-0.43047398,-0.48084095,0.6292,-1.0137875,4.6110625
475,1715699565.286851,0.7427064,-0.558104,-0.4742049,-0.105875,-0.5333625,5.2171626
476,1715699565.3027968,0.6198777,-0.78848624,-0.27237004,-0.6799375,-0.24255,6.504025
477,1715699565.3182547,0.8346636,-0.8868502,-0.2196789,-0.830225,-0.1956625,7.0367
478,1715699565.338308,1.5537156,-0.9139602,-0.046896026,-0.644875,0.4189625,6.492337
479,1715699565.364799,2.1037767,-0.27400613,0.3146789,-0.3507625,-0.0199375,5.5730124
480,1715699565.3790128,0.39704895,-0.1922477,0.10948012,1.6326749,-2.1195624,3.7983
481,1715699565.390528,-0.25423548,-0.21131499,-0.4689144,2.594625,-2.4624875,4.6355376
482,1715699565.412754,-0.100917436,-0.21448013,-1.1790979,2.2430375,-2.0491624,5.6538625
483,1715699565.4957566,1.0562692,0.79246175,0.73955655,-2.2033,-2.0865624,4.1998
484,1715699565.5259595,2.4125383,1.5368043,0.21662079,-0.9218,-2.1280875,3.6832125
485,1715699565.5558085,3.2955198,2.5037768,-0.39613152,-1.554575,-1.3941125,2.12685
486,1715699565.5799518,3.0714526,2.6121254,-0.36319572,-2.078725,-0.91368747,1.679425
487,1715699565.6067388,2.3427064,2.5732875,1.4827676,-2.4600124,0.7481375,0.48633748
488,1715699565.6224308,2.9802294,2.579205,1.7656423,-0.3592875,0.8152375,-0.106975
489,1715699565.6493952,2.7151835,2.2726758,0.15310398,1.8085375,1.0016875,-2.6349125
490,1715699565.6649046,2.2690063,2.1212997,-0.18674313,1.6187875,1.1955625,-2.993925
491,1715699565.680842,1.6764526,1.8730886,-0.53792053,0.935,1.6313,-3.2932625
492,1715699565.6966944,1.2322172,1.5087615,-0.50010705,-0.3848625,2.464275,-3.4881
493,1715699565.7124608,1.0889908,1.2031652,-0.20285933,-0.912175,2.9915874,-3.67565
494,1715699565.733744,1.1651376,0.73333335,0.40233946,-0.5149375,3.1035125,-4.0656
495,1715699565.760383,1.3993884,0.122018345,0.36860856,1.3344375,2.7242875,-5.0444627
496,1715699565.776166,1.3174312,-0.108761474,-0.032003056,1.96075,2.5474625,-5.4322124
497,1715699565.7924101,1.2920489,-0.2061162,-0.26922017,2.1366124,2.5048375,-5.6049123
498,1715699565.893763,0.50428134,-0.7330275,0.08970948,1.9160625,0.97295,-5.0072
499,1715699565.9071565,0.6445413,-0.6750306,-0.043929663,2.1685126,0.3529625,-4.5981374
500,1715699565.9153252,0.6956116,-0.6661621,-0.12619266,2.1472,0.2858625,-4.5342
501,1715699565.9231737,0.83027524,-0.6020336,-0.24995413,1.919225,0.425425,-4.4798875
502,1715699565.9505885,0.49347094,-0.42457184,-0.43934253,1.312025,0.862125,-4.7441626
503,1715699565.9668236,-1.0322171,-0.100718655,-0.5172324,-0.0792,1.6077875,-3.582975
504,1715699565.9824505,-1.4288533,0.40214068,-0.2138685,-1.089,1.2882375,-0.463925
505,1715699566.00373,-1.0102905,0.46340978,-0.13964832,-1.3627625,1.066725,0.5385875
506,1715699566.0256138,0.36004588,0.50978595,0.032828745,-1.9955375,0.9590625,1.6773624
507,1715699566.0738,-0.8840979,0.0656422,0.39204893,-0.26235,-0.14245,2.185425
508,1715699566.0893888,-0.4725841,-0.22986238,-0.15993884,0.791175,-0.842325,4.480025
509,1715699566.1050143,0.29460245,-0.4221254,-0.58990824,1.0542125,-1.8660125,6.5401874
510,1715699566.1207964,1.8933792,-0.47461772,-1.2671713,0.8773875,-2.3464375,7.1165876
511,1715699566.1511736,2.0218196,-0.54270643,-1.2090672,-2.7828624,-0.5600375,7.0558124
512,1715699566.1668506,1.7620796,-0.5844037,-0.6480122,-3.510375,-0.1018875,7.1506877
513,1715699566.2783997,1.4833792,0.25474006,-1.5740062,-0.4541625,-1.615625,5.929825
514,1715699566.3084083,1.6715597,0.32334864,-0.47818044,-3.1279874,-1.431375,4.513025
515,1715699566.3247204,1.4399542,0.20519876,-0.17400612,-3.40175,-1.5294125,4.2915125
516,1715699566.3515093,0.94576454,0.06636085,1.2699236,-2.278925,-1.6113625,4.42035
517,1715699566.3671162,1.2395566,0.22181958,1.2298625,-1.496,-1.3717,4.5406623
518,1715699566.382787,2.345367,1.0152905,0.51559633,-0.625625,-0.57805,4.309525
519,1715699566.3984199,2.5016363,1.1541284,0.424052,-0.609675,-0.44494998,4.2125874
520,1715699566.4140284,3.2564678,2.4195719,-0.046896026,-1.3404875,0.13145,2.7735126
521,1715699566.435871,3.262584,2.5086699,0.24781345,-2.042425,0.1793,1.5921125
522,1715699566.449957,3.262584,2.5086699,0.24781345,-2.382325,0.5894625,0.9284
523,1715699566.4721386,2.8179357,2.1200764,0.98879206,-1.9232125,1.0709875,-0.461725
524,1715699566.4877415,3.000413,2.0108104,0.9196789,-1.07525,1.4172125,-1.34915
525,1715699566.5033534,3.1651375,1.9448471,0.7267125,-0.726825,1.57795,-1.8519875
526,1715699566.5260909,2.969419,1.7376148,0.48215598,0.0561,2.0488875,-3.5030875
527,1715699566.5522816,2.8848164,1.4484252,0.2573853,0.214775,2.3172874,-4.1795874
528,1715699566.6467626,1.5873548,-0.10906728,-0.15524465,1.0692,2.7498624,-5.6507
529,1715699566.6767538,1.203471,-0.5090673,-0.22313455,1.1383625,3.2707124,-5.6655498
530,1715699566.6924896,1.2742049,-0.5356728,-0.32365444,1.075525,3.3026125,-5.4003124
531,1715699566.732415,1.97737,-0.4970489,-0.3878746,1.0745625,3.175975,-5.187325
532,1715699566.7578394,1.664526,-0.71671253,-0.20142202,1.3600125,2.8807626,-6.4922
533,1715699566.773701,1.2166208,-0.73282874,-0.015902141,1.684925,2.3408,-6.64455
534,1715699566.8042006,0.34414375,-0.506315,-0.118455656,2.3038125,1.1870375,-5.6293874
535,1715699566.8285847,0.021207951,-0.0509633,-0.4005046,2.005575,0.8823375,-4.31585
536,1715699566.8562236,0.16594802,0.11732416,-0.5264985,1.1468875,1.04115,-2.9981875
537,1715699566.8826704,0.04934251,0.20795108,-0.49032107,-0.0323125,1.098625,-2.3398376
538,1715699566.8983133,-0.5378135,0.1493425,-0.24995413,-0.5042125,1.0954624,-1.6121875
539,1715699566.9139667,-0.9346636,-0.130474,0.0196789,-0.7216,0.998525,0.1071125
540,1715699566.9296217,-0.951682,-0.22029051,0.18165137,-0.5394125,0.746075,0.9593375
541,1715699567.021255,-0.23344035,-0.77503055,-0.7407798,-0.09735,-1.1298375,5.7519
542,1715699567.0383735,0.66218656,-1.1650306,-0.9103976,-2.2235124,-0.4417875,8.06355
543,1715699567.060743,3.4903212,-0.30233946,0.6751223,-0.9431125,-2.5232625,5.3087373
544,1715699567.0763812,2.7446482,-0.13608563,0.49724773,0.2574,-3.24555,4.2062626
545,1715699567.0964055,0.77614677,-0.087568805,-0.011513761,1.8447,-3.8974376,3.9921749
546,1715699567.1119752,0.62457186,-0.094082564,-0.91723245,2.139775,-2.9973624,5.5218625
547,1715699567.1275353,0.7031651,-0.07481651,-1.0429205,2.0491624,-2.8587625,5.6709123
548,1715699567.154465,2.4496484,0.46055046,-1.7963303,-1.6984,-1.2065625,4.7537875
549,1715699567.169984,1.6729817,0.4551529,-0.95035166,-3.1002126,-2.1621876,3.906925
550,1715699567.1870809,0.7907187,0.35799694,0.20561162,-2.2768624,-2.510475,4.3256125
551,1715699567.2032642,0.5743119,0.3030581,0.9579969,-2.0733626,-2.5136375,4.38845
552,1715699567.2189033,1.4411774,0.3634098,0.5168196,0.3287625,-2.511575,4.344725
553,1715699567.2345083,1.6278287,0.4319113,0.27247706,0.5141125,-2.5744126,4.090075
554,1715699567.2638378,1.2527982,1.2253823,-0.3680887,-0.1505625,-2.5136375,4.1358624
555,1715699567.2793412,2.1669726,2.0932722,-0.38593274,-0.793925,-1.9789,5.1139
556,1715699567.2958722,5.6555505,2.722217,-0.940367,-3.1194625,-0.04015,4.0965376
557,1715699567.4707413,2.419373,1.3827677,0.6717584,-3.1194625,-0.04015,4.0965376
558,1715699567.4928951,1.4348624,0.7460703,1.0414832,0.031625,3.289825,-3.1483374
559,1715699567.5063887,1.6566819,0.6711468,1.212844,1.1246125,3.0512624,-3.5531375
560,1715699567.5224297,2.0488226,0.29235473,0.7059174,3.083575,2.702975,-4.8048
561,1715699567.5386248,1.8982723,0.10764526,0.3293578,3.5981,2.584725,-5.3939877
562,1715699567.5553026,1.6668656,-0.16391437,-0.3424006,3.760075,2.7124624,-5.944675
563,1715699567.5709214,1.4348624,-0.28521407,-0.8420031,3.5448875,2.82755,-6.0555
564,1715699567.5865853,1.4555504,-0.31671253,-0.812737,2.2952874,2.783825,-5.996925
565,1715699567.6022968,1.4555504,-0.31671253,-0.812737,1.8425,2.632575,-5.978775
566,1715699567.6178284,1.9617738,-0.48929664,-0.44025993,1.347225,1.9551125,-6.834162
567,1715699567.6401157,1.8741132,-0.74525994,-0.34025994,1.3237125,1.942325,-6.9331627
568,1715699567.6557934,1.3804282,-1.0118195,-0.21793579,1.1757625,2.4110625,-7.52125
569,1715699567.6715465,0.57961774,-0.980841,-0.083792046,1.3706,2.4099624,-7.5244126
570,1715699567.6871634,-0.2556575,-0.70285934,-0.036192663,1.54,1.9306375,-6.9311
571,1715699567.7748578,-0.80091745,0.016513761,0.024051987,1.6326749,0.4499,-4.9273124
572,1715699567.8038473,-0.42232415,-0.1448471,0.9770642,-1.9955375,0.9004875,1.5302374
573,1715699567.819325,-0.464526,-0.46432725,1.1157033,0.1189375,-0.37675,2.90235
574,1715699567.8351119,-0.2971407,-0.62813455,0.8557645,1.2406625,-1.1724625,3.57775
575,1715699567.8563974,0.07634557,-0.8485169,-0.0617737,2.6745124,-2.13235,4.715425
576,1715699567.8720925,0.34148318,-1.0108105,-0.98165137,2.7533,-2.1258874,5.1563873
577,1715699567.8877845,0.49204892,-1.0464832,-1.1063149,1.5976125,-1.3589125,6.6361623
578,1715699567.9073095,1.0231345,-1.0459785,-0.8608563,0.3821125,-0.436425,7.8057375
579,1715699567.9229393,1.5544343,-0.9964373,-0.63191134,0.168025,-0.19139999,7.987925
580,1715699567.940232,2.5105965,-0.545367,-0.40539756,1.3941125,-1.4697375,5.97025
581,1715699567.956431,1.9136544,-0.4319113,-0.412737,2.207975,-2.1696124,4.7623124
582,1715699567.9730246,1.1644189,-0.41478595,-0.43272173,2.8120124,-2.6052125,4.3043
583,1715699567.9959464,0.0598318,-0.6083639,-1.0541284,3.405325,-2.3848,5.2427373
584,1715699568.0117297,1.0975535,-0.4963303,-1.9092814,1.3162875,-0.993575,6.666
585,1715699568.027246,2.2160094,-0.06992355,-1.9962232,-0.16115,-0.84122497,6.5253377
586,1715699568.0391395,2.425688,0.03995413,-1.8414832,-2.4184875,-1.0819875,5.6208625
587,1715699568.0493581,2.0215137,0.02558104,-1.3387309,-4.3274,-1.4015375,4.4012375
588,1715699568.0715737,1.3897095,-0.15810399,-0.71784407,-5.2287126,-1.3259125,4.14865
589,1715699568.1513925,0.9207951,-0.06585627,1.4314984,-5.397975,-0.85085,4.7452626
590,1715699568.170621,2.8948011,2.2074463,-0.76319575,-1.81775,0.1079375,2.7841
591,1715699568.186799,3.0121255,2.0566819,-0.5984709,-2.7231874,0.9548,2.6530626
592,1715699568.2032938,3.2205963,1.8518807,0.17512232,-3.411375,1.6248375,1.779525
593,1715699568.2187996,3.111208,1.8023394,0.46503058,-3.33245,1.6663625,1.48555
594,1715699568.2343912,2.9214067,1.7617737,0.81039757,-2.7295125,1.689875,0.8677625
595,1715699568.2573926,2.322431,1.5595261,0.4527982,-0.3359125,1.6611375,-0.2902625
596,1715699568.2762663,1.7599388,1.3698318,0.0051987767,-0.1079375,2.2683375,-0.7035875
597,1715699568.2920082,0.9154893,1.1623853,-0.1108104,-0.4434375,3.1279874,-0.868725
598,1715699568.307782,0.465948,1.2449541,0.018455656,-0.5979875,3.277175,-0.92303747
599,1715699568.3235352,0.465948,1.2449541,0.018455656,-0.4871625,3.1205626,-0.966625
600,1715699568.3390896,1.5373088,1.3903211,0.50581044,0.7016625,2.2991376,-2.4803624
601,1715699568.357411,1.4770643,1.2356727,0.51896024,1.4782625,1.95195,-3.4093125
602,1715699568.3731554,1.053104,0.7175382,0.033746175,2.5647874,1.5855125,-4.6492877
603,1715699568.3887057,0.97992355,0.49296638,-0.24240062,2.6074126,1.3723875,-4.9784627
604,1715699568.4172711,1.5185474,0.31478593,-0.42007646,1.4078625,1.0869375,-5.6942873
605,1715699568.433003,2.1781805,0.27553517,-0.28073394,0.5515125,1.6952375,-6.2855372
606,1715699568.4579988,2.5091743,0.14495413,-0.18256882,0.2809125,2.0669,-6.7670627
607,1715699568.557715,-0.05117737,0.09714068,-0.6272171,1.9309125,0.3114375,-6.424
608,1715699568.5723648,-0.29541287,0.44414374,-0.80203366,0.6994625,0.037675,-4.137925
609,1715699568.5832114,-0.2,0.4537156,-0.8085627,0.1925,0.0812625,-3.4945624
610,1715699568.6045153,-0.1714526,0.35993883,-0.55718654,-0.9356875,0.3029125,-2.352625
611,1715699568.620116,-0.28929663,0.24209481,-0.24974008,-1.3937,0.592625,-1.6005
612,1715699568.6358552,-0.5331345,0.0028593272,0.13700306,-1.3479125,1.049675,0.2061125
613,1715699568.6583457,-0.606422,-0.18103977,0.27706423,-1.3479125,1.049675,0.2061125
614,1715699568.684107,-0.9521865,-0.5888838,0.25412843,-0.459525,0.46585,2.39855
615,1715699568.6998577,-0.94659024,-0.6834862,0.18267584,-0.09625,-0.5429875,4.1732626
616,1715699568.7153869,-0.31181958,-1.0484251,-0.107140675,0.064625,-1.4877499,5.8733125
617,1715699568.731077,0.20622323,-1.1809328,-0.21946482,0.064625,-1.4877499,5.8733125
618,1715699568.7584963,1.4460703,-1.3300765,-0.40122324,-0.5787375,-1.041425,7.2230124
619,1715699568.7874868,1.6673852,-1.0862385,0.72833335,0.554675,0.121825,5.7168374
620,1715699568.803882,1.6183486,-1.0561621,0.7388379,1.077725,-0.0561,5.5389123
621,1715699568.8195992,1.2579052,-0.8805351,-0.10519878,3.2902374,-2.326225,4.79325
622,1715699568.9364793,1.101942,-0.049954128,0.18970948,-3.8545375,-0.132825,4.0315
623,1715699568.9623523,1.073899,0.20672783,0.525581,-1.5961,-2.0823,4.8080997
624,1715699568.9884317,3.327936,0.946896,-0.38348624,-1.0176375,-1.65715,5.693325
625,1715699569.0139446,4.461575,1.4130428,-0.87420493,-1.775125,-1.2321374,4.75585
626,1715699569.0309591,4.065749,1.7368959,-0.287263,-4.0984626,0.1824625,2.911975
627,1715699569.049604,3.556682,1.8362844,0.935581,-4.3902373,0.9516375,2.5348125
628,1715699569.0655048,3.4568808,1.9636085,1.5015291,-3.2558625,1.1455125,2.12465
629,1715699569.0811696,3.6888835,2.074205,1.5144801,-2.500575,1.3618,1.797675
630,1715699569.0968132,3.9894037,2.180321,1.190627,-1.2541375,1.7441875,0.2231625
631,1715699569.1046762,3.912951,2.1433182,1.1454587,-1.2541375,1.7441875,0.2231625
632,1715699569.1208344,3.912951,2.1433182,1.1454587,-0.9761125,1.7325,-0.2572625
633,1715699569.1365232,3.448012,2.0292506,1.2889909,0.088,1.20725,-1.7688
634,1715699569.1597416,1.6036696,1.4074465,0.08940367,1.752025,0.9675875,-3.2762125
635,1715699569.1876924,1.3550458,1.2344496,-0.22262996,1.329075,1.3798125,-3.3603625
636,1715699569.2112288,1.4116207,0.85463303,0.46605504,0.1381875,2.3258126,-3.9153125
637,1715699569.2931893,1.1665597,-0.3254893,-0.12793578,2.663925,2.0009,-6.1758122
638,1715699569.3116336,1.8345567,-0.340367,-0.30458716,1.348325,2.18515,-6.5283623
639,1715699569.3424873,2.0729816,-0.43333337,-0.112033635,1.1149875,2.3599124,-7.682125
640,1715699569.3599985,1.3599389,-0.37778288,0.30172783,1.6209875,2.01795,-7.4680376
641,1715699569.3755085,1.1581041,-0.1348624,0.16166666,2.240975,1.3382875,-7.01635
642,1715699569.3971596,0.9674771,-0.02649847,0.010397553,2.3155,1.1369874,-6.7606
643,1715699569.4129717,0.80172783,0.17206423,-0.27044344,2.090825,0.9878,-6.180075
644,1715699569.4325256,0.17553517,0.2312997,-0.09541284,1.0489875,0.60115,-4.5918126
645,1715699569.4582546,-0.40041286,0.24159022,-0.07767584,0.6664625,0.9282625,-2.7797
646,1715699569.4772956,-0.5161009,0.08929664,-0.19133028,0.4406875,1.2403874,-1.7528499
647,1715699569.49665,-0.43353212,0.0024464831,-0.109892964,-0.02695,1.5311999,-0.2646875
648,1715699569.5125842,-0.19877675,-0.11120795,0.024051987,-0.0567875,1.5343624,0.4948625
649,1715699569.5415034,-0.2820642,-0.36850154,-0.0019418959,0.22659999,1.536425,1.69015
650,1715699569.5660126,-0.20928134,-0.59958714,-0.33027524,0.0336875,1.9573125,3.67785
651,1715699569.5818355,0.053211007,-0.85799694,-0.4151835,-0.7310875,1.2606,5.186225
652,1715699569.6813629,1.761575,-0.84292054,0.2,-1.0912,0.4786375,6.4273
653,1715699569.6986024,0.9120336,-0.53007644,-0.2933792,3.405325,-1.28865,4.3841877
654,1715699569.7142296,0.87737,-0.20784405,-1.6468961,3.233725,-2.1461,5.1734376
655,1715699569.7398365,1.8224313,0.15270643,-2.3888838,1.0148875,-1.396175,5.537812
656,1715699569.761696,1.9568807,0.29571864,-1.7182417,-3.8289626,0.99,3.9612374
657,1715699569.777201,1.6908256,0.19571866,-0.824266,-4.5298,0.795025,3.448775
658,1715699569.7955277,1.3574923,0.14025994,0.0567737,-4.3307,-0.0209,3.0578625
659,1715699569.8125923,0.88940364,-0.03088685,0.31590214,-1.4587375,-2.57125,3.1026876
660,1715699569.8280659,0.8622783,-0.09490826,-0.26463303,-1.0613625,-2.815175,3.2582
661,1715699569.8438482,0.83781344,-0.0938838,-0.39102447,-1.1807125,-2.4891624,3.618175
662,1715699569.8617098,1.3692201,0.035366975,-0.680734,-2.685925,-1.8117,4.6611123
663,1715699569.9032671,2.1889908,0.48879203,-0.0005045872,-3.883275,-1.6412,5.912775
664,1715699569.9333491,4.167477,1.9597399,0.834052,0.874225,-1.294975,2.66695
665,1715699569.955872,2.9891896,2.058104,-0.1792049,1.45585,-1.1576124,1.729475
666,1715699569.9720438,2.6741133,2.0407798,-0.58134556,1.025475,-0.51315,1.6069624
667,1715699570.077125,0.68481654,0.85493886,0.49285936,1.885125,0.9590625,-1.9520875
668,1715699570.0930703,0.658211,0.79316515,0.29204893,2.0439374,0.996325,-2.2642124
669,1715699570.1085708,0.46269113,0.62966365,-0.13088685,2.006675,0.99962497,-2.7542624
670,1715699570.1243365,0.39174312,0.59082574,-0.21845567,1.5624125,1.0591625,-3.1548
671,1715699570.1399174,0.40469417,0.5239603,-0.14720184,1.024375,1.219075,-3.3103125
672,1715699570.154782,0.40469417,0.5239603,-0.14720184,0.61325,1.41185,-3.4061499
673,1715699570.162959,0.76319575,0.4675841,0.32955658,0.3383875,1.75065,-3.634125
674,1715699570.170785,0.9806269,0.4593272,0.53894496,0.4928,1.8348,-3.837625
675,1715699570.1869304,1.4767584,0.42977065,0.8638073,1.1246125,1.7697625,-4.391475
676,1715699570.2172155,1.601529,0.28359327,0.1343578,3.0707874,0.746075,-6.54445
677,1715699570.2328734,1.7105963,0.28674313,-0.15576452,2.798125,0.7310875,-6.8299
678,1715699570.2630005,1.824572,0.25963303,-0.3041743,1.5453625,0.8206,-7.5915127
679,1715699570.291517,1.77289,0.6806269,-0.31579512,1.1661375,0.4967875,-7.6065
680,1715699570.3069918,2.0102906,1.2412845,-0.5298624,0.51205,0.3817,-7.3486876
681,1715699570.3227568,2.34974,1.493578,-0.38807338,-0.0897875,0.4786375,-7.242125
682,1715699570.338212,2.2192662,1.4779817,-0.22038226,-0.4552625,0.4285875,-7.3082623
683,1715699570.3631825,1.924159,1.3701376,-0.027324159,-0.523325,0.3700125,-7.25065
684,1715699570.4412127,-0.8326147,0.36555046,-0.09888379,0.2127125,0.709775,-2.1704376
685,1715699570.4627159,0.042201836,-0.3933792,-0.5330275,-1.654675,0.9186375,1.8968124
686,1715699570.478848,-0.08093272,-0.64423543,-0.016620796,-2.0414624,1.1870375,2.1322124
687,1715699570.4946141,-0.19174312,-0.74943423,0.2656422,-2.3673375,1.6537125,2.996125
688,1715699570.5101411,-0.22782876,-0.81559634,0.38990828,-2.2427626,1.6919374,3.2602625
689,1715699570.5258837,-0.066253826,-1.0239602,0.7069266,-1.064525,1.6451875,4.5258126
690,1715699570.5413442,0.20428136,-1.124052,0.70519876,-0.3114375,1.2584,4.9124627
691,1715699570.5635636,1.0060092,-1.1543273,0.41181958,1.2480875,0.3592875,4.865575
692,1715699570.5793464,1.3059174,-1.1096789,0.18481651,1.5772625,0.13145,4.613125
693,1715699570.5948055,1.2479053,-0.8917431,-0.52671254,2.1813,-0.62067497,2.651
694,1715699570.610461,0.20091744,-0.8422018,-0.5986697,1.7445999,-0.4268,2.3483624
695,1715699570.6260557,-0.20316514,-0.8045872,-0.6543272,1.2705,-0.2468125,3.198525
696,1715699570.6440809,0.3553517,-0.9666667,-0.5902141,0.672925,-0.2564375,4.7100625
697,1715699570.664041,1.3284403,-0.8257951,-0.7614679,1.260875,-1.35465,4.04965
698,1715699570.679662,1.3323089,-0.78409785,-0.8671712,1.4174875,-1.7370375,3.6672626
699,1715699570.6875165,0.7050917,-0.74576455,-1.1900153,1.5602125,-2.7725499,2.7968874
700,1715699570.7039263,0.02905199,-0.78429663,-1.4155964,1.22045,-2.9653249,2.8395126
701,1715699570.7348201,-0.72915906,-1.1267126,-1.6144801,-1.8943375,-1.3088624,5.426025
702,1715699570.8145385,-0.005504587,-1.2243578,-0.9862385,-3.3474374,-0.7420875,6.81395
703,1715699570.8304803,4.130688,2.1359787,-1.3935779,-2.162875,-0.0540375,4.5951123
704,1715699570.846322,4.090413,2.061269,-1.0719725,-3.1812,0.55962497,4.0613375
705,1715699570.864637,3.6055048,1.9148777,-0.1254893,-4.1900373,1.1114125,2.70105
706,1715699570.8802745,3.1990826,1.8459786,0.29958716,-4.125,0.896225,1.931875
707,1715699570.8976583,2.332003,1.5780886,1.0358869,-2.7104,0.3711125,0.84315
708,1715699570.9333665,1.548318,1.2805352,1.1332264,-0.574475,0.83655,-0.13365
709,1715699570.9490035,1.1201835,1.1364985,0.8870489,0.9999,0.628925,-0.801625
710,1715699570.964676,0.55840975,1.0088685,0.3151835,0.9999,0.628925,-0.801625
711,1715699570.9804456,0.36288992,1.0088685,0.08328746,1.143725,0.6193,-1.1072875
712,1715699570.9960566,0.25769112,1.063104,-0.088883795,0.536525,1.014475,-1.4183125
713,1715699571.0116935,0.31212538,1.0674771,-0.028134558,0.267025,1.1977625,-1.6121875
714,1715699571.0324774,0.82415897,0.9420031,0.7435321,0.2712875,1.1050875,-2.585825
715,1715699571.0495121,0.91915905,0.9164067,1.3485168,2.1599874,0.6853,-3.7384875
716,1715699571.0652895,1.2032568,0.6779817,0.6402599,3.8911126,0.5841,-4.697275
717,1715699571.080792,1.1444496,0.5481193,0.19755352,4.111525,0.46805,-5.2809625
718,1715699571.0964544,1.1187615,0.50325686,0.016406728,4.0987372,0.4169,-5.5185623
719,1715699571.1149538,1.0037768,0.18521407,-0.76860857,3.0591,0.4019125,-6.399525
720,1715699571.198247,0.8698318,0.30214068,0.46432725,0.4640625,0.3018125,-6.61045
721,1715699571.2130082,0.8507646,0.44200304,0.38185015,1.5229499,-0.0358875,-5.959525
722,1715699571.2366507,0.69847095,0.80948013,-0.18359327,1.9927875,0.1463,-5.1712375
723,1715699571.2660956,0.5820642,1.1443425,-0.8115138,1.041425,0.34759998,-4.1592374
724,1715699571.2970037,0.65799695,1.1521866,-0.7605505,-1.738825,1.2370875,-2.957625
725,1715699571.31264,0.009067278,0.89766055,0.16463304,-2.5889876,1.8220125,-2.12465
726,1715699571.3281364,-0.27909786,0.8761468,0.40570337,-2.332275,1.68135,-1.6207125
727,1715699571.3443005,-0.49285936,0.7753364,0.49266055,-1.9412249,1.4277999,-0.986975
728,1715699571.3661892,-0.118241586,0.6527982,0.34444955,-1.0346875,0.9750125,0.701525
729,1715699571.3818471,0.5703364,0.6108104,0.08451071,-0.70661247,0.897325,0.835725
730,1715699571.3973365,0.61845565,0.5451529,-0.072782874,-0.78113747,1.3319625,0.3617625
731,1715699571.4129953,0.45056576,0.50152904,-0.1008104,-0.78113747,1.3319625,0.3617625
732,1715699571.4369571,-0.008149847,0.3650306,-0.037110094,-0.7321875,1.640925,0.5886375
733,1715699571.4563608,-0.092660554,0.33282876,-0.045458715,-0.644875,1.687675,1.01365
734,1715699571.4725678,0.15249236,0.3650306,-0.07614679,-0.6150375,1.64945,1.35245
735,1715699571.4882252,0.30071867,0.39460245,-0.0861315,-0.6287875,1.6770875,1.38655
736,1715699571.6103957,-0.017431192,1.0245719,-0.5503517,0.350075,0.5042125,1.18195
737,1715699571.6260104,0.09643731,1.0830734,-0.64729357,0.120037496,0.39875,1.2725625
738,1715699571.6415222,0.1640214,1.153104,-0.658211,-0.5798375,0.186725,1.2991
739,1715699571.6670098,0.09980122,1.1765596,-0.3731957,-1.3245375,0.09625,1.5335375
740,1715699571.682579,0.16207951,1.1607492,-0.10010704,-1.54715,-0.0540375,1.75725
741,1715699571.6981232,0.23944955,1.1331346,-0.03761468,-1.5258375,-0.10835,1.8008375
742,1715699571.713891,0.7392508,1.0669725,0.05943425,-1.2445124,-0.5237375,1.4525499
743,1715699571.7366993,0.5169266,1.0186543,0.21906728,-0.8674875,-0.704825,0.6972625
744,1715699571.7546191,0.23894496,1.0264984,0.240474,-0.26235,-0.9637375,0.27335
745,1715699571.7627542,0.12007645,1.0364985,0.20019877,-0.0760375,-1.025475,0.294525
746,1715699571.7865539,0.036590215,1.0704435,0.032828745,0.165825,-1.1331375,0.4714875
747,1715699571.8022032,0.118149854,1.1348624,-0.105,0.047575,-1.0489875,0.6716875
748,1715699571.817857,0.22426605,1.1639143,-0.15576452,-0.1249875,-0.91574997,0.74305
749,1715699571.8444414,0.4932722,1.1924617,-0.11570337,-0.60005,-0.5685625,0.634425
750,1715699571.8678539,0.6062232,1.1257951,0.032828745,-0.8259625,-0.183975,0.27225
751,1715699571.9735153,0.4224312,0.95474005,0.0057033636,0.5600375,-0.7165125,-0.0154
752,1715699571.9890738,0.43394494,0.9363915,-0.10255351,0.165825,-0.3405875,-0.1634875
753,1715699572.0203252,0.34189603,0.90448016,0.008363915,-0.035475,-0.24887499,-0.16665
754,1715699572.0388684,0.25117737,0.8626911,0.1282416,-0.011,-0.2371875,-0.040975
755,1715699572.0683587,0.25626913,0.8490367,0.12701835,-0.011,-0.2371875,-0.040975
756,1715699572.0850847,0.25626913,0.8490367,0.12701835,0.0603625,-0.27445,0.043175
757,1715699572.1007786,0.27380735,0.84587157,0.124357805,0.0603625,-0.27445,0.043175
