id,timestamp,acc_x,acc_y,acc_z,gyro_x,gyro_y,gyro_z
0,1715411364360,-2.38,6.56,-2.91,39.18,-96.07,-91.43
1,1715411364370,-2.095776397515528,6.385093167701863,-2.7032919254658387,31.412670807453413,-108.057950310559,-132.92763975155282
2,1715411364380,-0.9500000000000001,5.68,-1.87,-1.16,-158.33,-306.95
3,1715411364390,-0.9499999999999998,5.68,-1.8700000000000003,-1.16,-158.33,-306.95
4,1715411364400,-0.95,5.68,-1.87,-1.16,-158.33,-306.95
5,1715411364410,0.03086956521739133,4.281739130434783,-1.403913043478261,-3.442173913043478,-133.4950724637681,-373.49028985507243
6,1715411364420,0.46,3.67,-1.2,-6.59,-99.24,-465.27
7,1715411364430,0.46,3.67,-1.2,-6.59,-99.24,-465.27
8,1715411364440,0.46,3.67,-1.2,-6.59,-99.24,-465.27
9,1715411364450,0.8425,3.2275,-1.005,8.9725,-108.94500000000001,-494.75249999999994
10,1715411364460,0.97,3.08,-0.94,14.16,-112.18,-504.58
11,1715411364470,0.97,3.08,-0.94,14.160000000000002,-112.18,-504.58
12,1715411364480,0.97,3.08,-0.94,14.16,-112.18,-504.58
13,1715411364490,1.417175572519084,2.8178625954198475,-0.7318320610687024,14.343206106870229,-126.72198473282441,-556.5723664122138
14,1715411364500,1.55,2.74,-0.67,14.4,-131.23,-572.69
15,1715411364510,1.55,2.74,-0.67,14.4,-131.23,-572.69
16,1715411364520,1.55,2.74,-0.67,14.4,-131.23,-572.69
17,1715411364530,1.655022624434389,2.558597285067873,-0.8609502262443439,167.78076923076924,-72.95199095022625,-564.0113122171946
18,1715411364540,1.66,2.55,-0.87,175.05,-70.19,-563.6
19,1715411364550,1.66,2.55,-0.87,175.05,-70.19,-563.6
20,1715411364560,1.66,2.55,-0.87,175.05,-70.19,-563.6
21,1715411364570,1.4768350168350168,2.824747474747475,-1.0806397306397308,166.88434343434344,-149.18838383838383,-551.8814141414141
22,1715411364580,1.46,2.85,-1.1,165.65,-161.13,-550.11
23,1715411364590,1.46,2.8500000000000005,-1.1,165.65000000000003,-161.13,-550.11
24,1715411364600,1.46,2.85,-1.1,165.65,-161.13,-550.11
25,1715411364610,1.489016393442623,2.3373770491803274,-0.9065573770491804,240.7204918032787,-137.60967213114753,-512.4126229508197
26,1715411364620,1.4900000000000002,2.32,-0.9,265.2,-129.94,-500.12
27,1715411364630,1.49,2.32,-0.9,265.2,-129.94,-500.12000000000006
28,1715411364640,1.3261344537815127,2.3326050420168065,-0.9630252100840336,263.62361344537817,-131.70605042016808,-470.45781512605043
29,1715411364650,0.97,2.36,-1.1,260.13,-135.62,-404.72
30,1715411364660,0.97,2.36,-1.1,260.13,-135.62,-404.72
31,1715411364670,0.97,2.36,-1.1,260.13,-135.62,-404.72
32,1715411364680,0.988018018018018,2.107747747747748,-1.271171171171171,223.0444144144144,-180.16054054054055,-367.60738738738735
33,1715411364690,1.01,1.8,-1.48,177.8,-234.5,-322.33
34,1715411364700,1.01,1.8,-1.48,177.8,-234.5,-322.33
35,1715411364710,1.01,1.8000000000000003,-1.48,177.8,-234.5,-322.33
36,1715411364720,1.222964824120603,1.5133165829145727,-0.19402010050251256,235.77809045226132,-198.6727638190955,-329.2821608040201
37,1715411364730,1.27,1.45,0.09,249.02,-190.49,-330.87
38,1715411364740,1.27,1.45,0.09,249.02,-190.49,-330.87
39,1715411364750,1.27,1.45,0.09,249.02,-190.48999999999998,-330.87
40,1715411364760,4.2065909090909095,-1.028,2.5760454545454547,98.65850000000002,-278.78081818181823,-285.5982272727273
41,1715411364770,4.92,-1.63,3.18,62.13,-300.23,-274.6
42,1715411364780,4.92,-1.63,3.18,62.13,-300.23,-274.6
43,1715411364790,4.92,-1.63,3.18,62.13,-300.23,-274.6
44,1715411364800,4.722678571428571,-1.8505357142857142,3.5243452380952385,42.1539880952381,-283.85041666666666,-239.78928571428574
45,1715411364810,4.41,-2.2,4.07,-114.5,-155.4,33.2
46,1715411364820,4.41,-2.2,4.07,-114.5,-155.4,33.2
47,1715411364830,4.411822429906542,-2.103411214953271,3.8877570093457945,-120.79663551401869,-90.97757009345794,47.92943925233646
48,1715411364840,4.42,-1.67,3.07,-149.96,207.4,116.14999999999999
49,1715411364850,4.42,-1.67,3.0699999999999994,-149.96,207.4,116.15000000000002
50,1715411364860,4.42,-1.67,3.07,-149.96,207.4,116.15
51,1715411364870,4.311006711409395,-1.0082550335570468,2.2603355704697985,-190.54093959731546,273.30389261744966,156.00503355704697
52,1715411364880,4.14,0.03,0.9899999999999999,-266.24,396.24,230.35
53,1715411364890,4.14,0.03,0.9899999999999999,-266.24,396.24,230.35
54,1715411364900,4.14,0.03,0.99,-266.24,396.24,230.35
55,1715411364910,3.905741626794258,0.9119138755980861,0.1769856459330143,-293.5590909090909,418.6306220095694,268.0113397129187
56,1715411364920,3.46,2.59,-1.37,-356.87,470.52,355.29
57,1715411364930,3.46,2.59,-1.37,-356.87,470.52,355.29
58,1715411364940,3.46,2.59,-1.37,-356.87,470.52000000000004,355.29
59,1715411364950,2.6806217616580312,3.3072538860103626,-1.7314507772020724,-336.0060103626943,425.66663212435225,366.9832642487047
60,1715411364960,2.08,3.86,-2.01,-294.92,337.34,390.01
61,1715411364970,2.08,3.86,-2.01,-294.92,337.34,390.01
62,1715411364980,2.08,3.8599999999999994,-2.01,-294.92,337.34,390.01
63,1715411364990,1.5911111111111111,3.785925925925926,-1.3433333333333335,-212.56435185185185,331.4094444444444,336.7536111111111
64,1715411365000,1.42,3.76,-1.11,-149.11,326.84,295.72
65,1715411365010,1.42,3.76,-1.11,-149.11,326.84,295.72
66,1715411365020,1.42,3.76,-1.11,-149.11,326.84,295.72
67,1715411365030,1.3179518072289156,3.119879518072289,-0.6925301204819277,-254.64313253012048,247.86066265060242,302.01512048192774
68,1715411365040,1.31,3.07,-0.66,-263.61,241.15,302.55
69,1715411365050,1.31,3.07,-0.66,-263.61,241.15,302.55
70,1715411365060,1.31,3.07,-0.66,-263.61,241.15,302.55
71,1715411365070,1.3268152866242038,2.750509554140127,-0.5170700636942674,-326.2068152866242,170.38191082802547,377.6740127388535
72,1715411365080,1.33,2.69,-0.49,-343.51,150.82,398.44
73,1715411365090,1.33,2.69,-0.49,-343.51,150.82,398.44
74,1715411365100,1.4031578947368422,2.8070526315789475,-0.46073684210526317,-317.17378947368417,137.20884210526316,438.5108421052631
75,1715411365110,1.43,2.85,-0.45,-307.25,132.08,453.61
76,1715411365120,1.43,2.85,-0.45,-307.25,132.08,453.61
77,1715411365130,1.43,2.85,-0.45,-307.25,132.08,453.61000000000007
78,1715411365140,1.2725714285714285,3.256,-0.5991428571428571,-269.53022857142855,114.70125714285714,468.78348571428575
79,1715411365150,1.24,3.34,-0.63,-261.41,110.96,472.05000000000007
80,1715411365160,1.24,3.34,-0.63,-261.41,110.95999999999998,472.05
81,1715411365170,1.24,3.34,-0.63,-261.41,110.96,472.05
82,1715411365180,1.5300000000000002,4.384,-0.3013333333333333,-233.7366666666667,36.62,478.31111111111113
83,1715411365190,1.54,4.42,-0.29,-225.83,15.38,480.1
84,1715411365200,1.2248584905660378,5.210943396226416,-0.9635377358490566,-229.34391509433965,15.621745283018868,479.6035377358491
85,1715411365210,1.03,5.7,-1.3800000000000001,-374.82000000000005,25.629999999999995,459.05
86,1715411365220,1.03,5.7,-1.38,-374.82,25.63,459.05
87,1715411365230,1.03,5.7,-1.38,-374.82,25.63,459.05000000000007
88,1715411365240,0.9663636363636364,5.7295454545454545,-1.4234090909090908,-368.116875,28.818863636363634,454.623125
89,1715411365250,-1.77,7.0,-3.29,18.43,212.71,199.34
90,1715411365260,-1.77,7.0,-3.29,18.43,212.70999999999998,199.34
91,1715411365270,-1.77,7.0,-3.29,18.43,212.71,199.34
92,1715411365280,-2.0084713375796177,6.316687898089172,-3.82656050955414,-78.53248407643311,106.05624203821657,122.0540127388535
93,1715411365290,-2.29,5.51,-4.46,-195.98,-23.13,28.44
94,1715411365300,-2.29,5.51,-4.46,-195.97999999999996,-23.13,28.440000000000005
95,1715411365310,-2.29,5.51,-4.46,-195.98,-23.13,28.44
96,1715411365320,-2.08864406779661,4.973050847457627,-3.1027118644067797,3.2057627118644088,-46.62152542372881,-175.20542372881354
97,1715411365330,-2.02,4.79,-2.64,71.11,-54.63,-244.63000000000002
98,1715411365340,-2.02,4.79,-2.64,71.11,-54.63,-244.63
99,1715411365350,-1.9270399999999999,4.7407200000000005,-2.584,71.11,-54.63,-244.63
100,1715411365360,-0.36,3.9100000000000006,-1.64,62.816500000000005,-105.83791666666667,-369.3558333333333
101,1715411365370,-0.36,3.91,-1.6399999999999997,60.85,-117.98,-398.93
102,1715411365380,-0.36,3.91,-1.64,60.85,-117.98,-398.93
103,1715411365390,-0.30999999999999994,3.885641025641026,-1.6267521367521367,61.92247863247864,-118.3659829059829,-401.7676068376068
104,1715411365400,0.81,3.3399999999999994,-1.3300000000000003,92.22,-129.27,-481.93
105,1715411365410,0.81,3.34,-1.33,92.22,-129.27,-481.93
106,1715411365420,0.81,3.34,-1.33,92.22,-129.27,-481.93
107,1715411365430,0.8995798319327732,3.2963025210084034,-1.2731932773109245,102.9542857142857,-127.05571428571429,-493.57142857142856
108,1715411365440,1.22,3.1399999999999997,-1.07,167.36,-113.77000000000001,-563.42
109,1715411365450,1.22,3.14,-1.07,167.36,-113.77,-563.42
110,1715411365460,1.22,3.14,-1.07,167.36,-113.77,-563.42
111,1715411365470,1.5127272727272727,3.0700000000000003,-1.0,172.8909090909091,-131.20181818181817,-551.4442424242425
112,1715411365480,1.68,3.03,-0.96,181.4,-158.02,-533.02
113,1715411365490,1.68,3.03,-0.96,181.4,-158.02,-533.02
114,1715411365500,1.68,3.03,-0.9600000000000001,181.4,-158.02,-533.02
115,1715411365510,1.6687769784172664,3.0206474820143887,-0.9861870503597121,181.4,-158.02,-533.02
116,1715411365520,1.62,2.98,-1.1,213.18677966101697,-159.42033898305087,-529.9996610169492
117,1715411365530,1.62,2.98,-1.1,216.13,-159.55,-529.72
118,1715411365540,1.62,2.98,-1.1,216.12999999999997,-159.55,-529.72
119,1715411365550,1.62,2.9398872180451128,-1.136466165413534,250.24774436090223,-155.45484962406013,-515.2976315789474
120,1715411365560,1.62,2.87,-1.2,309.69,-148.32,-490.17
121,1715411365570,1.6200000000000003,2.87,-1.2,309.69,-148.32,-490.17
122,1715411365580,1.62,2.87,-1.2,309.69,-148.32,-490.16999999999996
123,1715411365590,1.3808695652173915,2.8795652173913044,-1.5443478260869568,277.87608695652176,-225.9608695652174,-406.3978260869565
124,1715411365600,1.37,2.88,-1.56,276.43,-229.49,-402.59
125,1715411365610,1.37,2.88,-1.56,276.43,-229.49000000000004,-402.59
126,1715411365620,1.3672483221476512,2.834597315436241,-1.5242281879194632,274.7088255033557,-232.80714765100672,-396.5431879194631
127,1715411365630,1.35,2.55,-1.3,263.92,-253.6,-358.64
128,1715411365640,1.35,2.55,-1.3,263.92,-253.60000000000002,-358.64
129,1715411365650,1.35,2.55,-1.3,263.92,-253.6,-358.64
130,1715411365660,1.4546938775510205,2.1367346938775507,-0.9390816326530613,249.6926530612245,-270.9047959183673,-347.374387755102
131,1715411365670,1.73,1.05,0.01,212.28,-316.41,-317.75
132,1715411365680,1.73,1.05,0.01,212.28,-316.41,-317.75
133,1715411365690,1.7299999999999998,1.05,0.01,212.28,-316.41,-317.75
134,1715411365700,1.7299999999999998,1.05,0.01,212.28,-316.41,-317.75
135,1715411365710,4.012397476340694,-0.4855835962145111,2.5525236593059937,114.67305993690852,-264.6221451104101,-250.0955835962145
136,1715411365720,4.45,-0.78,3.04,95.52,-254.45999999999998,-236.82
137,1715411365730,4.45,-0.78,3.04,95.52,-254.46,-236.82
138,1715411365740,4.464942528735632,-0.9055172413793103,3.163275862068965,75.66959770114943,-245.67678160919542,-218.62522988505748
139,1715411365750,4.65,-2.46,4.69,-170.17,-136.9,6.710000000000001
140,1715411365760,4.65,-2.46,4.69,-170.17,-136.9,6.710000000000001
141,1715411365770,4.65,-2.46,4.69,-170.17,-136.9,6.71
142,1715411365780,4.43325,-2.26025,3.88675,-157.48308333333333,-3.538333333333341,51.54908333333333
143,1715411365790,4.14,-1.99,2.8,-139.1,189.7,116.52
144,1715411365800,4.14,-1.9900000000000002,2.8,-139.1,189.7,116.51999999999998
145,1715411365810,3.8946468401486984,-1.2896282527881042,2.153159851301115,-159.41078066914497,273.0442379182156,150.77130111524164
146,1715411365820,3.59,-0.42,1.35,-184.63,376.53,193.3
147,1715411365830,3.59,-0.42,1.35,-184.63,376.53,193.3
148,1715411365840,3.59,-0.42000000000000004,1.35,-184.63,376.53,193.3
149,1715411365850,3.5058227848101264,0.14708860759493675,0.7984177215189875,-217.36386075949366,378.80056962025316,219.9354430379747
150,1715411365860,3.21,2.14,-1.14,-332.4,386.78,313.54
151,1715411365870,3.21,2.14,-1.14,-332.4,386.78,313.54
152,1715411365880,3.21,2.14,-1.14,-332.4,386.78,313.54
153,1715411365890,2.3063265306122447,2.9224489795918367,-1.6193877551020406,-345.318693877551,329.1271836734694,351.9952653061225
154,1715411365900,1.57,3.56,-2.01,-356.02,281.37,383.85
155,1715411365910,1.57,3.56,-2.01,-356.02,281.37,383.85
156,1715411365920,1.57,3.5599999999999996,-2.01,-356.02,281.37,383.85
157,1715411365930,1.4845000000000002,3.5149999999999997,-1.6927499999999998,-402.0296875,210.05968750000002,422.9690625
158,1715411365940,1.19,3.3600000000000003,-0.6,-566.35,-44.62,562.68
159,1715411365950,1.19,3.36,-0.6,-566.35,-44.62,562.68
160,1715411365960,1.1923563218390805,3.3539655172413796,-0.5962643678160919,-566.35,-44.62,562.68
161,1715411365970,1.6,2.31,0.05,-150.03295302013422,136.5334899328859,376.6693288590604
162,1715411365980,1.6,2.31,0.05,-7.51,198.55,312.99
163,1715411365990,1.6,2.31,0.05,-7.51,198.55,312.99
164,1715411366000,1.5986742424242424,2.310530303030303,0.04946969696969697,-7.468598484848485,198.82049242424242,312.8484848484849
165,1715411366010,1.25,2.45,-0.09,3.42,269.96,275.63
166,1715411366020,1.25,2.45,-0.09,3.42,269.96,275.63
167,1715411366030,1.25,2.45,-0.09,3.42,269.96,275.63
168,1715411366040,1.1796,2.3708000000000005,-0.2132,-109.34760000000001,209.6404,314.438
169,1715411366050,1.09,2.27,-0.37,-252.87,132.87,363.83
170,1715411366060,1.09,2.27,-0.37,-252.87,132.87,363.83
171,1715411366070,1.09,2.27,-0.37,-252.87,132.87,363.83
172,1715411366080,1.1719565217391303,2.230434782608696,-0.4576086956521739,-225.81119565217392,125.64985507246377,364.22057971014493
173,1715411366090,1.38,2.13,-0.68,-155.88,106.99000000000001,365.23
174,1715411366100,1.38,2.13,-0.68,-155.88,106.99,365.23
175,1715411366110,1.38,2.13,-0.68,-155.88,106.99000000000001,365.2300000000001
176,1715411366120,1.38,2.13,-0.68,-155.88,106.99,365.23
177,1715411366130,1.38,2.13,-0.68,-155.88,106.99,365.23
178,1715411366140,0.47514376996805113,3.256453674121406,-0.993929712460064,-265.28319488817885,-2.3487859424920132,484.0645047923323
179,1715411366150,0.4,3.35,-1.02,-274.78,-11.84,494.38
180,1715411366160,0.3528971962616823,3.7671962616822428,-1.6457943925233645,-207.8143925233645,-2.809065420560747,455.8873831775701
181,1715411366170,0.26,4.59,-2.88,-72.94,15.38,378.36
182,1715411366180,0.26,4.59,-2.88,-72.94,15.380000000000003,378.36
183,1715411366190,0.26,4.59,-2.88,-72.94,15.38,378.36
184,1715411366200,-1.0746666666666669,5.350666666666667,-3.5893333333333333,-74.0624,-66.88179999999998,364.71180000000004
185,1715411366210,-2.6,6.22,-4.4,-75.38,-163.45,348.69000000000005
186,1715411366220,-2.6000000000000005,6.219999999999999,-4.4,-75.38,-163.45,348.68999999999994
187,1715411366230,-2.6,6.22,-4.4,-75.38,-163.45,348.69
188,1715411366240,-2.4349206349206347,6.2420105820105825,-3.9212698412698415,-17.99973544973545,-151.2425925925926,128.06291005291004
189,1715411366250,-2.3,6.259999999999999,-3.53,29.91,-141.05,-56.150000000000006
190,1715411366260,-2.3,6.26,-3.53,29.909999999999997,-141.05,-56.15
191,1715411366270,-2.1881911262798632,6.02061433447099,-3.3694539249146755,14.19641638225256,-149.5280204778157,-76.62849829351536
192,1715411366280,-1.52,4.59,-2.41,-91.25,-206.42,-214.05
193,1715411366290,-1.52,4.59,-2.41,-91.25,-206.42,-214.05
194,1715411366300,-1.52,4.59,-2.41,-91.25,-206.41999999999996,-214.05
195,1715411366310,-1.3112451361867705,4.4287548638132295,-2.2991439688715953,-69.34369649805448,-203.15190661478596,-241.29035019455253
196,1715411366320,-0.07,3.47,-1.64,60.910000000000004,-183.72,-403.26
197,1715411366330,-0.07,3.47,-1.64,60.91,-183.72,-403.26
198,1715411366340,-0.07,3.4699999999999998,-1.6400000000000001,60.91,-183.72,-403.26000000000005
199,1715411366350,-0.07,3.47,-1.64,60.910000000000004,-183.72,-403.26
200,1715411366360,-0.07,3.47,-1.64,60.91,-183.72,-403.26
201,1715411366370,-0.07,3.4700000000000006,-1.6399999999999997,60.910000000000004,-183.72,-403.26000000000005
202,1715411366380,-0.07,3.47,-1.64,60.91,-183.72,-403.26
203,1715411366390,-0.07,3.47,-1.64,60.91,-183.72,-403.26
204,1715411366400,-0.07,3.47,-1.64,60.91,-183.72,-403.26
205,1715411366410,0.4043192488262911,3.345164319248826,-1.353943661971831,35.54244131455399,-188.45215962441313,-437.4739906103286
206,1715411366420,1.55,3.03,-1.02,51.33,-150.45,-564.09
207,1715411366430,1.7423275862068968,2.7038793103448278,-1.0032758620689655,122.77327586206897,-148.72797413793103,-560.2799137931034
208,1715411366440,1.78,2.64,-1.0,137.21,-148.38,-559.51
209,1715411366450,1.78,2.64,-1.0,137.21,-148.38,-559.51
210,1715411366460,1.78,2.64,-1.0,137.21,-148.38,-559.51
211,1715411366470,1.78,2.64,-1.0,137.21,-148.38,-559.51
212,1715411366480,1.6726993865030673,2.883865030674847,-1.156073619631902,82.0184662576687,-200.3525153374233,-500.98239263803686
213,1715411366490,1.67,2.89,-1.16,80.63,-201.66,-499.51
214,1715411366500,1.6699999999999997,2.89,-1.16,80.63,-201.66,-499.51
215,1715411366510,1.5580769230769231,3.08801775147929,-1.7368343195266274,235.63414201183434,-168.09550295857989,-520.7709467455621
216,1715411366520,1.5399999999999998,3.12,-1.83,261.29,-162.54,-524.29
217,1715411366530,1.54,3.12,-1.83,261.29,-162.54,-524.29
218,1715411366540,1.5334351145038168,3.0838931297709924,-1.821793893129771,261.29,-162.54,-524.29
219,1715411366550,1.5,2.9,-1.78,261.29,-162.54,-524.29
220,1715411366560,1.5,2.9,-1.78,261.29,-162.54,-524.29
221,1715411366570,1.5,2.9,-1.78,261.29,-162.54000000000002,-524.29
222,1715411366580,1.5,2.8999999999999995,-1.78,261.29,-162.54,-524.29
223,1715411366590,1.5,2.9,-1.78,261.29,-162.54,-524.29
224,1715411366600,1.5,2.9,-1.78,261.29,-162.54,-524.29
225,1715411366610,1.5,2.9,-1.7799999999999998,237.25677777777778,-206.42516666666666,-486.3948888888889
226,1715411366620,1.5,2.9,-1.7800000000000002,202.03000000000003,-270.75,-430.84999999999997
227,1715411366630,2.31,1.27,-0.58,79.65,-355.9,-318.18
228,1715411366640,2.31,1.27,-0.58,79.65,-355.9,-318.18
229,1715411366650,2.8245283018867924,0.7418867924528302,0.04830188679245288,78.13698113207548,-333.90603773584905,-311.5149056603774
230,1715411366660,5.34,-1.84,3.12,70.74,-226.38,-278.93
231,1715411366670,5.34,-1.84,3.12,70.74,-226.38,-278.93
232,1715411366680,5.312967032967032,-1.878901098901099,3.197142857142857,70.74,-226.37999999999997,-278.93
233,1715411366690,4.93,-2.43,4.29,-98.44768292682927,-108.87896341463413,-38.32225609756098
234,1715411366700,4.93,-2.43,4.29,-115.48000000000002,-97.05,-14.1
235,1715411366710,4.93,-2.43,4.29,-115.48,-97.05,-14.1
236,1715411366720,4.755964912280701,-2.207309941520468,3.904502923976608,-158.85461988304093,-39.52233918128655,22.514444444444447
237,1715411366730,4.0,-1.24,2.23,-354.74,220.28,187.87
238,1715411366740,4.0,-1.24,2.23,-354.74,220.28,187.87000000000003
239,1715411366750,4.0,-1.24,2.23,-354.74,220.28,187.87
240,1715411366760,3.8358490566037737,-0.8022641509433963,1.6718867924528302,-371.0324528301887,239.7245754716981,222.98957547169812
241,1715411366770,3.4,0.36,0.19,-417.54,295.23,323.24
242,1715411366780,3.4,0.36,0.19,-417.54,295.23,323.24
243,1715411366790,3.3999999999999995,0.36,0.19,-417.54,295.23,323.24
244,1715411366800,3.216949602122016,0.8954907161803712,-0.18976127320954905,-394.9291777188329,308.20198938992047,350.3888328912467
245,1715411366810,2.73,2.32,-1.2,-334.78,342.71,422.61
246,1715411366820,2.73,2.32,-1.2,-334.78,342.71,422.61000000000007
247,1715411366830,2.73,2.32,-1.2,-334.78,342.71,422.61
248,1715411366840,2.3251764705882354,2.929411764705882,-1.2348235294117647,-322.32382352941175,343.5694705882353,424.49882352941177
249,1715411366850,1.8,3.72,-1.28,-223.33,350.4,439.51
250,1715411366860,1.8,3.72,-1.28,-223.33,350.4,439.51
251,1715411366870,1.8,3.72,-1.28,-223.33,350.4,439.51000000000005
252,1715411366880,1.5444615384615383,3.4505230769230772,-1.1684923076923077,-270.08889230769233,282.79846153846154,427.94107692307693
253,1715411366890,1.25,3.14,-1.04,-323.97,204.9,414.61
254,1715411366900,1.25,3.14,-1.04,-323.97,204.9,414.61
255,1715411366910,1.25,3.14,-1.04,-323.97,204.9,414.61
256,1715411366920,1.4625786163522014,3.0705031446540882,-0.7947169811320755,-312.40245283018874,186.55446540880504,417.34572327044026
257,1715411366930,1.77,2.97,-0.44,-253.23000000000002,92.71,431.34
258,1715411366940,1.7699999999999998,2.97,-0.44,-253.23,92.71,431.34
259,1715411366950,1.77,2.97,-0.44,-253.22999999999996,92.71,431.34
260,1715411366960,1.354493670886076,3.1362025316455697,-0.18430379746835443,-393.3387341772152,-44.08107594936709,529.7382911392405
261,1715411366970,1.12,3.23,-0.04,-472.41,-121.27999999999999,585.27
262,1715411366980,1.12,3.23,-0.04,-472.4100000000001,-121.28,585.27
263,1715411366990,1.12,3.2300000000000004,-0.04,-472.41,-121.28,585.27
264,1715411367000,1.4321951219512197,2.2778048780487805,0.24097560975609755,-424.387756097561,-153.12365853658537,549.6369756097561
265,1715411367010,1.5200000000000002,2.01,0.32,-391.05,-175.23,524.9
266,1715411367020,1.52,2.01,0.32,-391.05000000000007,-175.23,524.9
267,1715411367030,1.5240287769784173,2.0094244604316542,0.3064748201438849,-379.5697122302158,-168.59741007194242,519.8205035971223
268,1715411367040,1.66,1.99,-0.15,140.87,132.08,289.55
269,1715411367050,1.66,1.99,-0.15,140.87,132.08,289.55
270,1715411367060,1.66,1.99,-0.15,140.87,132.08,289.55
271,1715411367070,1.66,1.99,-0.15,140.87,132.08,289.55
272,1715411367080,1.2519702602230482,2.9975836431226766,-0.7079182156133829,-31.37684014869889,-4.893085501858731,412.1421189591078
273,1715411367090,1.17,3.2,-0.8200000000000001,-65.98,-32.41,436.77
274,1715411367100,1.17,3.2,-0.82,-65.98,-32.41,436.77
275,1715411367110,1.17,3.2,-0.82,-65.98,-32.41,436.77
276,1715411367120,1.083235294117647,4.475441176470588,-1.9826470588235297,-120.59147058823531,-206.4216911764706,515.7363970588235
277,1715411367130,1.07,4.67,-2.16,-129.46,-234.68,528.56
278,1715411367140,1.07,4.67,-2.16,-129.46,-234.68,528.56
279,1715411367150,1.07,4.67,-2.16,-129.46,-234.68000000000004,528.56
280,1715411367160,-3.1958536585365853,7.723963414634146,-3.0228658536585367,164.10829268292684,102.02189024390243,155.94737804878048
281,1715411367170,-3.33,7.819999999999999,-3.05,173.34,112.61000000000001,144.23
282,1715411367180,-3.33,7.82,-3.05,173.34,112.60999999999999,144.23
283,1715411367190,-3.33,7.82,-3.05,173.34,112.61000000000001,144.23
284,1715411367200,-3.3300000000000005,7.82,-3.05,173.34,112.60999999999999,144.23
285,1715411367210,-3.3299999999999996,7.82,-3.0500000000000003,173.34,112.61000000000001,144.23
286,1715411367220,-2.728013698630137,7.237328767123288,-3.0242465753424654,95.80931506849315,20.988972602739725,53.41376712328766
287,1715411367230,-0.8056586826347305,5.060149700598802,-2.0060778443113776,-110.18697604790418,-163.8805389221557,-237.89571856287424
288,1715411367240,-0.53,4.66,-1.6,-128.17,-160.46,-280.03
289,1715411367250,-0.53,4.66,-1.6,-128.17,-160.46,-280.03
290,1715411367260,-0.53,4.66,-1.6,-128.17,-160.46,-280.03
291,1715411367270,-0.53,4.66,-1.6,-128.17,-160.46,-280.03
292,1715411367280,-0.53,4.66,-1.6,-128.17,-160.46,-280.03
293,1715411367290,-0.53,4.66,-1.6,-128.17,-160.46,-280.03
294,1715411367300,-0.53,4.66,-1.6,-128.17,-160.46,-280.03
295,1715411367310,-0.53,4.66,-1.6,-128.17,-160.46,-280.03
296,1715411367320,-0.53,4.66,-1.6,-128.17,-160.46,-280.03
297,1715411367330,-0.53,4.66,-1.6,-128.17,-160.46,-280.03
298,1715411367340,-0.53,4.66,-1.6,-128.17,-160.46,-280.03
299,1715411367350,-0.53,4.66,-1.6,-128.17,-160.46,-280.03
300,1715411367360,,,,,,
301,1715411367370,-0.53,4.66,-1.6,-128.17,-160.46,-280.03
302,1715411367380,-0.53,4.66,-1.6,-128.17,-160.46,-280.03
303,1715411367390,-0.53,4.66,-1.6,-128.17,-160.46,-280.03
304,1715411367400,-0.53,4.66,-1.6000000000000003,-128.17,-160.46,-280.03
305,1715411367410,-0.53,4.66,-1.6,-128.17,-160.46,-280.03
306,1715411367420,-0.53,4.66,-1.6000000000000003,-128.17,-160.46,-280.03
307,1715411367430,-0.53,4.66,-1.6,-128.17,-160.46,-280.03
308,1715411367440,-0.53,4.66,-1.6,-128.17,-160.46,-280.03
309,1715411367450,-0.53,4.66,-1.6,-128.17,-160.46,-280.03
310,1715411367460,-0.53,4.66,-1.5999999999999999,-128.17,-160.46,-280.03
311,1715411367470,-0.53,4.66,-1.6,-128.17,-160.46,-280.03
312,1715411367480,-0.53,4.66,-1.6,-128.17,-160.46,-280.03
313,1715411367490,0.7206474820143886,3.556906474820144,-1.4107194244604317,-27.864604316546757,-137.00489208633093,-431.5494244604316
314,1715411367500,1.62,2.77,-1.28,45.9,-120.42000000000002,-541.02
315,1715411367510,1.4307849829351535,2.651740614334471,-1.7215017064846418,143.9212627986348,-172.9665870307167,-497.4217064846416
316,1715411367520,1.38,2.62,-1.84,170.23,-187.07,-485.7200000000001
317,1715411367530,1.38,2.62,-1.8399999999999999,170.23,-187.07,-485.72
318,1715411367540,1.38,2.62,-1.8399999999999999,170.23,-187.07,-485.7200000000001
319,1715411367550,1.43009009009009,1.9604804804804805,-1.3641441441441442,281.3047747747747,-185.13318318318318,-461.9188588588588
320,1715411367560,1.44,1.83,-1.27,303.28,-184.75,-457.21000000000004
321,1715411367570,1.44,1.83,-1.27,303.28,-184.75,-457.2099999999999
322,1715411367580,1.44,1.83,-1.27,303.28,-184.75,-457.21
323,1715411367590,1.897609329446064,0.6764431486880467,0.09329446064139942,191.55609329446062,-278.444110787172,-343.22405247813407
324,1715411367600,1.92,0.62,0.16,185.73,-283.33,-337.28
325,1715411367610,1.9200000000000002,0.62,0.16,185.73,-283.33,-337.28
326,1715411367620,1.978543046357616,0.5508609271523178,0.2593377483443709,182.53344370860927,-283.0566225165563,-334.6511258278145
327,1715411367630,4.13,-1.99,3.91,65.06,-273.01,-238.04
328,1715411367640,4.13,-1.9900000000000002,3.91,65.06,-273.01,-238.04000000000002
329,1715411367650,4.13,-1.99,3.9100000000000006,65.06,-273.01,-238.03999999999996
330,1715411367660,4.13,-1.99,3.91,65.06,-273.01,-238.03999999999996
331,1715411367670,4.201138461538461,-1.5453846153846154,3.936676923076923,35.6976,-81.25627692307691,-126.12141538461537
332,1715411367680,4.21,-1.49,3.9399999999999995,32.04,-57.37,-112.18000000000002
333,1715411367690,4.21,-1.49,3.9400000000000004,32.04,-57.37,-112.18
334,1715411367700,4.0024999999999995,-1.3269642857142858,3.2038690476190474,-55.826369047619046,53.77589285714286,-40.355357142857144
335,1715411367710,3.79,-1.16,2.45,-145.81,167.6,33.2
336,1715411367720,3.79,-1.16,2.45,-145.81,167.6,33.2
337,1715411367730,3.79,-1.16,2.45,-145.81,167.6,33.2
338,1715411367740,3.4750980392156867,-0.5431372549019607,1.4233333333333333,-189.20176470588234,227.68156862745099,100.39058823529412
339,1715411367750,3.0599999999999996,0.27,0.07,-246.4,306.88,188.96
340,1715411367760,3.06,0.27,0.07,-246.4,306.88,188.95999999999998
341,1715411367770,3.06,0.27,0.07,-246.39999999999998,306.88,188.96
342,1715411367780,1.9835714285714285,1.2521428571428572,-1.422857142857143,-286.74625,304.18455357142864,298.05955357142864
343,1715411367790,1.69,1.52,-1.83,-298.34,303.41,329.41
344,1715411367800,1.69,1.52,-1.83,-298.34,303.41,329.41
345,1715411367810,1.6900000000000002,1.52,-1.8300000000000003,-298.34,303.41,329.41
346,1715411367820,1.1596688741721852,1.6241721854304634,-1.3943708609271523,-159.73417218543045,261.50437086092717,313.5095364238411
347,1715411367830,1.13,1.63,-1.37,-151.98,259.16,312.62
348,1715411367840,1.13,1.6299999999999997,-1.37,-151.98,259.16,312.62
349,1715411367850,1.127950310559006,1.634472049689441,-1.3675776397515529,-152.8034161490683,257.75987577639756,314.1997515527951
350,1715411367860,1.02,1.87,-1.24,-196.17,184.02,397.4
351,1715411367870,1.02,1.87,-1.24,-196.17,184.02,397.4
352,1715411367880,1.02,1.87,-1.24,-196.17,184.02,397.4
353,1715411367890,0.584516129032258,1.7893548387096776,-1.278709677419355,-160.79451612903225,143.66167741935485,400.11845161290324
354,1715411367900,-0.33,1.62,-1.36,-76.97,48.029999999999994,406.55999999999995
355,1715411367910,-0.33,1.62,-1.36,-76.97,48.03,406.56
356,1715411367920,-0.33,1.62,-1.36,-76.97,48.03,406.55999999999995
357,1715411367930,-0.48017964071856284,1.5198802395209583,-1.2689820359281438,-76.97,48.03,406.56
358,1715411367940,-0.99,1.18,-0.96,-55.13309523809523,144.58666666666667,288.10714285714283
359,1715411367950,-0.99,1.18,-0.9600000000000001,-54.87,145.75,286.68
360,1715411367960,-1.5050943396226415,0.8696226415094339,-1.7854716981132075,-71.21830188679245,127.47603773584905,299.7792452830189
361,1715411367970,-1.77,0.71,-2.21,-178.65,7.390000000000001,385.86
362,1715411367980,-1.7699999999999998,0.71,-2.21,-178.65,7.39,385.86
363,1715411367990,-1.7700000000000002,0.71,-2.21,-178.65,7.39,385.86
364,1715411368000,-2.1656043956043955,1.1847252747252748,-1.840769230769231,-45.40362637362637,5.577692307692308,294.6934065934066
365,1715411368010,-2.67,1.7899999999999998,-1.37,140.44,3.05,167.54
366,1715411368020,-2.6699999999999995,1.7900000000000003,-1.3699999999999999,140.44,3.05,167.54
367,1715411368030,-2.67,1.79,-1.37,140.44,3.05,167.54
368,1715411368040,-2.5418840579710142,1.6995652173913043,-1.2795652173913044,105.78879227053139,-30.316183574879226,172.76512077294686
369,1715411368050,-2.33,1.5500000000000003,-1.13,-38.88,-169.62,194.57999999999998
370,1715411368060,-2.33,1.55,-1.13,-38.88,-169.62,194.58
371,1715411368070,-2.33,1.55,-1.13,-38.88,-169.62,194.58
372,1715411368080,-2.6124309392265195,1.8638121546961328,-1.0868508287292817,-0.2871823204419918,-169.97193370165746,130.32696132596686
373,1715411368090,-3.05,2.35,-1.02,60.91,-170.53,28.44
374,1715411368100,-3.05,2.35,-1.02,60.91,-170.53,28.44
375,1715411368110,-3.05,2.35,-1.02,60.910000000000004,-170.53,28.439999999999998
376,1715411368120,-2.3090163934426227,2.8872131147540983,0.6101639344262295,42.48729508196722,-190.31426229508196,-17.79737704918033
377,1715411368130,-2.25,2.93,0.74,41.02,-191.89,-21.48
378,1715411368140,-2.25,2.93,0.74,41.02,-191.89,-21.48
379,1715411368150,-2.3823529411764706,2.7858823529411767,0.5811764705882353,26.39694117647059,-177.75894117647056,-29.907529411764706
380,1715411368160,-3.1499999999999995,1.9499999999999997,-0.34,-166.14,8.3,-140.87
381,1715411368170,-3.1499999999999995,1.9499999999999997,-0.34,-166.14,8.3,-140.87
382,1715411368180,-3.1499999999999995,1.9499999999999997,-0.34,-166.14,8.3,-140.87
383,1715411368190,-2.991772151898734,1.8044303797468355,-0.6279746835443037,-159.40886075949365,7.17493670886076,-145.03911392405064
384,1715411368200,-2.65,1.49,-1.25,-33.2,-13.92,-223.21
385,1715411368210,-2.65,1.49,-1.25,-33.2,-13.92,-223.21
386,1715411368220,-2.65,1.49,-1.25,-33.2,-13.92,-223.21
387,1715411368230,-2.0494152046783625,1.605497076023392,-1.023625730994152,-51.277602339181286,-33.600701754385966,-253.35011695906434
388,1715411368240,-1.35,1.74,-0.76,-72.33,-56.52000000000001,-288.45
389,1715411368250,-1.35,1.7399999999999998,-0.76,-72.33,-56.52000000000001,-288.45
390,1715411368260,-1.35,1.7399999999999998,-0.76,-72.33,-56.52,-288.45
391,1715411368270,-0.5162874251497006,1.4264670658682634,-1.1234131736526947,-49.560658682634724,-13.95425149700599,-373.1577844311377
392,1715411368280,-0.18,1.3,-1.27,-39.55,4.76,-410.4
393,1715411368290,-0.18,1.3,-1.27,-39.55,4.76,-410.4
394,1715411368300,-0.18,1.3,-1.27,-39.55,4.76,-410.4
395,1715411368310,0.3414,1.2406,-1.1512,9.769600000000002,-14.052200000000001,-413.5284
396,1715411368320,0.61,1.21,-1.09,184.63,-80.75,-424.62
397,1715411368330,0.61,1.21,-1.09,184.63,-80.75,-424.62
398,1715411368340,0.61,1.21,-1.09,184.63,-80.75,-424.62
399,1715411368350,0.69,1.2366666666666668,-0.9066666666666667,169.17067632850242,-92.9604347826087,-409.6632850241546
400,1715411368360,0.85,1.29,-0.54,137.57,-117.92,-379.09
401,1715411368370,0.85,1.29,-0.54,137.57,-117.92,-379.09
402,1715411368380,0.85,1.29,-0.54,137.57,-117.92000000000002,-379.09
403,1715411368390,1.0016042780748662,1.1513903743315508,-0.7045989304812835,215.3776470588235,-90.68754010695187,-391.56919786096256
404,1715411368400,1.2,0.9700000000000001,-0.92,317.2,-55.05,-407.9
405,1715411368410,1.2,0.97,-0.92,317.2,-55.05,-407.9
406,1715411368420,1.2,0.97,-0.9200000000000002,317.2,-55.05,-407.9
407,1715411368430,1.3432317073170732,0.9222560975609756,-0.5804878048780489,297.8053658536585,-74.51359756097561,-351.04231707317075
408,1715411368440,1.47,0.88,-0.28,280.64,-91.74,-300.72
409,1715411368450,1.4700000000000002,0.88,-0.28,280.64,-91.74000000000001,-300.72
410,1715411368460,1.47,0.88,-0.28,280.64,-91.74,-300.72
411,1715411368470,1.7844897959183672,0.681734693877551,-0.30051020408163265,148.98499999999999,-142.52326530612245,-194.19000000000003
412,1715411368480,1.93,0.59,-0.31,88.07,-166.02,-144.9
413,1715411368490,1.9299999999999997,0.59,-0.31,88.07,-166.02,-144.9
414,1715411368500,2.004897119341564,0.49123456790123454,-0.1709053497942387,103.38193415637859,-171.22411522633743,-141.7502057613169
415,1715411368510,2.84,-0.61,1.38,274.11,-229.25,-106.63
416,1715411368520,2.84,-0.61,1.38,274.11,-229.25,-106.63
417,1715411368530,2.84,-0.61,1.38,274.11,-229.25,-106.63
418,1715411368540,3.092,-0.58,2.214,201.324,-140.756,-33.973
419,1715411368550,3.68,-0.51,4.16,31.490000000000002,65.73,135.56
420,1715411368560,3.6799999999999997,-0.51,4.16,31.49,65.73,135.56
421,1715411368570,3.68,-0.51,4.16,31.49,65.73,135.56
422,1715411368580,3.5311442786069653,-0.5975621890547264,3.945472636815921,31.49,65.73,135.56
423,1715411368590,3.0,-0.91,3.18,-246.79848167539268,-10.493560209424082,307.4186387434555
424,1715411368600,3.0,-0.91,3.18,-377.38,-46.26,388.06
425,1715411368610,3.0,-0.9100000000000001,3.18,-377.38,-46.26,388.06
426,1715411368620,2.4942906574394463,-0.6091349480968857,2.3670242214532875,-215.01875432525952,98.39439446366784,342.85695501730106
427,1715411368630,2.21,-0.44000000000000006,1.91,-98.08,202.58,310.3
428,1715411368640,2.21,-0.44,1.9099999999999997,-98.08,202.58,310.3
429,1715411368650,2.21,-0.44,1.9099999999999997,-98.08,202.58,310.3
430,1715411368660,2.0641454545454545,0.3795636363636363,1.618290909090909,-122.3786181818182,244.05723636363638,284.9010181818182
431,1715411368670,2.0,0.74,1.4899999999999998,-135.62,266.66,271.06
432,1715411368680,2.0,0.74,1.49,-135.62,266.66,271.06
433,1715411368690,2.0,0.74,1.49,-135.62,266.66,271.06
434,1715411368700,2.5864359861591693,2.2446712802768167,-0.0455363321799308,-249.82840830449828,396.4089619377163,336.66366782006924
435,1715411368710,2.76,2.69,-0.5,-283.63,434.81,356.08
436,1715411368720,2.76,2.69,-0.5,-283.63,434.81,356.08
437,1715411368730,2.76,2.69,-0.5,-283.63,434.81,356.08
438,1715411368740,2.267878787878788,3.9203030303030304,-1.9324242424242424,-337.13666666666666,378.49666666666667,430.6266666666666
439,1715411368750,2.2,4.09,-2.13,-363.89,350.34,467.9
440,1715411368760,2.2,4.09,-2.13,-363.89,350.34,467.9
441,1715411368770,2.2,4.09,-2.13,-363.89,350.34,467.9
442,1715411368780,2.2,3.9886842105263156,-1.3839473684210528,-275.94640350877194,334.475350877193,440.8813157894737
443,1715411368790,2.2,3.98,-1.3200000000000003,-243.1,328.55,430.79
444,1715411368800,2.2,3.98,-1.32,-243.1,328.55,430.79
445,1715411368810,2.2,3.98,-1.32,-243.1,328.55,430.79
446,1715411368820,2.2717241379310344,3.4689655172413794,-1.2393103448275862,-246.6593103448276,313.6134482758621,413.9886206896552
447,1715411368830,2.28,3.41,-1.23,-247.07,311.89,412.05
448,1715411368840,2.28,3.41,-1.23,-247.07,311.89,412.05
449,1715411368850,2.28,3.41,-1.23,-247.07,311.89,412.05
450,1715411368860,1.9608750000000001,3.11675,-1.161,-141.8,346.439875,387.5540625
451,1715411368870,1.91,3.07,-1.15,-53.47,375.43,367.0
452,1715411368880,1.9099999999999997,3.07,-1.15,-53.470000000000006,375.43,367.0
453,1715411368890,1.91,3.07,-1.15,-53.47,375.43,367.0
454,1715411368900,1.8117777777777777,2.937111111111111,-1.1904444444444444,-130.17,313.82155555555556,363.47555555555556
455,1715411368910,1.7399999999999998,2.84,-1.22,-186.22,268.8,360.9
456,1715411368920,1.7400000000000002,2.84,-1.22,-186.22,268.8,360.9
457,1715411368930,1.659310344827586,2.879103448275862,-1.2901379310344827,-187.7151724137931,259.768275862069,366.98165517241375
458,1715411368940,0.43999999999999995,3.47,-2.35,-213.32,105.1,471.13
459,1715411368950,0.44000000000000006,3.47,-2.35,-213.32,105.1,471.13
460,1715411368960,0.44,3.47,-2.35,-213.32,105.1,471.13000000000005
461,1715411368970,0.26041379310344825,3.5380689655172413,-2.4499310344827587,-209.2184827586207,81.6306896551724,451.71875862068964
462,1715411368980,-0.8000000000000002,3.94,-3.04,-185.0,-56.95000000000001,337.1
463,1715411368990,-0.8,3.94,-3.04,-185.0,-56.95,337.1
464,1715411369000,-0.8,3.94,-3.04,-185.0,-56.95,337.1
465,1715411369010,-1.0155555555555555,4.164444444444444,-3.2022222222222223,-137.92090277777777,-39.211111111111116,279.31083333333333
466,1715411369020,-1.7700000000000002,4.95,-3.77,33.69,25.449999999999996,68.66
467,1715411369030,-1.77,4.95,-3.77,33.69,25.45,68.66
468,1715411369040,-1.77,4.95,-3.77,33.69,25.45,68.66
469,1715411369050,-1.9057798165137616,5.0600917431192665,-3.8287155963302753,23.701009174311924,-7.518807339449542,14.142568807339446
470,1715411369060,-2.14,5.25,-3.93,6.47,-64.39,-79.9
471,1715411369070,-2.14,5.25,-3.9300000000000006,6.470000000000001,-64.39,-79.9
472,1715411369080,-2.14,5.25,-3.9300000000000006,6.470000000000001,-64.39,-79.9
473,1715411369090,-0.970857142857143,4.804928571428571,-3.2856428571428573,36.8575,-111.2675,-213.48964285714285
474,1715411369100,-0.38,4.58,-2.96,56.52000000000001,-141.6,-299.93
475,1715411369110,-0.38,4.58,-2.96,56.52,-141.6,-299.93
476,1715411369120,-0.3376923076923077,4.547788461538461,-2.9292307692307693,56.39692307692308,-145.00673076923076,-302.62375
477,1715411369130,0.5,3.91,-2.32,53.96,-212.46,-355.96
478,1715411369140,0.5,3.91,-2.32,53.96,-212.46,-355.96
479,1715411369150,0.5,3.91,-2.32,53.96,-212.46,-355.96
480,1715411369160,0.5,3.91,-2.32,53.96,-212.46,-355.96
481,1715411369170,0.7934736842105262,3.487052631578947,-1.6640000000000001,3.007789473684211,-226.68484210526316,-398.9452631578947
482,1715411369180,0.8400000000000001,3.4199999999999995,-1.5599999999999998,-5.07,-228.94,-405.75999999999993
483,1715411369190,0.84,3.42,-1.56,-5.07,-228.93999999999997,-405.76
484,1715411369200,1.3233333333333333,3.272040816326531,-1.4317687074829932,12.40918367346939,-214.37401360544217,-469.88639455782317
485,1715411369210,1.33,3.27,-1.43,19.17,-208.74,-494.69
486,1715411369220,1.3300000000000003,3.27,-1.4300000000000002,19.17,-208.74000000000004,-494.69
487,1715411369230,1.3811111111111112,3.217777777777778,-1.4177777777777778,30.72716666666667,-202.11661111111113,-500.8468333333333
488,1715411369240,1.79,2.8,-1.32,141.54,-138.61,-559.88
489,1715411369250,1.79,2.8,-1.32,141.54,-138.61,-559.88
490,1715411369260,1.79,2.8,-1.32,141.54,-138.61,-559.88
491,1715411369270,1.796787878787879,2.791090909090909,-1.3136363636363637,142.18739393939393,-141.20721212121214,-558.9865454545454
492,1715411369280,1.95,2.59,-1.17,156.80000000000004,-199.83,-538.82
493,1715411369290,1.95,2.5899999999999994,-1.1699999999999997,156.8,-199.83,-538.82
494,1715411369300,1.9499999999999997,2.59,-1.17,156.8,-199.83,-538.82
495,1715411369310,1.927272727272727,2.5445454545454544,-1.160909090909091,233.86818181818182,-155.60727272727274,-546.9200000000001
496,1715411369320,1.9,2.49,-1.15,326.35,-102.54,-556.64
497,1715411369330,1.9,2.49,-1.15,326.35,-102.54,-556.64
498,1715411369340,1.8999999999999997,2.4899999999999998,-1.15,326.3500000000001,-102.53999999999999,-556.64
499,1715411369350,1.4478504672897197,2.4746728971962617,-1.5561682242990653,332.2969158878505,-197.95887850467292,-450.2315887850467
500,1715411369360,1.31,2.47,-1.68,334.11,-227.05,-417.79
501,1715411369370,1.31,2.47,-1.6799999999999997,334.11,-227.05,-417.79
502,1715411369380,1.31,2.47,-1.68,334.11,-227.05,-417.79
503,1715411369390,1.3733663366336635,2.260891089108911,-1.1667326732673267,282.5171287128713,-278.7569306930693,-365.3416831683169
504,1715411369400,1.41,2.14,-0.87,252.69,-308.65,-335.02
505,1715411369410,1.41,2.14,-0.87,252.69,-308.65,-335.02
506,1715411369420,1.41,2.14,-0.8700000000000001,252.69,-308.65,-335.02
507,1715411369430,1.281959798994975,1.8290452261306533,-1.0712060301507538,266.3735175879397,-293.958040201005,-268.7496984924623
508,1715411369440,1.27,1.8,-1.09,268.43,-291.75,-258.79
509,1715411369450,1.27,1.8,-1.09,268.43,-291.75,-258.79
510,1715411369460,1.5779999999999998,1.576,-0.5726666666666668,237.61133333333333,-301.53933333333333,-246.57533333333336
511,1715411369470,3.58,0.12,2.79,37.29,-365.17,-167.18
512,1715411369480,3.58,0.12,2.7900000000000005,37.29,-365.17,-167.18
513,1715411369490,3.58,0.11999999999999998,2.79,37.29,-365.17,-167.18
514,1715411369500,3.58,0.12,2.79,37.29,-365.17,-167.18
515,1715411369510,4.076090909090909,-1.582272727272727,3.7335454545454545,47.53990909090909,-251.10977272727274,-148.5953181818182
516,1715411369520,4.09,-1.6300000000000001,3.7600000000000002,62.07,-89.41999999999999,-122.25
517,1715411369530,4.09,-1.63,3.76,62.07,-89.42,-122.25
518,1715411369540,4.080322580645161,-1.5787096774193548,3.740645161290322,62.07,-89.42,-122.25
519,1715411369550,3.9899999999999998,-1.1,3.56,-121.57214814814813,104.18896296296296,3.46451851851852
520,1715411369560,3.99,-1.1,3.5599999999999996,-142.82,126.59,18.01
521,1715411369570,3.9900000000000007,-1.1,3.56,-142.82,126.59,18.01
522,1715411369580,3.9546206896551728,-1.0522068965517244,3.4296551724137934,-151.05593103448277,136.54586206896553,25.8288275862069
523,1715411369590,3.42,-0.33,1.46,-275.51,286.99,143.98
524,1715411369600,3.42,-0.33,1.46,-275.51,286.99,143.98
525,1715411369610,3.42,-0.33,1.46,-275.51,286.99,143.98
526,1715411369620,3.2532824427480915,0.010763358778625947,1.0404580152671756,-292.32832061068706,300.688320610687,165.1036641221374
527,1715411369630,2.51,1.53,-0.8300000000000001,-367.31,361.76,259.28
528,1715411369640,2.51,1.53,-0.83,-367.31,361.76,259.28
529,1715411369650,2.51,1.53,-0.83,-367.31,361.76,259.28
530,1715411369660,1.9885185185185184,2.2825925925925925,-1.4225925925925926,-314.3039259259259,375.2251111111111,274.6703703703704
531,1715411369670,1.63,2.8,-1.83,-276.73,384.77,285.58
532,1715411369680,1.63,2.8,-1.8299999999999998,-276.73,384.77,285.58
533,1715411369690,1.63,2.8,-1.8299999999999998,-276.73,384.77,285.58
534,1715411369700,1.3301315789473684,2.8282894736842104,-1.5244736842105262,-292.6173684210527,358.31368421052633,300.15473684210525
535,1715411369710,1.1,2.85,-1.29,-304.81,338.01,311.34
536,1715411369720,1.1,2.85,-1.29,-304.81,338.01,311.34
537,1715411369730,1.1,2.85,-1.29,-304.81,338.01,311.34
538,1715411369740,1.1,2.6551898734177217,-1.0879746835443038,-278.7415189873418,313.74531645569624,299.6225316455696
539,1715411369750,1.1,2.58,-1.01,-268.68,304.38,295.1
540,1715411369760,1.1,2.58,-1.01,-268.68,304.38,295.1
541,1715411369770,1.1,2.58,-1.01,-268.68,304.38,295.1
542,1715411369780,0.9747368421052631,2.6336842105263156,-0.6521052631578947,-322.3474342105263,197.1625657894737,345.4447368421053
543,1715411369790,0.96,2.64,-0.61,-346.37,149.17,367.98
544,1715411369800,0.96,2.64,-0.61,-346.37,149.17,367.98
545,1715411369810,0.9600000000000001,2.64,-0.61,-346.37,149.17,367.98
546,1715411369820,1.0005882352941178,2.5588235294117645,-0.4611764705882353,-396.66558823529414,64.90205882352942,445.06382352941176
547,1715411369830,1.02,2.52,-0.39,-420.72,24.6,481.93000000000006
548,1715411369840,1.02,2.52,-0.39,-420.72,24.6,481.93
549,1715411369850,1.02,2.52,-0.39,-420.72,24.6,481.93
550,1715411369860,0.749205298013245,2.7534437086092716,-0.6981456953642384,-133.8083443708609,168.3919867549669,353.4705960264901
551,1715411369870,0.73,2.77,-0.72,-113.46,178.59,344.36
552,1715411369880,0.73,2.77,-0.7200000000000001,-113.45999999999998,178.59,344.35999999999996
553,1715411369890,0.7066129032258065,2.9383870967741936,-0.8041935483870968,-136.9141935483871,155.63258064516128,354.42451612903227
554,1715411369900,0.68,3.1299999999999994,-0.9,-295.23,0.67,422.36000000000007
555,1715411369910,0.68,3.13,-0.9000000000000001,-295.23,0.67,422.36
556,1715411369920,0.68,3.13,-0.9000000000000001,-295.23,0.67,422.36
557,1715411369930,-0.4307317073170731,3.540487804878049,-2.264268292682927,-244.56493902439024,-49.14390243902439,381.90884146341466
558,1715411369940,-1.16,3.8100000000000005,-3.16,-211.3,-81.85,355.35
559,1715411369950,-1.16,3.81,-3.16,-211.3,-81.85,355.35
560,1715411369960,-1.16,3.8099999999999996,-3.16,-211.3,-81.85,355.35
561,1715411369970,-2.5650537634408606,5.21505376344086,-2.728279569892473,-125.01870967741935,-37.14731182795699,290.38
562,1715411369980,-2.95,5.6,-2.61,-101.38,-24.9,272.58
563,1715411369990,-2.95,5.6,-2.61,-101.38,-24.9,272.58
564,1715411370000,-2.95,5.6,-2.61,-101.38,-24.9,272.58
565,1715411370010,-2.575223880597015,4.961492537313433,-3.651044776119403,24.55865671641791,54.69134328358209,-11.736268656716431
566,1715411370020,-2.41,4.68,-4.11,80.08,89.78,-137.08
567,1715411370030,-2.41,4.68,-4.11,80.08,89.78,-137.08
568,1715411370040,-2.3990666666666667,4.669066666666667,-4.101466666666667,79.04079999999999,86.9,-137.9044
569,1715411370050,-1.59,3.86,-3.4700000000000006,2.14,-126.22,-198.90999999999997
570,1715411370060,-1.59,3.8600000000000003,-3.47,2.14,-126.22,-198.91
571,1715411370070,-1.59,3.86,-3.47,2.14,-126.21999999999998,-198.91
572,1715411370080,-1.511259842519685,3.79007874015748,-3.386220472440945,7.731181102362205,-125.30173228346456,-207.62692913385825
573,1715411370090,-0.34,2.75,-2.14,103.58,-109.56,-357.06000000000006
574,1715411370100,-0.34,2.75,-2.14,103.58,-109.56,-357.06
575,1715411370110,-0.34,2.75,-2.14,103.58,-109.56,-357.06
576,1715411370120,-0.3400000000000001,2.75,-2.14,103.58,-109.56,-357.06
577,1715411370130,-0.05734177215189874,2.038481012658228,-1.4674683544303795,88.3464135021097,-147.0670042194093,-371.4169620253165
578,1715411370140,-0.05,2.02,-1.45,86.55,-151.49000000000004,-373.11
579,1715411370150,-0.05,2.02,-1.45,86.55,-151.49,-373.11
580,1715411370160,0.09544827586206897,2.0750344827586207,-1.3713793103448275,96.77068965517242,-160.82227586206895,-383.68841379310345
581,1715411370170,0.32,2.16,-1.25,112.55,-175.23,-400.02
582,1715411370180,0.32,2.16,-1.25,112.55,-175.23,-400.02000000000004
583,1715411370190,0.32,2.16,-1.25,112.55,-175.23,-400.02
584,1715411370200,0.5995454545454546,2.215909090909091,-1.1009090909090908,160.89272727272726,-169.51329545454544,-425.5890909090909
585,1715411370210,0.9200000000000002,2.28,-0.93,216.31,-162.96,-454.8999999999999
586,1715411370220,0.92,2.28,-0.93,216.31,-162.96,-454.9
587,1715411370230,0.9411320754716982,2.28,-0.9088679245283019,216.31,-162.96,-454.8999999999999
588,1715411370240,1.06,2.28,-0.7900000000000001,167.73505154639176,-198.89226804123712,-414.1745360824742
589,1715411370250,1.06,2.28,-0.79,158.14,-205.99,-406.13
590,1715411370260,1.06,2.28,-0.7900000000000001,158.14,-205.99000000000004,-406.13
591,1715411370270,1.06,2.28,-0.79,158.14,-205.99,-406.13
592,1715411370280,1.0690000000000002,2.199,-0.961,254.44,-148.86700000000002,-434.75
593,1715411370290,1.07,2.19,-0.9800000000000001,265.14,-142.52,-437.93
594,1715411370300,1.07,2.19,-0.9800000000000001,265.14,-142.52,-437.93
595,1715411370310,1.0515328467153284,2.2084671532846714,-1.008905109489051,267.4532116788321,-144.62204379562044,-432.1810948905109
596,1715411370320,0.8400000000000001,2.42,-1.34,293.95,-168.69999999999996,-366.33000000000004
597,1715411370330,0.8400000000000001,2.42,-1.34,293.95,-168.7,-366.33
598,1715411370340,0.8399999999999999,2.42,-1.34,293.95,-168.7,-366.33
599,1715411370350,0.8213953488372092,2.403720930232558,-1.4609302325581397,272.4472868217054,-195.66325581395347,-348.97271317829455
600,1715411370360,0.76,2.35,-1.86,198.3,-288.64,-289.12
601,1715411370370,0.76,2.35,-1.86,198.3,-288.64,-289.12
602,1715411370380,0.76,2.35,-1.86,198.3,-288.64,-289.12
603,1715411370390,0.76,2.35,-1.86,198.3,-288.64,-289.12
604,1715411370400,1.34,1.6323728813559322,-0.7294915254237289,160.38372881355932,-360.27491525423727,-281.8650847457627
605,1715411370410,1.35,1.62,-0.71,159.73,-361.51,-281.74
606,1715411370420,1.35,1.6199999999999999,-0.71,159.73,-361.51000000000005,-281.74
607,1715411370430,2.015,0.6540000000000001,0.515,159.73,-361.51,-281.74
608,1715411370440,3.25,-1.14,2.79,35.68787735849057,-455.3054716981132,-198.63386792452832
609,1715411370450,3.25,-1.14,2.79,35.1,-455.75,-198.24
610,1715411370460,3.25,-1.14,2.79,35.1,-455.75,-198.24000000000004
611,1715411370470,3.6798425196850393,-1.9429133858267718,3.592913385826771,128.70023622047242,-114.2928346456693,-212.19771653543307
612,1715411370480,3.7799999999999994,-2.13,3.7799999999999994,150.51,-34.73,-215.45
613,1715411370490,3.78,-2.13,3.78,150.51,-34.73,-215.45
614,1715411370500,3.78,-2.13,3.78,150.51,-34.73,-215.45
615,1715411370510,4.556470588235294,-1.8798039215686275,3.7368627450980387,-100.98019607843139,97.86529411764707,-43.8413725490196
616,1715411370520,4.68,-1.84,3.73,-140.99,118.96000000000001,-16.54
617,1715411370530,4.68,-1.84,3.73,-140.99,118.96,-16.54
618,1715411370540,4.569557522123894,-1.5794690265486728,3.3207964601769913,-170.41725663716815,141.9221238938053,11.746017699115043
619,1715411370550,3.9,0.0,0.84,-348.82,281.13,183.23
620,1715411370560,3.8999999999999995,0.0,0.84,-348.82,281.13,183.23
621,1715411370570,3.9000000000000004,0.0,0.84,-348.82,281.13,183.23
622,1715411370580,3.4319811320754714,0.5763207547169811,0.03933962264150942,-331.1067924528302,314.27339622641506,225.9545283018868
623,1715411370590,2.69,1.49,-1.23,-301.88,368.96,296.45
624,1715411370600,2.69,1.49,-1.23,-301.88,368.96,296.45
625,1715411370610,2.69,1.49,-1.23,-301.88,368.96,296.45
626,1715411370620,2.69,1.49,-1.23,-301.88,368.96000000000004,296.45
627,1715411370630,1.818457142857143,2.8488571428571428,-1.2862285714285715,-191.77508571428572,390.41120000000006,303.25365714285715
628,1715411370640,1.76,2.94,-1.29,-184.39,391.85,303.71
629,1715411370650,1.76,2.94,-1.29,-184.39,391.85,303.71
630,1715411370660,1.5817391304347825,3.1335403726708075,-1.3001863354037269,-230.457701863354,388.3051552795031,317.39024844720495
631,1715411370670,1.41,3.32,-1.31,-274.84,384.89,330.57
632,1715411370680,1.41,3.32,-1.31,-274.84,384.89,330.57
633,1715411370690,1.41,3.32,-1.31,-274.84,384.89,330.57
634,1715411370700,1.3620805369127515,3.1283221476510064,-1.1730872483221477,-274.84,384.89,330.57
635,1715411370710,1.27,2.76,-0.9099999999999999,-296.92,250.72442857142855,308.007
636,1715411370720,1.27,2.76,-0.91,-297.23999999999995,248.78,307.68
637,1715411370730,1.27,2.76,-0.9100000000000001,-297.24,248.77999999999997,307.68
638,1715411370740,1.3868679245283018,2.698490566037736,-0.7316226415094339,-323.93509433962265,208.30679245283017,361.29162264150943
639,1715411370750,1.46,2.66,-0.62,-340.64,182.98,394.84
640,1715411370760,1.46,2.66,-0.62,-340.64,182.98,394.84
641,1715411370770,1.46,2.66,-0.62,-340.64,182.98,394.84
642,1715411370780,1.2202395209580839,2.7337724550898206,-0.7122155688622754,-373.1217365269461,105.98940119760479,451.3682634730539
643,1715411370790,1.2,2.74,-0.72,-382.69,83.31,468.02
644,1715411370800,1.2,2.74,-0.72,-382.69,83.31,468.0199999999999
645,1715411370810,1.2376963350785342,2.750680628272251,-0.713089005235602,-380.02486910994764,78.34413612565444,471.61308900523557
646,1715411370820,1.8000000000000003,2.91,-0.61,-340.27,4.27,525.21
647,1715411370830,1.8,2.91,-0.61,-340.27,4.27,525.21
648,1715411370840,1.8,2.91,-0.61,-340.27,4.27,525.21
649,1715411370850,1.608689655172414,3.0751034482758626,-0.6047586206896551,-342.88551724137926,-38.512206896551724,532.9493793103449
650,1715411370860,1.07,3.54,-0.59,-350.52,-163.39,555.54
651,1715411370870,1.07,3.54,-0.59,-350.52,-163.39,555.54
652,1715411370880,1.07,3.54,-0.59,-350.52,-163.39,555.54
653,1715411370890,1.0522222222222224,4.126666666666667,-0.8877777777777778,-307.51244444444444,-128.46866666666665,532.2362962962962
654,1715411370900,1.03,4.86,-1.26,-86.61,50.9,412.53999999999996
655,1715411370910,1.03,4.86,-1.26,-86.61,50.9,412.54
656,1715411370920,1.03,4.86,-1.26,-86.61,50.9,412.54
657,1715411370930,0.14719745222929936,5.635796178343949,-1.6192356687898088,-100.74630573248407,2.781528662420379,397.65847133757967
658,1715411370940,-1.28,6.89,-2.2,-123.59999999999998,-75.01,373.6
659,1715411370950,-1.28,6.89,-2.2,-123.6,-75.01,373.6
660,1715411370960,-1.28,6.890000000000001,-2.2,-123.6,-75.01,373.6
661,1715411370970,-2.1993548387096777,6.315403225806452,-2.4451612903225803,-35.92120967741935,-32.398870967741935,105.79782258064516
662,1715411370980,-2.48,6.14,-2.52,7.39,-11.35,-26.490000000000002
663,1715411370990,-2.48,6.14,-2.52,7.39,-11.35,-26.49
664,1715411371000,-2.48,6.14,-2.52,7.39,-11.35,-26.49
665,1715411371010,-1.7557522123893805,5.065309734513274,-1.554336283185841,-24.8429203539823,-48.66823008849558,-153.9186725663717
666,1715411371020,-1.55,4.76,-1.28,-34.0,-59.269999999999996,-190.12
667,1715411371030,-1.5405208333333336,4.749687499999999,-1.2782291666666667,-33.74822916666667,-59.09125,-191.8125
668,1715411371040,-0.64,3.77,-1.11,-9.83,-42.11,-352.6
669,1715411371050,-0.64,3.77,-1.11,-9.83,-42.11000000000001,-352.6
670,1715411371060,-0.64,3.77,-1.11,-9.83,-42.11,-352.6
671,1715411371070,-0.64,3.7700000000000005,-1.11,-9.83,-42.11,-352.6
672,1715411371080,0.2866666666666667,3.0564666666666667,-0.8505333333333334,8.555066666666667,-55.74126666666667,-422.6745333333334
673,1715411371090,0.35999999999999993,3.0,-0.83,10.01,-56.82000000000001,-428.22
674,1715411371100,0.36,3.0,-0.83,10.01,-56.82000000000001,-428.22
675,1715411371110,0.4023529411764706,2.974901960784314,-0.8362745098039215,11.015490196078431,-58.299215686274515,-433.5964705882354
676,1715411371120,0.9,2.68,-0.91,22.83,-75.68,-496.77
677,1715411371130,0.8999999999999999,2.68,-0.91,22.83,-75.68,-496.77
678,1715411371140,0.9,2.68,-0.9100000000000001,22.830000000000002,-75.68,-496.77
679,1715411371150,0.9154098360655738,2.6878688524590166,-0.907704918032787,29.48967213114754,-74.61737704918033,-500.00770491803274
680,1715411371160,1.37,2.92,-0.84,225.95,-43.27,-595.52
681,1715411371170,1.3700000000000003,2.92,-0.84,225.94999999999996,-43.27,-595.52
682,1715411371180,1.37,2.9199999999999995,-0.84,225.95000000000002,-43.27,-595.52
683,1715411371190,1.4319760479041916,2.986107784431138,-0.9143712574850299,209.87161676646704,-60.837245508982036,-583.3764670658683
684,1715411371200,1.52,3.08,-1.02,153.38,-122.56,-540.71
685,1715411371210,1.5200000000000002,3.08,-1.02,153.38,-122.56,-540.71
686,1715411371220,1.52,3.08,-1.02,153.38,-122.56,-540.71
687,1715411371230,1.555875,3.31575,-1.4761250000000001,180.844875,-142.983125,-549.6275
688,1715411371240,1.59,3.54,-1.9099999999999997,206.97,-162.41,-558.11
689,1715411371250,1.59,3.54,-1.91,206.97000000000003,-162.41,-558.11
690,1715411371260,1.59,3.54,-1.91,206.97,-162.41,-558.11
691,1715411371270,1.5749032258064517,3.555096774193548,-1.9200645161290324,272.35916129032256,-200.43877419354837,-533.6582580645161
692,1715411371280,1.5599999999999998,3.5699999999999994,-1.9300000000000002,336.91,-237.97999999999996,-509.5199999999999
693,1715411371290,1.56,3.57,-1.93,336.91,-237.98,-509.5199999999999
694,1715411371300,1.56,3.57,-1.9300000000000002,336.91,-237.98,-509.52
695,1715411371310,1.595,3.02,-1.74,218.84,-310.52,-445.375
696,1715411371320,1.63,2.47,-1.55,100.77,-383.06,-381.23
697,1715411371330,1.63,2.47,-1.55,100.77,-383.06,-381.23
698,1715411371340,1.63,2.47,-1.55,100.77,-383.06,-381.2300000000001
699,1715411371350,1.6299999999999997,2.47,-1.55,100.77,-383.06,-381.23
700,1715411371360,2.0020588235294117,1.0155882352941177,-0.5014705882352941,161.82147058823531,-350.5978676470589,-388.34985294117644
701,1715411371370,2.07,0.75,-0.31,172.97,-344.67,-389.65
702,1715411371380,2.07,0.75,-0.31,172.97,-344.67,-389.65
703,1715411371390,3.3460416666666664,-1.0072916666666665,2.118125,104.566875,-326.86375,-375.628125
704,1715411371400,3.82,-1.66,3.02,79.16,-320.25,-370.42
705,1715411371410,3.82,-1.66,3.0200000000000005,79.16,-320.25,-370.42
706,1715411371420,3.82,-1.66,3.02,79.16,-320.25,-370.42
707,1715411371430,4.994814814814815,-2.102962962962963,3.973333333333333,-45.11944444444445,26.710555555555555,-221.29222222222225
708,1715411371440,5.04,-2.12,4.01,-52.43,47.12,-212.52000000000004
709,1715411371450,5.04,-2.12,4.01,-52.43,47.12,-212.52
710,1715411371460,4.973424657534246,-2.0441780821917805,3.658630136986301,-93.00191780821918,91.8408904109589,-166.34705479452057
711,1715411371470,4.68,-1.71,2.11,-289.37,308.29,57.13
712,1715411371480,4.68,-1.71,2.11,-289.37,308.29,57.129999999999995
713,1715411371490,4.68,-1.71,2.11,-289.37,308.29,57.13
714,1715411371500,4.228951612903225,-0.9026612903225806,1.2874999999999999,-340.65685483870965,306.88,155.0340322580645
715,1715411371510,3.4899999999999998,0.42,-0.06,-424.68,304.57,315.43
716,1715411371520,3.4900000000000007,0.42,-0.060000000000000005,-424.68,304.57,315.43
717,1715411371530,3.3973979591836736,0.5761224489795919,-0.17403061224489796,-410.6435204081633,308.57714285714286,320.13357142857143
718,1715411371540,2.28,2.46,-1.55,-241.27,356.93,376.89
719,1715411371550,2.28,2.46,-1.55,-241.26999999999998,356.93,376.89
720,1715411371560,2.28,2.46,-1.55,-241.27000000000004,356.93,376.89
721,1715411371570,2.28,2.46,-1.55,-241.27000000000004,356.93,376.89
722,1715411371580,1.687659574468085,2.7800000000000002,-1.23,-186.85439716312058,321.78851063829785,346.5612765957447
723,1715411371590,1.41,2.93,-1.08,-123.23,280.7,311.1
724,1715411371600,1.41,2.93,-1.08,-123.23,280.7,311.1
725,1715411371610,1.41,2.93,-1.08,-123.23,280.7,311.1
726,1715411371620,1.313157894736842,2.8735087719298242,-0.5231578947368422,-272.55780701754384,140.19280701754386,360.9424561403509
727,1715411371630,1.29,2.86,-0.39,-310.3,104.68000000000002,373.54
728,1715411371640,1.29,2.8600000000000003,-0.38999999999999996,-310.3,104.68,373.54
729,1715411371650,1.29,2.86,-0.39,-310.3,104.68,373.54
730,1715411371660,1.3407317073170733,2.6102439024390245,-0.19878048780487803,-343.74642276422765,60.08731707317074,401.08276422764226
731,1715411371670,1.42,2.22,0.1,-397.83,-12.02,445.61999999999995
732,1715411371680,1.42,2.22,0.1,-397.83,-12.019999999999998,445.62
733,1715411371690,1.42,2.22,0.1,-397.83,-12.02,445.62
734,1715411371700,1.42,2.22,0.1,-397.83,-12.02,445.62
735,1715411371710,1.42,2.22,0.1,-397.83,-12.02,445.62
736,1715411371720,1.43375,2.204475806451613,0.09866935483870969,-397.83,-12.02,445.62
737,1715411371730,1.62171875,2.0275,0.02078125,-44.989609375,88.920546875,398.06953124999995
738,1715411371740,1.62,2.03,0.02,-40.77,90.33,397.34
739,1715411371750,1.62,2.03,0.02,-40.77,90.33,397.34
740,1715411371760,1.62,2.03,0.02,-40.77,90.33,397.34
741,1715411371770,1.8278125,2.5228125,-0.21156250000000001,-40.15714285714286,85.43892857142858,436.94
742,1715411371780,1.97,2.86,-0.37,-39.73,82.03,464.54
743,1715411371790,1.97,2.86,-0.37,-39.73,82.03,464.54
744,1715411371800,1.97,2.86,-0.37,-39.73,82.03,464.5400000000001
745,1715411371810,2.3038709677419353,4.195483870967742,0.22354838709677421,-228.21612903225807,-63.696935483870966,606.6170967741936
746,1715411371820,2.33,4.3,0.27,-244.75,-76.48,619.08
747,1715411371830,2.33,4.3,0.27,-244.75,-76.48,619.08
748,1715411371840,2.2527659574468086,4.469148936170212,0.06638297872340428,-242.2252659574468,-61.68090425531915,612.1160638297873
749,1715411371850,1.12,6.95,-2.92,-201.6,176.45,500.06
750,1715411371860,1.12,6.95,-2.92,-201.6,176.45,500.06
751,1715411371870,1.12,6.95,-2.92,-201.6,176.45,500.06
752,1715411371880,0.3386363636363637,7.1647727272727275,-2.6745454545454543,-171.27409090909092,132.2047727272727,471.27022727272725
753,1715411371890,-2.7,8.0,-1.72,-53.34,-39.86,359.31
754,1715411371900,-2.7,8.0,-1.72,-53.34,-39.86,359.31
755,1715411371910,-2.7,8.0,-1.72,-53.34,-39.86,359.31
756,1715411371920,-2.7,8.0,-1.72,-53.34,-39.86,359.31
757,1715411371930,-2.4876020408163266,6.938010204081632,-2.643469387755102,13.746734693877551,156.7165306122449,-93.3073469387755
758,1715411371940,-2.47,6.85,-2.72,19.71,174.19,-133.54
759,1715411371950,-2.47,6.85,-2.72,19.71,174.19,-133.54
760,1715411371960,-2.0363636363636366,6.026090909090909,-2.2622727272727277,-34.69209090909091,70.53163636363637,-216.20554545454547
761,1715411371970,-1.57,5.14,-1.77,-93.2,-40.95,-305.11
762,1715411371980,-1.57,5.14,-1.77,-93.2,-40.95,-305.11
763,1715411371990,-1.57,5.14,-1.7700000000000002,-93.2,-40.95,-305.11
764,1715411372000,-0.639620253164557,4.475443037974683,-1.399746835443038,6.166075949367085,16.849620253164552,-428.3481012658228
765,1715411372010,0.38999999999999996,3.74,-0.99,118.96,82.46,-568.24
766,1715411372020,0.39,3.7399999999999998,-0.99,118.95999999999998,82.46,-568.24
767,1715411372030,0.39,3.74,-0.99,118.95999999999998,82.46,-568.24
768,1715411372040,0.39,3.7399999999999998,-0.99,118.95999999999998,82.45999999999998,-568.24
769,1715411372050,0.39,3.74,-0.9899999999999999,118.96,82.46,-568.24
770,1715411372060,0.995040650406504,3.015934959349593,-1.4165040650406504,64.71463414634147,-3.931869918699187,-549.2258536585366
771,1715411372070,1.0,3.01,-1.42,64.27,-4.64,-549.07
772,1715411372080,1.5625925925925928,3.109814814814815,-1.3111111111111111,136.65716049382715,-95.34925925925927,-573.3853086419753
773,1715411372090,1.62,3.12,-1.3,144.59,-105.29,-576.05
774,1715411372100,1.6200000000000003,3.12,-1.3000000000000003,144.59,-105.29,-576.05
775,1715411372110,1.654375,3.091875,-1.2640625,153.265875,-104.62975000000002,-573.3757499999999
776,1715411372120,1.84,2.94,-1.07,217.65,-99.73,-553.53
777,1715411372130,1.84,2.94,-1.07,217.65000000000003,-99.73,-553.53
778,1715411372140,1.84,2.94,-1.07,217.65,-99.73,-553.53
779,1715411372150,1.7674418604651163,3.105271317829457,-1.2796124031007754,222.22302325581396,-107.20906976744187,-548.6692248062016
780,1715411372160,1.66,3.35,-1.59,254.51999999999998,-160.03,-514.34
781,1715411372170,1.66,3.35,-1.59,254.52,-160.03,-514.34
782,1715411372180,1.66,3.35,-1.59,254.51999999999998,-160.03,-514.34
783,1715411372190,1.641318681318681,3.4284615384615384,-1.7095604395604396,287.14384615384614,-149.35785714285714,-503.62368131868135
784,1715411372200,1.61,3.56,-1.91,343.14,-131.04,-485.23
785,1715411372210,1.61,3.56,-1.9100000000000001,343.14,-131.04,-485.23
786,1715411372220,1.61,3.5599999999999996,-1.91,343.14,-131.04,-485.23
787,1715411372230,1.562608695652174,3.336583850931677,-2.038633540372671,300.16285714285715,-214.5976397515528,-427.46
788,1715411372240,1.5400000000000003,3.23,-2.1,279.66,-254.46,-399.90000000000003
789,1715411372250,1.54,3.23,-2.1,279.66,-254.46000000000004,-399.9
790,1715411372260,1.6145454545454547,3.1645454545454546,-2.0163636363636366,292.33413223140496,-257.03247933884296,-401.04082644628096
791,1715411372270,1.95,2.87,-1.64,369.87,-272.77,-408.02
792,1715411372280,1.95,2.87,-1.6400000000000001,369.87,-272.77,-408.02
793,1715411372290,1.95,2.87,-1.6399999999999997,369.87,-272.77,-408.02
794,1715411372300,2.1135775862068966,2.621077586206897,-1.2322413793103448,348.1210344827586,-284.5755172413793,-385.3888793103448
795,1715411372310,2.64,1.82,0.08,276.43,-323.49,-310.79
796,1715411372320,2.64,1.82,0.08,276.43,-323.49,-310.79
797,1715411372330,2.64,1.82,0.08,276.43,-323.49,-310.79
798,1715411372340,2.64,1.82,0.08,276.43,-323.49,-310.79
799,1715411372350,5.7889729729729735,-1.290918918918919,4.741621621621622,239.0745945945946,-407.37648648648656,-217.7183783783784
800,1715411372360,5.95,-1.45,4.98,236.94000000000003,-412.17,-212.4
801,1715411372370,5.95,-1.45,4.98,236.94,-412.17,-212.4
802,1715411372380,5.868978102189781,-1.4357664233576641,5.071970802919708,204.38131386861312,-370.7678102189781,-183.54058394160586
803,1715411372390,5.21,-1.32,5.82,-81.67,-7.02,70.01
804,1715411372400,5.21,-1.32,5.82,-81.67,-7.02,70.01
805,1715411372410,5.21,-1.32,5.82,-81.67,-7.02,70.01
806,1715411372420,4.885409836065573,-1.0900819672131148,5.003114754098361,-128.51065573770492,68.8960655737705,99.2427868852459
807,1715411372430,4.01,-0.47,2.8,-260.25,282.41,181.46
808,1715411372440,4.01,-0.47,2.8,-260.25,282.41,181.46
809,1715411372450,4.01,-0.47,2.8,-260.25,282.41,181.46
810,1715411372460,3.48776,1.1044,0.5574399999999999,-304.21047999999996,337.29735999999997,215.064
811,1715411372470,3.33,1.58,-0.12,-348.88,393.07000000000005,249.21
812,1715411372480,3.33,1.58,-0.12,-348.88,393.07,249.21
813,1715411372490,3.33,1.58,-0.12,-348.88,393.07,249.21
814,1715411372500,2.4786614173228347,2.8653543307086617,-1.847716535433071,-299.46062992125985,434.9441732283465,258.53299212598426
815,1715411372510,2.31,3.12,-2.19,-289.67,443.24,260.38
816,1715411372520,2.31,3.12,-2.19,-289.67,443.24,260.38
817,1715411372530,2.31,3.12,-2.19,-289.67,443.24,260.38
818,1715411372540,1.3161538461538462,3.422051282051282,-1.7028205128205127,-329.76085470085474,343.317094017094,278.1219658119658
819,1715411372550,1.29,3.43,-1.69,-331.18,339.78,278.75
820,1715411372560,1.29,3.43,-1.69,-331.18,339.78,278.75
821,1715411372570,1.29,3.43,-1.69,-331.18,339.78,278.75
822,1715411372580,1.4868992248062016,2.839302325581395,-0.8039534883720931,-416.31922480620153,159.57782945736434,396.39728682170545
823,1715411372590,1.49,2.83,-0.79,-417.66,156.74,398.25
824,1715411372600,1.49,2.83,-0.79,-417.66,156.74,398.25
825,1715411372610,1.496,2.82,-0.7,-367.392,163.564,399.326
826,1715411372620,1.52,2.78,-0.34,-166.32,190.86,403.63
827,1715411372630,1.52,2.78,-0.34,-166.32,190.86,403.63
828,1715411372640,1.52,2.78,-0.34,-166.32,190.86,403.63
829,1715411372650,1.4490909090909092,2.9490909090909088,-0.3727272727272728,-169.51999999999998,192.02515151515152,405.89515151515155
830,1715411372660,1.39,3.09,-0.4,-187.44,198.55,418.58
831,1715411372670,1.39,3.09,-0.4,-187.44,198.55,418.58
832,1715411372680,1.39,3.09,-0.4,-187.44,198.55,418.58
833,1715411372690,1.4941322314049585,2.708181818181818,-0.4867768595041323,-250.4689256198347,136.8285123966942,450.00479338842973
834,1715411372700,1.57,2.43,-0.55,-296.39,91.86,472.9
835,1715411372710,1.57,2.43,-0.55,-296.39,91.86,472.9
836,1715411372720,1.57,2.43,-0.55,-296.39,91.86,472.9
837,1715411372730,1.727883211678832,3.865985401459854,-0.6778102189781022,-268.2567153284672,9.076569343065694,592.8987591240876
838,1715411372740,1.78,4.34,-0.72,-258.97,-18.25,632.51
839,1715411372750,1.78,4.34,-0.72,-258.97,-18.25,632.51
840,1715411372760,1.78,4.34,-0.72,-258.97,-18.25,632.51
841,1715411372770,1.5013533834586468,5.102180451127819,-0.6298496240601503,-304.9384962406015,4.213834586466166,576.9363909774437
842,1715411372780,1.44,5.27,-0.61,-315.06,9.16,564.7
843,1715411372790,1.44,5.27,-0.61,-315.06,9.16,564.7
844,1715411372800,1.44,5.27,-0.61,-315.06,9.16,564.7
845,1715411372810,-1.4098360655737705,6.5732786885245895,-3.6162295081967213,-61.580983606557375,134.73524590163936,350.71901639344264
846,1715411372820,-1.84,6.77,-4.07,-23.32,153.69,318.42
847,1715411372830,-1.84,6.77,-4.07,-23.32,153.69,318.42
848,1715411372840,-2.1233333333333335,6.853333333333333,-3.726666666666667,-30.357027027027026,106.87783783783784,262.7027027027027
849,1715411372850,-2.69,7.02,-3.04,-52.25,-38.76,89.36
850,1715411372860,-2.69,7.02,-3.04,-52.25,-38.76,89.36
851,1715411372870,-2.69,7.02,-3.04,-52.25,-38.76,89.36
852,1715411372880,-2.69,7.02,-3.04,-52.25,-38.76,89.36
853,1715411372890,-1.4039534883720932,5.752325581395349,-2.7276744186046513,13.233255813953486,-24.736279069767438,-96.28930232558139
854,1715411372900,-1.29,5.64,-2.7,75.74,-11.35,-273.5
855,1715411372910,-1.29,5.640000000000001,-2.7,75.74,-11.349999999999998,-273.5
856,1715411372920,-1.0942127659574468,5.352723404255318,-2.443829787234043,53.76059574468085,-35.65459574468085,-288.76119148936175
857,1715411372930,-0.22,4.07,-1.3,-47.24,-147.34,-358.89
858,1715411372940,-0.22,4.07,-1.3,-47.24,-147.34,-358.89
859,1715411372950,-0.22,4.07,-1.3,-47.24,-147.33999999999997,-358.89
860,1715411372960,0.11240506329113925,3.6694092827004217,-1.2573839662447257,3.95037974683544,-116.54139240506329,-415.0451476793249
861,1715411372970,0.56,3.13,-1.2,72.88,-75.07,-490.66
862,1715411372980,0.56,3.13,-1.2,72.88,-75.07,-490.66
863,1715411372990,0.56,3.13,-1.2,72.88,-75.07,-490.66
864,1715411373000,0.8386259541984734,3.118854961832061,-1.0328244274809162,32.88045801526717,-122.96022900763359,-480.52358778625955
865,1715411373010,1.06,3.11,-0.9,1.1,-161.01,-472.47
866,1715411373020,1.06,3.11,-0.9,1.1,-161.01,-472.47
867,1715411373030,1.06,3.11,-0.9,1.1,-161.01,-472.47
868,1715411373040,1.5179925650557622,2.909628252788104,-0.9057249070631971,36.113531598513006,-127.39334572490705,-517.0956505576208
869,1715411373050,1.86,2.76,-0.91,62.26,-102.29,-550.42
870,1715411373060,1.86,2.76,-0.9099999999999999,62.260000000000005,-102.29,-550.42
871,1715411373070,,,,,,
872,1715411373080,,,,,,
873,1715411373090,1.6523595505617978,2.819325842696629,-1.1275280898876403,126.41101123595506,-111.05044943820225,-503.1570786516854
874,1715411373100,1.65,2.82,-1.13,127.13999999999999,-111.15,-502.62000000000006
875,1715411373110,1.65,2.82,-1.13,127.14,-111.15,-502.62000000000006
876,1715411373120,1.6664197530864195,2.8610493827160495,-1.2531481481481481,145.65055555555554,-122.87166666666666,-503.6383333333334
877,1715411373130,1.67,2.87,-1.28,152.77,-127.38,-504.0299999999999
878,1715411373140,1.67,2.87,-1.28,152.77,-127.38,-504.03000000000003
879,1715411373150,1.6583333333333332,2.8625000000000003,-1.3066666666666666,152.77,-127.38,-504.03
880,1715411373160,1.53,2.78,-1.6,218.16109090909092,-107.3950909090909,-501.2490909090909
881,1715411373170,1.53,2.78,-1.6,309.14,-79.59,-497.37999999999994
882,1715411373180,1.53,2.78,-1.6,309.14,-79.59,-497.38000000000005
883,1715411373190,1.53,2.78,-1.6,309.14,-79.59,-497.38
884,1715411373200,1.3690272373540857,2.841322957198443,-1.7073151750972764,280.22622568093385,-179.23980544747081,-436.7392607003891
885,1715411373210,1.32,2.86,-1.74,271.42,-209.59,-418.27
886,1715411373220,1.32,2.86,-1.74,271.42,-209.59,-418.27
887,1715411373230,1.4200000000000002,2.771627906976744,-1.628372093023256,293.1525581395349,-205.12023255813955,-422.45837209302323
888,1715411373240,1.75,2.48,-1.26,364.87,-190.37,-436.28
889,1715411373250,1.75,2.48,-1.26,364.87,-190.37,-436.28
890,1715411373260,1.75,2.48,-1.26,364.87,-190.37,-436.28
891,1715411373270,2.074435483870968,2.2426612903225807,-0.7439516129032258,329.99645161290323,-242.98516129032257,-404.1456451612903
892,1715411373280,3.24,1.39,1.11,204.71,-432.01,-288.7
893,1715411373290,3.24,1.39,1.11,204.71,-432.01,-288.7
894,1715411373300,3.24,1.39,1.11,204.71,-432.01,-288.7
895,1715411373310,5.286229508196722,-1.180737704918033,4.153442622950819,156.7527868852459,-392.94606557377045,-234.25983606557378
896,1715411373320,6.4,-2.58,5.81,129.7,-370.91,-203.55
897,1715411373330,6.4,-2.58,5.81,129.7,-370.91,-203.55
898,1715411373340,6.4,-2.58,5.81,129.7,-370.91,-203.55
899,1715411373350,5.557966101694915,-1.5586440677966102,5.131694915254238,-59.508135593220345,-4.305593220338991,-26.099152542372885
900,1715411373360,5.32,-1.27,4.94,-112.98,99.3,24.05
901,1715411373370,5.32,-1.27,4.94,-112.98,99.3,24.05
902,1715411373380,4.9803030303030305,-0.8756060606060606,3.90939393939394,-151.8810606060606,179.67,68.8209090909091
903,1715411373390,4.14,0.1,1.36,-248.11,378.48,179.57
904,1715411373400,4.14,0.1,1.36,-248.11,378.48,179.57
905,1715411373410,4.14,0.1,1.36,-248.10999999999999,378.48,179.57
906,1715411373420,4.14,0.1,1.36,-248.11,378.48,179.57
907,1715411373430,3.505,1.315,-0.2849999999999999,-334.58876923076923,383.3489230769231,252.97307692307692
908,1715411373440,2.87,2.53,-1.93,-423.77,388.37,328.67
909,1715411373450,2.87,2.53,-1.93,-423.7699999999999,388.37,328.67
910,1715411373460,2.224336283185841,2.874070796460177,-2.08716814159292,-355.12504424778757,354.60486725663714,346.06
911,1715411373470,1.35,3.3399999999999994,-2.3,-258.73,307.19,370.4800000000001
912,1715411373480,1.35,3.34,-2.3,-258.73,307.19,370.48
913,1715411373490,1.1300000000000001,3.3499999999999996,-1.95,-216.31,308.93,327.51500000000004
914,1715411373500,0.91,3.36,-1.6,-173.89,310.67,284.55
915,1715411373510,0.91,3.36,-1.6,-173.89,310.67,284.55
916,1715411373520,0.91,3.36,-1.6000000000000003,-173.89,310.67,284.55
917,1715411373530,0.91,3.36,-1.6000000000000003,-173.89,310.67,284.55
918,1715411373540,0.91,3.36,-1.6,-173.89,310.67,284.55
919,1715411373550,0.91,3.36,-1.6,-173.89,310.67,284.55
920,1715411373560,0.91,3.36,-1.6,-173.89,310.67,284.55
921,1715411373570,0.91,3.36,-1.6,-173.89,310.67,284.55
922,1715411373580,0.91,3.36,-1.6,-173.89,310.67,284.55
923,1715411373590,0.91,3.36,-1.6,-173.89,310.67,284.55
924,1715411373600,0.9099999999999999,3.3600000000000003,-1.6,-173.89,310.67,284.55
925,1715411373610,1.1060317460317461,3.1295238095238096,-1.0273809523809525,-197.03626984126984,225.21706349206352,380.3588888888889
926,1715411373620,1.27,2.96,-0.51,-213.38,141.11,475.89
927,1715411373630,1.27,2.96,-0.51,-213.38,141.11,475.89000000000004
928,1715411373640,1.27,2.96,-0.51,-213.38,141.11,475.89
929,1715411373650,1.27,2.96,-0.51,-213.38,141.11,475.89
930,1715411373660,1.5151923076923077,2.894615384615385,-0.5154487179487179,-193.5248717948718,122.02314102564102,483.6380769230769
931,1715411373670,1.6900000000000002,2.972857142857143,-0.5660714285714287,-181.1185714285714,95.19214285714285,498.73607142857145
932,1715411373680,1.44,4.08,-0.95,-215.94,4.46,570.62
933,1715411373690,1.44,4.08,-0.95,-215.94000000000003,4.46,570.62
934,1715411373700,1.44,4.08,-0.95,-215.94,4.46,570.62
935,1715411373710,1.6976811594202899,4.3560869565217395,-0.6984541062801933,-215.24338164251208,21.34304347826087,573.8095169082126
936,1715411373720,1.86,4.53,-0.54,-214.54,38.39,577.03
937,1715411373730,1.86,4.53,-0.54,-214.54,38.39,577.03
938,1715411373740,1.2867768595041325,5.004049586776859,-1.2778512396694215,-173.317520661157,73.55892561983471,537.164214876033
939,1715411373750,-1.03,6.92,-4.26,-6.71,215.7,376.04
940,1715411373760,-1.03,6.92,-4.26,-6.71,215.7,376.04
941,1715411373770,-1.03,6.92,-4.26,-6.71,215.7,376.04
942,1715411373780,-2.419618320610687,6.756183206106869,-4.26,-80.11106870229008,61.27007633587786,300.7596946564886
943,1715411373790,-3.49,6.63,-4.26,-152.4,-90.82,226.62
944,1715411373800,-3.49,6.63,-4.26,-152.4,-90.82,226.62
945,1715411373810,-3.4900000000000007,6.63,-4.26,-152.4,-90.82,226.62
946,1715411373820,-2.9596170212765958,5.86931914893617,-3.3946382978723406,-22.18034042553192,-37.41459574468085,-43.14608510638297
947,1715411373830,-2.73,5.54,-3.02,52.98,-6.59,-198.85
948,1715411373840,-2.73,5.54,-3.02,52.98,-6.59,-198.85
949,1715411373850,-2.73,5.54,-3.02,52.98,-6.59,-198.85
950,1715411373860,-1.1594416243654821,4.521725888324873,-2.519492385786802,60.75969543147208,-96.36928934010152,-328.5784263959391
951,1715411373870,-0.91,4.36,-2.44,62.68,-118.53,-360.6
952,1715411373880,-0.91,4.36,-2.44,62.68,-118.53,-360.6
953,1715411373890,-0.91,4.36,-2.44,62.68,-118.53,-360.6
954,1715411373900,0.10966666666666665,3.5626666666666664,-1.704,53.98433333333333,-152.08399999999997,-410.152
955,1715411373910,0.42000000000000004,3.32,-1.48,48.95000000000001,-171.51,-438.84
956,1715411373920,0.42,3.32,-1.48,48.95,-171.51,-438.84
957,1715411373930,0.42,3.32,-1.48,48.95,-171.51,-438.84
958,1715411373940,0.9544292237442923,2.9382648401826486,-1.470456621004566,63.569452054794525,-178.01958904109588,-469.0282191780822
959,1715411373950,0.98,2.92,-1.47,65.12,-178.71,-472.23
960,1715411373960,0.98,2.92,-1.47,65.12,-178.71,-472.23
961,1715411373970,1.0384070796460176,2.925309734513274,-1.456725663716814,65.12,-178.71,-472.23
962,1715411373980,1.64,2.9799999999999995,-1.32,117.72947368421052,-223.43456140350878,-503.7789473684211
963,1715411373990,1.64,2.98,-1.32,121.7,-226.81,-506.16
964,1715411374000,1.6457291666666665,2.9490625,-1.3016666666666667,121.7,-226.81000000000003,-506.16
965,1715411374010,1.6899999999999997,2.71,-1.16,132.92230303030303,-210.34206060606058,-509.53854545454544
966,1715411374020,1.69,2.71,-1.16,133.06,-210.14,-509.58
967,1715411374030,1.69,2.71,-1.16,133.06,-210.14,-509.58
968,1715411374040,1.6495,2.7640000000000002,-1.3625,131.55208333333334,-218.48641666666666,-499.18125
969,1715411374050,1.63,2.79,-1.46,129.21,-231.45,-483.03
970,1715411374060,1.63,2.79,-1.46,129.21,-231.45,-483.03
971,1715411374070,1.63,2.79,-1.46,129.21,-231.45,-483.03
972,1715411374080,1.4300000000000002,3.05,-1.7266666666666668,145.762,-235.402,-473.50999999999993
973,1715411374090,1.33,3.18,-1.86,170.59,-241.33,-459.23
974,1715411374100,1.33,3.18,-1.8600000000000003,170.59,-241.33000000000004,-459.23
975,1715411374110,1.33,3.18,-1.86,170.59,-241.33,-459.23
976,1715411374120,1.2491836734693877,3.1193877551020406,-2.088979591836735,193.62714285714284,-248.29000000000002,-458.67285714285714
977,1715411374130,1.21,3.09,-2.2,251.22,-265.69,-457.28
978,1715411374140,1.21,3.09,-2.2,251.22,-265.69,-457.28
979,1715411374150,1.21,3.09,-2.2,251.22,-265.69,-457.28
980,1715411374160,1.4699065420560748,2.4931775700934584,-1.911214953271028,283.52000000000004,-285.4091588785047,-411.3781308411215
981,1715411374170,1.4800000000000002,2.47,-1.9,287.6,-287.9,-405.58
982,1715411374180,1.48,2.47,-1.9,287.6,-287.9,-405.58
983,1715411374190,1.5304273504273505,2.4093162393162397,-1.8085470085470086,287.6,-287.9,-405.58
984,1715411374200,2.66,1.05,0.24,215.95929411764706,-346.7670588235294,-332.4343529411765
985,1715411374210,2.66,1.05,0.24,209.53,-352.05,-325.87
986,1715411374220,2.66,1.05,0.24,209.53,-352.05,-325.87
987,1715411374230,3.0950833333333336,0.7145833333333333,0.8495,188.21383333333333,-342.2361666666667,-307.79699999999997
988,1715411374240,4.93,-0.7,3.42,93.26,-298.52,-227.29
989,1715411374250,4.93,-0.7,3.4200000000000004,93.26,-298.52,-227.29
990,1715411374260,4.93,-0.7,3.42,93.26,-298.52,-227.29
991,1715411374270,4.93,-0.7,3.4200000000000004,93.26,-298.52,-227.29
992,1715411374280,4.93,-0.7,3.42,93.26,-298.52,-227.29
993,1715411374290,4.93,-0.7,3.42,93.26,-298.52,-227.29
994,1715411374300,4.93,-0.7,3.42,93.26,-298.52,-227.28999999999996
995,1715411374310,4.93,-0.7,3.42,93.26,-298.52,-227.29
996,1715411374320,4.93,-0.7,3.42,93.26,-298.52,-227.29
997,1715411374330,4.93,-0.7,3.42,93.26,-298.52,-227.29
998,1715411374340,4.609028340080972,-0.36526315789473685,2.689392712550607,-125.49303643724697,18.056234817813777,-9.824615384615377
999,1715411374350,3.68,0.82,0.13,-364.81,396.85,258.85
1000,1715411374360,3.68,0.82,0.13,-364.81,396.85,258.85
1001,1715411374370,3.68,0.82,0.13,-364.81,396.85,258.85
1002,1715411374380,3.68,0.82,0.13,-364.81,396.85,258.85
1003,1715411374390,3.68,0.82,0.13,-364.81,396.85,258.85
1004,1715411374400,3.68,0.82,0.13,-364.81,396.85,258.85
1005,1715411374410,3.68,0.82,0.13,-364.81,396.85,258.85
1006,1715411374420,3.68,0.8199999999999998,0.13,-364.81,396.85,258.85
1007,1715411374430,3.68,0.82,0.13,-364.81,396.85,258.85
1008,1715411374440,3.68,0.82,0.13,-364.80999999999995,396.85,258.85
1009,1715411374450,3.68,0.82,0.13,-364.81,396.85,258.85
1010,1715411374460,3.3103278688524593,1.2468032786885244,-0.261516393442623,-355.31278688524594,379.9593442622951,287.9465573770492
1011,1715411374470,1.48,3.36,-2.2,-308.29,296.33,432.01
1012,1715411374480,1.48,3.36,-2.2,-308.29,296.33,432.01
1013,1715411374490,1.48,3.36,-2.2,-308.29,296.33,432.01
1014,1715411374500,1.415,3.34,-1.61,-344.88817073170736,227.56396341463415,485.9688414634146
1015,1715411374510,1.5084753363228698,3.0541704035874435,-0.7030493273542601,-337.23986547085195,164.15470852017938,522.4781165919283
1016,1715411374520,1.66,2.8,-0.4,-294.07,170.9,504.52
1017,1715411374530,1.6379338842975206,2.6455371900826443,-0.5397520661157025,-175.37710743801654,210.59520661157026,437.58380165289253
1018,1715411374540,1.63,2.59,-0.59,-94.6,237.61,392.03
1019,1715411374550,1.63,2.59,-0.59,-94.6,237.61,392.03
1020,1715411374560,1.63,2.59,-0.59,-94.6,237.61,392.03
1021,1715411374570,1.5745378151260505,2.4689915966386553,-0.49924369747899155,-85.7109243697479,235.9158823529412,373.3190756302521
1022,1715411374580,1.52,2.35,-0.41,-76.97,234.25,354.92
1023,1715411374590,1.52,2.35,-0.41,-76.97,234.25,354.92
1024,1715411374600,1.52,2.35,-0.4099999999999999,-76.97,234.25,354.92
1025,1715411374610,1.6701298701298701,2.6237662337662337,-0.8338961038961038,-154.50545454545454,175.10545454545456,387.0886363636364
1026,1715411374620,1.69,2.66,-0.89,-177.31,157.71,396.55
1027,1715411374630,1.69,2.66,-0.89,-177.31,157.71,396.55
1028,1715411374640,1.7408264462809917,2.890413223140496,-0.9442148760330579,-179.99347107438015,150.9686776859504,400.64338842975206
1029,1715411374650,1.84,3.34,-1.05,-242.25,-5.43,495.61
1030,1715411374660,1.84,3.34,-1.05,-242.25,-5.43,495.61
1031,1715411374670,1.84,3.34,-1.05,-242.25,-5.43,495.61
1032,1715411374680,1.8243333333333334,3.9875555555555553,-1.6975555555555555,-217.67177777777778,-7.968666666666666,495.6553333333334
1033,1715411374690,1.81,4.58,-2.29,-177.19,-12.15,495.73
1034,1715411374700,1.81,4.58,-2.29,-177.19,-12.15,495.72999999999996
1035,1715411374710,1.81,4.58,-2.29,-177.19,-12.15,495.7300000000001
1036,1715411374720,-0.37263157894736837,5.789999999999999,-3.2047368421052633,-86.21087719298245,15.24017543859649,420.02368421052637
1037,1715411374730,-1.96,6.67,-3.87,48.28,55.73,308.11
1038,1715411374740,-1.96,6.67,-3.87,48.28,55.73,308.11
1039,1715411374750,-1.96,6.67,-3.87,48.28,55.73,308.11
1040,1715411374760,-2.237777777777778,6.4517460317460325,-3.5128571428571425,-83.38428571428572,-118.92,173.83142857142857
1041,1715411374770,-2.24,6.45,-3.51,-136.05,-188.78,120.12
1042,1715411374780,-2.24,6.45,-3.51,-136.05,-188.78,120.12000000000002
1043,1715411374790,-2.2390598290598294,6.444017094017094,-3.5055982905982903,-136.05,-188.77999999999997,120.12
1044,1715411374800,-2.02,5.05,-2.48,-32.01871794871795,-134.87692307692308,-172.11435897435896
1045,1715411374810,-2.02,5.05,-2.48,-16.72,-126.95,-215.08999999999997
1046,1715411374820,-2.02,5.05,-2.48,-16.72,-126.95,-215.09
1047,1715411374830,-1.8605479452054794,4.954657534246575,-2.383013698630137,-14.816073059360729,-127.79968036529681,-221.96817351598173
1048,1715411374840,-0.08000000000000002,3.89,-1.3,35.4,-150.21,-403.38
1049,1715411374850,-0.08,3.89,-1.3,35.4,-150.21,-403.38
1050,1715411374860,-0.08,3.89,-1.3,35.4,-150.21,-403.38
1051,1715411374870,0.0651219512195122,3.794390243902439,-1.2846341463414634,30.696341463414633,-150.64170731707318,-413.3543902439024
1052,1715411374880,0.77,3.33,-1.21,-3.17,-153.75,-485.17
1053,1715411374890,0.77,3.33,-1.21,-3.17,-153.75,-485.17
1054,1715411374900,0.7699999999999999,3.3299999999999996,-1.21,-3.1700000000000004,-153.75,-485.16999999999996
1055,1715411374910,0.7699999999999999,3.3299999999999996,-1.21,-3.1700000000000004,-153.75,-485.17
1056,1715411374920,1.231271676300578,3.32393063583815,-1.2221387283236995,31.279710982658962,-143.63236994219653,-539.5515028901734
1057,1715411374930,1.5300000000000002,3.3199999999999994,-1.23,53.59,-137.08,-574.77
1058,1715411374940,1.5300000000000002,3.32,-1.23,53.589999999999996,-137.08,-574.77
1059,1715411374950,1.8588461538461538,3.215604395604396,-1.2665384615384614,69.16093406593407,-138.55642857142857,-578.6605494505494
1060,1715411374960,2.16,3.1200000000000006,-1.3,107.06,-142.15,-588.13
1061,1715411374970,2.16,3.1199999999999997,-1.3,107.06,-142.15,-588.13
1062,1715411374980,2.16,3.1200000000000006,-1.3,107.06,-142.15,-588.13
1063,1715411374990,2.0975,3.1200000000000006,-1.3833333333333333,128.39013888888888,-165.22435185185185,-569.2798148148148
1064,1715411375000,2.07,3.12,-1.42,140.69,-178.53,-558.41
1065,1715411375010,2.07,3.12,-1.42,140.69,-178.53,-558.41
1066,1715411375020,2.07,3.12,-1.42,140.68999999999997,-178.53,-558.41
1067,1715411375030,1.9371936758893282,3.186403162055336,-1.4797628458498024,199.83782608695654,-169.17569169960476,-560.2424110671938
1068,1715411375040,1.87,3.22,-1.51,239.14,-162.96,-561.46
1069,1715411375050,1.87,3.22,-1.51,239.14,-162.96,-561.46
1070,1715411375060,1.87,3.22,-1.51,239.14,-162.96,-561.46
1071,1715411375070,1.606969696969697,3.1706818181818184,-1.8634469696969695,304.1875,-157.335,-522.0925000000001
1072,1715411375080,1.55,3.16,-1.94,325.87,-155.46,-508.97
1073,1715411375090,1.55,3.16,-1.94,325.86999999999995,-155.46,-508.97
1074,1715411375100,1.55,3.16,-1.94,325.87,-155.46,-508.9700000000001
1075,1715411375110,1.6481818181818182,2.603636363636364,-1.6781818181818182,232.62553719008264,-263.705826446281,-399.2120247933884
1076,1715411375120,1.6700000000000002,2.48,-1.62,193.91,-308.65,-353.63999999999993
1077,1715411375130,1.67,2.48,-1.62,193.91,-308.65,-353.64
1078,1715411375140,2.1493388429752067,1.5021487603305785,-0.38330578512396696,195.5704132231405,-318.8418181818182,-349.0471074380165
1079,1715411375150,2.17,1.46,-0.33,199.34,-341.98,-338.62
1080,1715411375160,2.17,1.46,-0.33,199.34,-341.98,-338.61999999999995
1081,1715411375170,2.9233333333333333,0.78,0.7333333333333333,200.23605263157896,-338.4771052631579,-336.18684210526317
1082,1715411375180,4.43,-0.58,2.86,210.68999999999997,-297.61,-307.8
1083,1715411375190,4.43,-0.58,2.86,210.68999999999997,-297.61,-307.8
1084,1715411375200,4.429999999999999,-0.58,2.86,210.69,-297.61,-307.8
1085,1715411375210,4.43,-0.58,2.86,210.69,-297.61,-307.8
1086,1715411375220,4.456440677966102,-0.9684745762711865,3.242372881355932,151.9977966101695,-287.39372881355933,-251.6013559322034
1087,1715411375230,4.56,-2.49,4.74,-77.87999999999998,-247.38,-31.49
1088,1715411375240,4.56,-2.49,4.74,-77.88,-247.38,-31.49
1089,1715411375250,4.268076923076923,-1.7668269230769231,3.811153846153846,-101.72846153846154,-64.57211538461539,-0.14961538461538273
1090,1715411375260,4.12,-1.4,3.34,-135.56,194.76,44.31
1091,1715411375270,4.12,-1.4,3.34,-135.56,194.76,44.31
1092,1715411375280,4.12,-1.4,3.34,-135.56,194.76,44.31
1093,1715411375290,3.6744827586206896,-0.5910344827586207,1.8510344827586207,-236.98413793103452,251.41543103448276,131.66991379310346
1094,1715411375300,3.36,-0.02,0.8,-311.16,292.85,195.56
1095,1715411375310,3.36,-0.02,0.8,-311.16,292.85,195.56
1096,1715411375320,3.36,-0.02,0.8,-311.16,292.85,195.56
1097,1715411375330,2.088,1.9939999999999998,-1.8403636363636364,-372.3572727272727,288.41954545454547,291.01772727272726
1098,1715411375340,2.04,2.07,-1.94,-382.02,287.72,306.09
1099,1715411375350,2.04,2.07,-1.94,-382.02,287.72,306.09
1100,1715411375360,1.9605882352941177,2.1085714285714285,-1.9165546218487395,-378.54718487394956,288.0715546218488,304.95214285714286
1101,1715411375370,0.99,2.58,-1.63,-106.51000000000002,315.61,215.82
1102,1715411375380,0.99,2.5800000000000005,-1.6300000000000001,-106.51,315.61,215.82
1103,1715411375390,0.99,2.5799999999999996,-1.63,-106.51,315.61,215.82
1104,1715411375400,0.9724766355140186,2.5750934579439253,-1.5893457943925233,-106.50999999999999,315.61,215.82
1105,1715411375410,0.74,2.51,-1.05,-229.63344827586207,206.33827586206897,234.7013793103448
1106,1715411375420,0.74,2.51,-1.05,-243.84,193.73,236.88000000000002
1107,1715411375430,0.74,2.51,-1.05,-243.84,193.73,236.88
1108,1715411375440,0.74,2.51,-1.05,-243.84,193.73,236.88
1109,1715411375450,0.7885294117647059,2.209117647058824,-0.45794117647058824,-489.36,-48.35264705882353,443.285294117647
1110,1715411375460,0.79,2.2,-0.44,-513.12,-71.78,463.26
1111,1715411375470,0.79,2.2,-0.44,-513.12,-71.78,463.26
1112,1715411375480,0.79,2.2,-0.44,-513.12,-71.78,463.26
1113,1715411375490,1.3241935483870968,1.9230107526881721,0.12387096774193548,-286.7903225806452,-68.17903225806452,484.6985483870968
1114,1715411375500,1.33,1.92,0.13,-283.08,-68.12,485.05
1115,1715411375510,1.33,1.92,0.13,-283.08,-68.12,485.05
1116,1715411375520,1.3646818181818183,2.033954545454545,0.1646818181818182,-168.47145454545455,6.455818181818183,445.2848181818182
1117,1715411375530,1.4,2.15,0.2,-51.76,82.4,404.79
1118,1715411375540,1.4,2.15,0.2,-51.76,82.4,404.79
1119,1715411375550,1.4,2.15,0.2,-51.76,82.4,404.79
1120,1715411375560,1.5614583333333334,2.4208333333333334,-0.055208333333333325,-77.00854166666666,84.92875000000001,417.8020833333333
1121,1715411375570,1.71,2.67,-0.29,-123.05,89.54,441.53
1122,1715411375580,1.71,2.67,-0.29,-123.05,89.54,441.53
1123,1715411375590,1.7099999999999997,2.67,-0.29,-123.05,89.54,441.53
1124,1715411375600,1.7210476190476192,3.018,-0.21819047619047618,-166.88857142857142,20.51,520.9957142857143
1125,1715411375610,1.73,3.3,-0.16,-225.34,-71.53,626.95
1126,1715411375620,1.7299999999999998,3.2999999999999994,-0.16,-225.34,-71.53,626.95
1127,1715411375630,1.73,3.3,-0.16,-225.34,-71.53,626.95
1128,1715411375640,1.7462745098039216,5.049509803921568,-0.4854901960784314,-194.46,24.336666666666662,593.75
1129,1715411375650,1.75,5.45,-0.56,-179.02,72.27,577.15
1130,1715411375660,1.75,5.45,-0.56,-179.02,72.27,577.15
1131,1715411375670,1.4760869565217392,5.633478260869565,-0.8243478260869567,-179.02000000000004,72.27,577.15
1132,1715411375680,-1.4,7.56,-3.6,11.110612244897958,108.28632653061224,388.3173469387755
1133,1715411375690,-1.4,7.56,-3.6,53.89,116.39,345.83
1134,1715411375700,-1.4,7.56,-3.6,53.88999999999999,116.39,345.83
1135,1715411375710,-1.3999999999999997,7.56,-3.6,53.89,116.39000000000001,345.83
1136,1715411375720,-2.1790322580645163,6.832903225806452,-2.9174193548387097,-77.18182795698925,-49.581182795698915,182.53494623655914
1137,1715411375730,-2.45,6.58,-2.68,-125.37,-110.6,122.5
1138,1715411375740,-2.4384615384615387,6.563119658119658,-2.652649572649573,-123.42521367521367,-110.52581196581195,119.2488888888889
1139,1715411375750,-1.91,5.79,-1.4,-11.6,-106.26,-67.69
1140,1715411375760,-1.91,5.79,-1.4,-11.6,-106.26,-67.69
1141,1715411375770,-1.91,5.79,-1.4,-11.6,-106.26,-67.69
1142,1715411375780,-1.5945977011494252,5.305632183908046,-1.0695785440613026,-27.11103448275862,-93.30310344827586,-144.7641379310345
1143,1715411375790,-1.07,4.5,-0.52,-61.58,-64.51,-316.04
1144,1715411375800,-1.07,4.5,-0.52,-61.58,-64.51,-316.04
1145,1715411375810,-1.07,4.5,-0.52,-61.58,-64.51,-316.04
1146,1715411375820,-0.5607563025210084,3.9440756302521005,-0.804327731092437,-57.01781512605042,-66.08806722689076,-362.94449579831934
1147,1715411375830,0.13,3.19,-1.19,-49.38,-68.73,-441.47
1148,1715411375840,0.13,3.19,-1.19,-49.38,-68.73,-441.47
1149,1715411375850,0.13,3.19,-1.19,-49.38,-68.73,-441.47
1150,1715411375860,0.5803734439834025,3.195560165975104,-1.0120746887966805,-46.59161825726141,-97.16983402489626,-458.0301659751037
1151,1715411375870,0.94,3.2,-0.87,-42.66,-137.27,-481.38
1152,1715411375880,0.9400000000000001,3.2,-0.87,-42.66,-137.27,-481.38
1153,1715411375890,0.94,3.2,-0.87,-42.66,-137.27,-481.38
1154,1715411375900,1.4610869565217393,3.1080434782608695,-0.9006521739130435,2.871391304347826,-104.85682608695652,-536.2486956521739
1155,1715411375910,1.7899999999999998,3.05,-0.92,42.48,-76.66,-583.98
1156,1715411375920,1.79,3.05,-0.92,42.48,-76.66,-583.98
1157,1715411375930,1.79,3.05,-0.92,42.48,-76.66,-583.98
1158,1715411375940,1.8433716475095785,3.141494252873563,-1.255478927203065,28.25241379310345,-99.39103448275863,-574.3455172413793
1159,1715411375950,1.86,3.1699999999999995,-1.36,21.85,-109.62,-570.01
1160,1715411375960,1.86,3.17,-1.36,21.85,-109.62,-570.01
1161,1715411375970,1.86,3.17,-1.36,21.85,-109.62,-570.01
1162,1715411375980,1.8429729729729731,3.3487837837837837,-1.5217567567567567,177.72027027027028,-76.88243243243244,-627.459099099099
1163,1715411375990,1.84,3.38,-1.55,216.25,-68.79,-641.66
1164,1715411376000,1.84,3.38,-1.55,216.25,-68.79,-641.66
1165,1715411376010,1.83515625,3.3809375,-1.56140625,216.25,-68.79,-641.66
1166,1715411376020,1.53,3.44,-2.28,254.1645,-120.337,-579.5584999999999
1167,1715411376030,1.53,3.44,-2.28,256.16,-123.05,-576.29
1168,1715411376040,1.53,3.44,-2.28,256.16,-123.05,-576.2899999999998
1169,1715411376050,1.5525641025641026,3.3907692307692305,-2.2687179487179487,256.16,-123.05,-576.29
1170,1715411376060,1.75,2.96,-2.17,267.3117699115044,-232.9546017699115,-509.1324778761062
1171,1715411376070,1.75,2.96,-2.17,269.71,-256.59,-494.69
1172,1715411376080,1.75,2.96,-2.17,269.71,-256.59,-494.69
1173,1715411376090,1.7925,2.79,-1.9008333333333334,270.9481666666667,-258.19391666666667,-486.9775833333333
1174,1715411376100,1.8999999999999997,2.36,-1.22,277.53,-266.72,-445.98
1175,1715411376110,1.9,2.36,-1.22,277.53,-266.72,-445.98
1176,1715411376120,1.8999999999999997,2.36,-1.22,277.53,-266.72,-445.98
1177,1715411376130,2.7362499999999996,1.4637499999999999,-0.0012500000000000566,263.69,-298.64250000000004,-418.0575
1178,1715411376140,4.13,-0.03,2.03,222.17,-394.41,-334.29
1179,1715411376150,4.13,-0.030000000000000002,2.03,222.17,-394.41,-334.29
1180,1715411376160,4.13,-0.03,2.03,222.17,-394.41,-334.29
1181,1715411376170,4.769639639639639,-1.015045045045045,4.204774774774775,170.35513513513513,-340.2964864864865,-218.88324324324324
1182,1715411376180,5.129999999999999,-1.57,5.43,94.35999999999999,-260.93,-49.62
1183,1715411376190,5.13,-1.57,5.43,94.36,-260.93,-49.62
1184,1715411376200,5.13,-1.57,5.43,94.36,-260.93,-49.62
1185,1715411376210,4.84716814159292,-1.2871681415929206,4.683805309734513,-66.3667256637168,-19.728584070796472,36.58353982300885
1186,1715411376220,4.66,-1.1,4.19,-172.73,139.89,93.63
1187,1715411376230,4.66,-1.1,4.19,-172.73,139.89,93.63
1188,1715411376240,4.610681818181818,-1.028939393939394,4.043636363636365,-172.73,139.89,93.63
1189,1715411376250,3.73,0.24,1.43,-309.58112903225805,263.6535483870968,214.1024193548387
1190,1715411376260,3.73,0.24,1.43,-332.82,284.67,234.56
1191,1715411376270,3.73,0.24,1.43,-332.82,284.67,234.56
1192,1715411376280,3.450181818181818,0.802090909090909,0.7525454545454544,-334.5940909090909,300.15,243.99772727272727
1193,1715411376290,2.59,2.53,-1.33,-345.83,398.19,303.77
1194,1715411376300,2.59,2.53,-1.33,-345.83,398.19,303.77
1195,1715411376310,2.59,2.53,-1.33,-345.83,398.19,303.77
1196,1715411376320,2.4681395348837207,2.602558139534884,-1.3513953488372092,-334.651976744186,399.7601162790698,299.1695348837209
1197,1715411376330,1.28,3.31,-1.56,-208.5,417.48,247.25
1198,1715411376340,1.28,3.31,-1.56,-208.5,417.48,247.25
1199,1715411376350,1.28,3.31,-1.56,-208.5,417.48,247.25
1200,1715411376360,1.28656,3.1722400000000004,-1.17296,-244.05720000000002,385.36512,229.65536
1201,1715411376370,1.29,3.1,-0.97,-279.05,353.76,212.34
1202,1715411376380,1.29,3.1,-0.97,-279.05,353.76,212.34
1203,1715411376390,1.29,3.1,-0.97,-279.05,353.76,212.34
1204,1715411376400,1.5578625954198475,2.9429770992366415,-0.6374809160305344,-384.2011450381679,296.3853435114504,270.826106870229
1205,1715411376410,1.58,2.93,-0.61,-411.5,281.49,286.01
1206,1715411376420,1.58,2.93,-0.61,-411.5,281.49,286.01
1207,1715411376430,1.5740310077519382,2.947906976744186,-0.6313178294573644,-411.5,281.49,286.01
1208,1715411376440,1.51,3.14,-0.86,-426.533046875,204.49328125,378.783515625
1209,1715411376450,1.51,3.14,-0.86,-427.67,198.67,385.8
1210,1715411376460,1.51,3.14,-0.86,-427.67,198.67,385.8
1211,1715411376470,1.4091176470588234,3.121985294117647,-0.7338970588235294,-418.06845588235296,200.09191176470588,386.5602941176471
1212,1715411376480,1.23,3.09,-0.51,-308.96,216.25,395.2
1213,1715411376490,1.23,3.09,-0.51,-308.96,216.25,395.19999999999993
1214,1715411376500,1.23,3.09,-0.51,-308.96,216.25,395.2
1215,1715411376510,1.2513636363636365,3.1205194805194805,-0.5924025974025974,-310.51454545454544,213.71136363636364,386.29545454545456
1216,1715411376520,1.3,3.19,-0.78,-315.8,205.08,356.02
1217,1715411376530,1.3,3.19,-0.78,-315.8,205.08,356.02
