id,timestamp,acc_x,acc_y,acc_z,gyro_x,gyro_y,gyro_z
0,1715411377840,2.55,3.11,-1.07,211.06,-150.02,-567.63
1,1715411377850,2.55,3.11,-1.07,211.06,-150.02,-567.63
2,1715411377860,2.356304347826087,3.121739130434783,-1.240217391304348,298.028115942029,-170.4721739130435,-541.798115942029
3,1715411377870,2.22,3.13,-1.36,361.08,-185.3,-523.07
4,1715411377880,2.22,3.13,-1.36,361.08,-185.3,-523.07
5,1715411377890,2.22,3.13,-1.36,361.08,-185.3,-523.07
6,1715411377900,1.973061224489796,3.1053061224489795,-1.4999319727891156,345.5604761904762,-197.70523809523812,-464.18775510204085
7,1715411377910,1.92,3.1,-1.53,340.15,-202.03,-443.66
8,1715411377920,1.92,3.1,-1.53,340.15,-202.03,-443.65999999999997
9,1715411377930,1.892317880794702,3.0548344370860927,-1.6086754966887418,342.9425827814569,-203.8407284768212,-440.7598675496689
10,1715411377940,1.73,2.79,-2.07,400.39,-241.09000000000003,-381.1
11,1715411377950,1.73,2.79,-2.07,400.39,-241.09000000000003,-381.1
12,1715411377960,1.7300000000000002,2.79,-2.07,400.39,-241.09,-381.1
13,1715411377970,1.8316959064327487,2.7680116959064325,-1.7923976608187135,389.68263157894734,-257.1770175438596,-369.32175438596494
14,1715411377980,2.1,2.71,-1.06,324.1,-355.71,-297.18
15,1715411377990,2.1,2.71,-1.06,324.1,-355.71,-297.18
16,1715411378000,2.1,2.71,-1.06,324.1,-355.71,-297.18
17,1715411378010,2.962066666666667,1.5888666666666666,0.07006666666666662,252.63180000000003,-402.0300666666667,-260.34766666666667
18,1715411378020,4.03,0.2,1.47,96.01,-503.54,-179.63
19,1715411378030,4.03,0.2,1.47,96.01,-503.54,-179.63
20,1715411378040,4.03,0.2,1.47,96.01,-503.54,-179.63
21,1715411378050,4.7983116883116885,-1.4227272727272726,3.5629870129870125,109.9735064935065,-325.01025974025976,-105.23662337662338
22,1715411378060,5.19,-2.25,4.63,123.23,-155.52,-34.61
23,1715411378070,5.19,-2.25,4.63,123.23,-155.52,-34.61
24,1715411378080,5.19,-2.25,4.63,123.23,-155.52,-34.61
25,1715411378090,4.446716417910448,-2.0619402985074626,4.504626865671642,-90.94388059701492,-61.198656716417915,95.59835820895523
26,1715411378100,4.36,-2.04,4.49,-169.62,-26.55,143.43
27,1715411378110,4.36,-2.04,4.49,-169.62,-26.550000000000004,143.43
28,1715411378120,4.2256,-1.7808000000000002,4.0796,-169.62,-26.55,143.43
29,1715411378130,3.8,-0.96,2.78,-156.87903703703705,280.12585185185185,189.39644444444446
30,1715411378140,3.8,-0.96,2.78,-156.49,289.49,190.8
31,1715411378150,3.8000000000000003,-0.96,2.78,-156.49,289.49,190.8
32,1715411378160,3.739856115107914,-0.09899280575539565,1.8525179856115108,-169.30460431654677,298.3485611510792,199.35863309352519
33,1715411378170,3.6099999999999994,1.7600000000000002,-0.15,-318.42,401.43,298.95
34,1715411378180,3.6099999999999994,1.7600000000000002,-0.15,-318.42,401.43,298.95
35,1715411378190,3.6099999999999994,1.76,-0.15,-318.42,401.43,298.95
36,1715411378200,3.086737588652482,2.498723404255319,-1.0558156028368795,-298.0795744680851,415.99340425531915,304.3934042553192
37,1715411378210,2.42,3.4399999999999995,-2.21,-258.67,444.21,314.94
38,1715411378220,2.42,3.4400000000000004,-2.21,-258.67,444.21,314.94000000000005
39,1715411378230,2.42,3.44,-2.21,-258.67,444.21,314.94
40,1715411378240,2.1448275862068966,3.4740689655172416,-2.058,-251.24448275862073,430.0044827586207,299.7103448275862
41,1715411378250,1.37,3.57,-1.63,-222.78,375.55,241.32999999999998
42,1715411378260,1.37,3.57,-1.63,-222.78,375.55,241.33000000000004
43,1715411378270,1.37,3.57,-1.63,-222.78,375.55,241.33
44,1715411378280,1.37,3.46,-1.48,-246.7451320754717,352.56600000000003,253.8335471698113
45,1715411378290,1.37,3.02,-0.88,-344.91,258.42,305.05
46,1715411378300,1.37,3.02,-0.88,-344.91,258.42,305.05
47,1715411378310,1.37,3.02,-0.88,-344.91,258.42,305.05
48,1715411378320,1.1289873417721519,2.952215189873418,-0.7143037974683544,-389.27202531645565,187.86056962025316,372.0567088607595
49,1715411378330,1.05,2.93,-0.66,-415.71,145.81,411.99
50,1715411378340,1.05,2.93,-0.66,-415.71,145.81,411.99000000000007
51,1715411378350,1.05,2.93,-0.66,-415.71,145.81,411.99
52,1715411378360,1.1230909090909091,2.5645454545454545,-0.48133333333333334,-398.16587878787874,104.642,416.13836363636364
53,1715411378370,1.14,2.48,-0.44,-369.02,36.25,423.03
54,1715411378380,1.14,2.48,-0.44000000000000006,-369.02,36.25,423.0299999999999
55,1715411378390,1.14,2.48,-0.44000000000000006,-369.02,36.25,423.03
56,1715411378400,1.667135135135135,2.460108108108108,-0.27091891891891895,-216.52999999999997,87.778,397.50600000000003
57,1715411378410,1.67,2.46,-0.27,-114.87,122.13,380.49
58,1715411378420,1.67,2.46,-0.27,-114.87,122.13,380.49
59,1715411378430,1.675625,2.518125,-0.294375,-114.87000000000002,122.12999999999998,380.49
60,1715411378440,1.73,3.08,-0.53,-277.6565240641711,-51.33256684491979,473.71572192513366
61,1715411378450,1.73,3.08,-0.53,-290.83,-65.37,481.26000000000005
62,1715411378460,1.73,3.0800000000000005,-0.53,-290.83,-65.37,481.25999999999993
63,1715411378470,1.8073684210526315,3.446578947368421,-0.5613157894736842,-270.1431578947368,-40.69894736842105,481.485
64,1715411378480,2.15,5.07,-0.7,-133.61,122.13,482.97
65,1715411378490,2.15,5.07,-0.7,-133.61,122.13,482.96999999999997
66,1715411378500,2.15,5.07,-0.7,-133.61,122.12999999999998,482.97
67,1715411378510,2.15,5.07,-0.7,-133.61,122.13,482.97
68,1715411378520,-0.022857142857142868,6.490714285714286,-2.9842857142857144,-207.3557142857143,8.602738095238095,512.9717857142857
69,1715411378530,-0.18999999999999997,6.6,-3.1600000000000006,-250.49000000000004,-57.8,530.52
70,1715411378540,-0.19,6.6,-3.16,-250.49,-57.8,530.52
71,1715411378550,-0.733617747440273,6.762184300341297,-3.265119453924915,-184.27211604095564,-47.76668941979522,415.0619795221843
72,1715411378560,-2.0,7.14,-3.51,18.98,-16.97,60.67
73,1715411378570,-2.0,7.14,-3.51,18.98,-16.97,60.67
74,1715411378580,-2.0,7.14,-3.51,18.98,-16.97,60.67000000000001
75,1715411378590,-2.0551515151515147,6.622424242424243,-3.0263636363636364,-0.4253939393939383,-56.095030303030306,-8.873696969696967
76,1715411378600,-2.13,5.920000000000001,-2.37,-33.51,-122.79999999999998,-127.44
77,1715411378610,-2.13,5.92,-2.37,-33.51,-122.8,-127.44
78,1715411378620,-2.13,5.92,-2.37,-33.51,-122.8,-127.44
79,1715411378630,-2.13,5.92,-2.37,-33.51,-122.8,-127.44000000000001
80,1715411378640,-0.38,4.77375,-1.20625,51.084999999999994,-123.28125,-373.53375000000005
81,1715411378650,-0.13,4.61,-1.04,63.169999999999995,-123.35000000000001,-408.69
82,1715411378660,-0.13,4.61,-1.04,63.17000000000001,-123.35,-408.69
83,1715411378670,0.6043930635838151,4.0959248554913295,-0.7863005780346821,21.241011560693643,-129.88774566473987,-463.0234682080925
84,1715411378680,0.97,3.8399999999999994,-0.66,-4.94,-133.97,-496.94999999999993
85,1715411378690,0.97,3.8400000000000003,-0.66,-4.94,-133.97,-496.95
86,1715411378700,0.97,3.8400000000000003,-0.66,-4.94,-133.97,-496.95
87,1715411378710,1.331006289308176,3.606666666666667,-0.7612578616352201,-11.377547169811322,-125.21283018867925,-506.29811320754715
88,1715411378720,1.79,3.31,-0.89,-42.85,-82.4,-552.0
89,1715411378730,1.79,3.31,-0.89,-42.85,-82.4,-552.0
90,1715411378740,1.79,3.31,-0.89,-42.85,-82.4,-552.0
91,1715411378750,2.144593023255814,3.303779069767442,-1.0393023255813953,21.791860465116276,-83.2232558139535,-581.8372093023256
92,1715411378760,2.36,3.3,-1.13,96.13,-84.17,-616.15
93,1715411378770,2.36,3.3000000000000003,-1.13,96.13000000000001,-84.17,-616.15
94,1715411378780,2.36,3.3,-1.13,96.13,-84.17,-616.15
95,1715411378790,2.3516770186335405,3.183478260869565,-0.90527950310559,122.21422360248447,-91.96863354037268,-606.2206832298136
96,1715411378800,2.35,3.16,-0.86,158.81,-102.91,-592.29
97,1715411378810,2.35,3.16,-0.8599999999999999,158.81,-102.91,-592.29
98,1715411378820,2.35,3.16,-0.86,158.81,-102.91,-592.29
99,1715411378830,2.2427058823529413,3.1644705882352944,-1.0075294117647058,197.1229411764706,-98.40364705882352,-582.41
100,1715411378840,2.11,3.17,-1.19,244.51000000000002,-92.83,-570.19
101,1715411378850,2.11,3.17,-1.19,244.50999999999996,-92.83,-570.19
102,1715411378860,2.101645569620253,3.1681012658227847,-1.1934177215189874,244.51000000000002,-92.83,-570.19
103,1715411378870,1.89,3.12,-1.28,336.1790243902439,-100.38268292682926,-510.4534146341463
104,1715411378880,1.89,3.12,-1.28,340.88,-100.77,-507.39000000000004
105,1715411378890,1.89,3.12,-1.28,340.88,-100.77,-507.39
106,1715411378900,1.7805882352941176,2.982222222222222,-1.2962091503267974,323.86901960784314,-135.59771241830066,-485.0754901960785
107,1715411378910,1.62,2.78,-1.32,284.3,-216.61,-433.17
108,1715411378920,1.62,2.78,-1.32,284.3,-216.61,-433.17
109,1715411378930,1.6199999999999999,2.78,-1.32,284.3,-216.60999999999999,-433.16999999999996
110,1715411378940,1.758917525773196,2.3394329896907213,-0.9072164948453608,273.1155670103093,-225.4236082474227,-421.25309278350517
111,1715411378950,1.97,1.6699999999999997,-0.28,246.89000000000001,-246.09,-393.31
112,1715411378960,1.97,1.67,-0.28,246.89,-246.09,-393.31
113,1715411378970,1.97,1.67,-0.28,246.88999999999996,-246.09,-393.31
114,1715411378980,2.8264705882352943,0.7645882352941176,1.2861176470588234,164.35999999999999,-298.02,-344.7788235294118
115,1715411378990,3.37,0.19,2.28,91.0,-344.18,-301.64
116,1715411379000,3.37,0.19000000000000003,2.28,91.0,-344.18,-301.64
117,1715411379010,3.37,0.19,2.28,91.0,-344.18,-301.64
118,1715411379020,4.385751295336787,-1.9977720207253886,3.67440414507772,26.078134715025907,-276.19740932642486,-233.49036269430053
119,1715411379030,5.06,-3.45,4.6,-29.48,-218.02,-175.17
120,1715411379040,5.06,-3.45,4.6,-29.479999999999997,-218.02,-175.17
121,1715411379050,5.06,-3.45,4.6,-29.48,-218.02,-175.17
122,1715411379060,4.736923076923077,-2.884615384615385,3.775,-86.6152564102564,-53.86647435897436,-37.55717948717948
123,1715411379070,4.5,-2.47,3.17,-134.34,83.25,77.39
124,1715411379080,4.5,-2.47,3.17,-134.34,83.25,77.39
125,1715411379090,4.5,-2.47,3.1700000000000004,-134.34,83.25,77.39
126,1715411379100,3.7854545454545456,-0.9218181818181819,1.706883116883117,-164.562987012987,162.25168831168833,147.52246753246752
127,1715411379110,3.66,-0.65,1.45,-209.41,279.48,251.59
128,1715411379120,3.6600000000000006,-0.65,1.45,-209.40999999999997,279.48,251.59000000000003
129,1715411379130,3.23765625,0.96484375,-0.015781250000000014,-239.8496875,321.5228125,306.73364583333336
130,1715411379140,3.1499999999999995,1.3,-0.32,-246.40000000000003,330.57,318.6
131,1715411379150,3.15,1.3,-0.32,-246.4,330.57,318.6
132,1715411379160,2.9014285714285712,1.655714285714286,-0.5857142857142857,-246.4,330.57,318.6
133,1715411379170,1.99,2.96,-1.56,-236.9170403587444,315.38973094170404,364.5834080717489
134,1715411379180,1.99,2.96,-1.56,-236.33,314.45,367.43
135,1715411379190,1.99,2.96,-1.56,-236.33,314.45,367.43
136,1715411379200,1.4903870967741937,2.928774193548387,-1.1852903225806453,-204.02393548387099,303.2858064516129,352.3848387096774
137,1715411379210,1.35,2.92,-1.08,-141.85,281.8,323.43
138,1715411379220,1.35,2.92,-1.08,-141.85,281.8,323.43
139,1715411379230,1.35,2.92,-1.08,-141.85,281.8,323.43
140,1715411379240,1.6132,2.92,-0.47840000000000005,-164.73333333333332,266.18333333333334,314.63
141,1715411379250,1.63,2.92,-0.44,-169.31,263.06,312.87
142,1715411379260,1.6300000000000001,2.92,-0.44,-169.31,263.06,312.87
143,1715411379270,1.615234899328859,2.9159731543624163,-0.4426845637583892,-179.18842281879196,257.8687919463087,317.8018791946309
144,1715411379280,1.52,2.89,-0.45999999999999996,-297.3,195.8,376.77
145,1715411379290,1.52,2.89,-0.46,-297.3,195.8,376.77
146,1715411379300,1.52,2.89,-0.46,-297.3,195.8,376.77
147,1715411379310,1.52,2.89,-0.46,-297.3,195.8,376.77
148,1715411379320,1.5036042402826855,2.7834275618374558,-0.32063604240282684,-278.4943462897526,176.00494699646643,389.97141342756186
149,1715411379330,1.5,2.76,-0.29,-270.69,167.79,395.45
150,1715411379340,1.5,2.76,-0.29,-270.69,167.79,395.45
151,1715411379350,1.5,2.76,-0.29,-270.69,167.79,395.45
152,1715411379360,1.5922360248447207,2.7851552795031056,-0.49124223602484474,-294.28565217391304,128.94186335403725,449.1313664596274
153,1715411379370,1.61,2.7900000000000005,-0.53,-298.83,121.46,459.47
154,1715411379380,1.6100000000000003,2.79,-0.53,-298.83,121.45999999999998,459.46999999999997
155,1715411379390,1.61,2.79,-0.53,-298.83,121.45999999999998,459.47
156,1715411379400,1.8121341463414633,3.468963414634146,-0.6336585365853659,-236.02463414634147,113.08048780487805,458.7836585365854
157,1715411379410,2.0,4.1,-0.73,-176.21,105.1,458.13
158,1715411379420,2.0,4.1,-0.73,-176.21,105.1,458.13
159,1715411379430,2.1741470588235297,4.639294117647059,-1.6288235294117646,-323.2878823529412,56.802617647058824,516.1674117647059
160,1715411379440,2.31,5.06,-2.33,-475.65,6.7700000000000005,576.29
161,1715411379450,2.31,5.06,-2.33,-475.6499999999999,6.77,576.29
162,1715411379460,2.31,5.06,-2.33,-475.65,6.77,576.29
163,1715411379470,0.8550000000000001,6.164397590361445,-2.7273493975903613,-128.0772891566265,65.94243975903615,468.05969879518074
164,1715411379480,-0.18,6.950000000000001,-3.0100000000000002,169.01,116.52,375.55
165,1715411379490,-0.18,6.95,-3.01,169.01,116.52000000000001,375.55
166,1715411379500,-0.18,6.95,-3.01,169.01,116.52,375.55
167,1715411379510,-1.09875,6.773055555555556,-3.7960416666666665,90.10444444444444,99.93666666666667,326.5861111111111
168,1715411379520,-2.88,6.429999999999999,-5.32,-115.05,56.82,199.28
169,1715411379530,-2.88,6.43,-5.32,-115.05,56.82,199.28
170,1715411379540,-2.88,6.43,-5.32,-115.05,56.82,199.28
171,1715411379550,-2.6822377622377624,5.476503496503496,-4.175804195804195,-37.039510489510484,-51.09083916083917,17.103426573426578
172,1715411379560,-2.6,5.08,-3.7,33.69,-148.93,-148.07
173,1715411379570,-2.6,5.08,-3.7,33.69,-148.93,-148.07
174,1715411379580,-2.6,5.08,-3.7,33.69,-148.93,-148.07
175,1715411379590,-0.624,3.952,-1.716,-9.530428571428573,-241.3294285714286,-251.00085714285717
176,1715411379600,-0.13,3.67,-1.22,-28.689999999999998,-282.29,-296.63
177,1715411379610,-0.13,3.6699999999999995,-1.22,-28.690000000000005,-282.29,-296.63
178,1715411379620,-0.13,3.67,-1.22,-28.69,-282.29,-296.63
179,1715411379630,0.581219512195122,3.0465853658536584,-1.026829268292683,14.84658536585366,-211.94640243902438,-390.6882317073171
180,1715411379640,0.68,2.96,-1.0,39.31,-172.42,-443.5400000000001
181,1715411379650,0.68,2.96,-1.0,39.31,-172.42,-443.5400000000001
182,1715411379660,0.6918285714285715,2.959485714285714,-1.0018857142857143,39.31,-172.42,-443.54
183,1715411379670,1.37,2.93,-1.11,60.46206896551725,-164.2431034482759,-479.8958620689655
184,1715411379680,1.37,2.93,-1.11,65.98,-162.11,-489.38
185,1715411379690,1.37,2.93,-1.11,65.98,-162.11,-489.38
186,1715411379700,1.4043373493975904,2.9318072289156625,-1.0892168674698794,65.98,-162.11,-489.38
187,1715411379710,1.75,2.95,-0.88,146.54441988950273,-158.57497237569058,-537.5780110497238
188,1715411379720,1.75,2.95,-0.88,150.76,-158.39,-540.1
189,1715411379730,1.75,2.95,-0.88,150.76,-158.39,-540.1
190,1715411379740,1.8233333333333335,2.9963157894736843,-0.860701754385965,164.2970760233918,-157.3993567251462,-541.5615204678363
191,1715411379750,1.94,3.07,-0.83,203.37,-154.54,-545.78
192,1715411379760,1.94,3.07,-0.83,203.37,-154.54,-545.78
193,1715411379770,1.94,3.07,-0.83,203.36999999999998,-154.54,-545.78
194,1715411379780,1.9169411764705881,2.9201176470588237,-1.014470588235294,210.97035294117646,-159.7941176470588,-532.5631764705882
195,1715411379790,1.8999999999999997,2.81,-1.15,220.14999999999998,-166.14,-516.6
196,1715411379800,1.9,2.81,-1.15,220.15,-166.14,-516.6
197,1715411379810,1.9000000000000001,2.81,-1.15,220.15,-166.14,-516.6
198,1715411379820,1.6880373831775701,3.0219626168224303,-1.291308411214953,252.01406542056077,-160.69303738317757,-510.9905607476636
199,1715411379830,1.48,3.23,-1.43,339.78,-145.69,-495.53999999999996
200,1715411379840,1.48,3.23,-1.43,339.78,-145.69,-495.5400000000001
201,1715411379850,1.467741935483871,3.1711612903225803,-1.4361290322580644,339.78,-145.69,-495.53999999999996
202,1715411379860,1.38,2.75,-1.48,275.5243902439024,-228.11243902439026,-416.22585365853655
203,1715411379870,1.38,2.75,-1.48,266.6,-239.56,-405.21
204,1715411379880,1.38,2.75,-1.48,266.6,-239.56,-405.21
205,1715411379890,1.607142857142857,2.2199999999999998,-1.0473469387755103,260.1395918367347,-249.6514285714286,-400.84210884353735
206,1715411379900,2.01,1.28,-0.28,147.89,-424.99,-324.95
207,1715411379910,2.01,1.28,-0.28,147.89,-424.99,-324.95
208,1715411379920,2.01,1.28,-0.28,147.89,-424.99,-324.95
209,1715411379930,2.229375,0.8785294117647059,0.2834926470588235,144.17419117647057,-412.0525,-324.60257352941176
210,1715411379940,3.54,-1.52,3.65,91.74,-229.49,-319.7
211,1715411379950,3.54,-1.52,3.65,91.74,-229.49,-319.7
212,1715411379960,3.54,-1.52,3.65,91.74,-229.49,-319.7
213,1715411379970,3.8065799256505577,-1.8050557620817844,3.6737546468401487,34.951747211895906,-208.11200743494425,-276.84736059479553
214,1715411379980,4.55,-2.6,3.7400000000000007,-202.03,-118.9,-98.02
215,1715411379990,4.55,-2.6,3.74,-202.03,-118.9,-98.02
216,1715411380000,4.55,-2.6,3.7400000000000007,-202.03000000000003,-118.89999999999999,-98.02
217,1715411380010,4.55,-2.6,3.74,-202.03,-118.9,-98.02000000000001
218,1715411380020,,,,,,
219,1715411380030,4.015934065934066,-2.1153846153846154,2.553186813186813,-166.89043956043957,210.75714285714284,63.99978021978021
220,1715411380040,4.01,-2.11,2.54,-166.5,214.42,65.8
221,1715411380050,3.1367123287671235,-0.20075342465753424,0.7677397260273973,-169.64054794520547,215.61260273972601,69.60383561643836
222,1715411380060,2.99,0.12,0.4699999999999999,-319.34,272.46,250.92
223,1715411380070,2.99,0.12000000000000001,0.47,-319.34,272.46,250.92
224,1715411380080,2.99,0.12,0.47000000000000003,-319.34,272.46,250.92000000000002
225,1715411380090,2.07248322147651,2.0142281879194632,-0.8816107382550337,-316.4696644295302,279.81302013422817,353.8711409395973
226,1715411380100,2.06,2.04,-0.9000000000000001,-316.1,280.76,367.13
227,1715411380110,2.06,2.04,-0.9,-316.1,280.76,367.13
228,1715411380120,2.06,2.04,-0.9,-316.1,280.76,367.13
229,1715411380130,1.5371428571428571,2.527207792207792,-0.941590909090909,-243.95798701298702,244.70564935064934,342.9346103896104
230,1715411380140,1.18,2.86,-0.9700000000000001,-186.16,215.82000000000002,323.55
231,1715411380150,1.18,2.86,-0.9699999999999999,-186.16,215.81999999999996,323.55
232,1715411380160,1.18,2.86,-0.97,-186.16,215.82,323.55
233,1715411380170,1.1203351955307264,2.7779608938547486,-0.5672625698324022,-385.4787709497206,33.9549720670391,405.93815642458105
234,1715411380180,1.1,2.75,-0.43000000000000005,-481.02,-53.22,445.42999999999995
235,1715411380190,1.1,2.75,-0.43,-481.02,-53.22,445.43
236,1715411380200,1.1,2.75,-0.43,-481.02,-53.220000000000006,445.43
237,1715411380210,1.4020661157024794,2.1177685950413223,-0.008512396694214865,-406.8120661157025,-135.11537190082643,470.3698347107438
238,1715411380220,1.53,1.8500000000000003,0.17,-359.68,-187.13,486.21
239,1715411380230,1.5300000000000002,1.8499999999999999,0.17,-359.68,-187.13,486.21
240,1715411380240,1.53,1.8500000000000003,0.17,-359.68,-187.13,486.2099999999999
241,1715411380250,1.7541772151898736,2.002120253164557,0.37015822784810126,-14.810063291139238,35.95639240506329,371.5508227848101
242,1715411380260,1.81,2.04,0.42,104.06,112.85,332.03
243,1715411380270,1.81,2.04,0.42000000000000004,104.05999999999999,112.85,332.03
244,1715411380280,1.8100000000000003,2.04,0.42,104.06,112.84999999999998,332.03
245,1715411380290,1.6729230769230767,2.5152,-0.13744615384615386,-42.23070769230768,110.74230769230769,396.97221538461537
246,1715411380300,1.6600000000000001,2.56,-0.19,-69.46,110.35,409.06
247,1715411380310,1.6599999999999997,2.56,-0.19,-69.46,110.35,409.06
248,1715411380320,1.66,2.56,-0.19,-69.46,110.35,409.06
249,1715411380330,1.7012052117263843,2.8319543973941372,-0.28889250814332246,-230.81960912052116,-12.631074918566778,526.808013029316
250,1715411380340,1.7099999999999997,2.89,-0.31,-265.26,-38.88,551.94
251,1715411380350,1.7690277777777776,3.0792361111111113,-0.2561805555555556,-255.05944444444444,-32.64319444444445,550.1744444444445
252,1715411380360,2.05,3.9800000000000004,0.0,-55.42,89.42,515.62
253,1715411380370,2.05,3.9800000000000004,0.0,-55.42,89.41999999999999,515.62
254,1715411380380,2.05,3.98,0.0,-55.419999999999995,89.42,515.62
255,1715411380390,1.3627272727272728,4.53309090909091,-0.9458181818181818,-55.42000000000001,89.42,515.62
256,1715411380400,-0.05,5.67,-2.89,-162.39253012048192,154.50722891566267,442.2050602409639
257,1715411380410,-0.05,5.67,-2.89,-194.15,173.83,420.41
258,1715411380420,-0.05,5.67,-2.8900000000000006,-194.15,173.83,420.41
259,1715411380430,-1.115128205128205,6.288461538461538,-3.091858974358974,-113.56961538461539,95.53019230769232,369.1077564102564
260,1715411380440,-2.53,7.11,-3.36,-6.53,-8.48,300.96
261,1715411380450,-2.53,7.11,-3.36,-6.53,-8.48,300.96
262,1715411380460,-2.53,7.11,-3.36,-6.53,-8.48,300.96
263,1715411380470,-2.571717791411043,6.100429447852761,-3.293251533742331,40.39619631901841,-2.76760736196319,62.107116564417176
264,1715411380480,-2.58,5.9,-3.2799999999999994,61.16,-0.24,-43.58
265,1715411380490,-2.58,5.9,-3.28,61.15999999999999,-0.24,-43.58
266,1715411380500,-2.58,5.9,-3.28,61.16,-0.24,-43.58
267,1715411380510,-2.58,5.8999999999999995,-3.28,61.16,-0.24,-43.58
268,1715411380520,-1.824223602484472,5.512422360248447,-2.1431055900621114,-6.73714285714286,-108.07701863354038,-131.1854658385093
269,1715411380530,-1.41,5.3,-1.5199999999999998,-43.95,-167.18,-179.2
270,1715411380540,-1.41,5.3,-1.52,-43.95,-167.18,-179.2
271,1715411380550,0.11038216560509555,3.377452229299363,-1.0099363057324842,1.6712738853503184,-77.25184713375796,-434.8988535031847
272,1715411380560,0.14,3.34,-1.0,2.56,-75.5,-439.88
273,1715411380570,0.14,3.34,-1.0,2.56,-75.5,-439.88
274,1715411380580,0.39017543859649123,3.1221052631578945,-0.9878947368421053,1.9108187134502923,-77.81140350877193,-443.78204678362573
275,1715411380590,0.76,2.7999999999999994,-0.97,-3.97,-98.75,-479.13
276,1715411380600,0.76,2.8,-0.9700000000000001,-3.9699999999999998,-98.75,-479.13
277,1715411380610,0.76,2.8,-0.97,-3.97,-98.75,-479.13
278,1715411380620,0.76,2.8,-0.97,-3.97,-98.75,-479.13
279,1715411380630,0.76,2.8,-0.97,-3.97,-98.75,-479.13
280,1715411380640,0.76,2.8,-0.97,-3.97,-98.75,-479.13
281,1715411380650,0.9340532544378698,2.7770118343195267,-0.9535798816568047,15.41230769230769,-104.34269230769232,-493.37937869822485
282,1715411380660,1.29,2.73,-0.92,55.05,-115.78000000000002,-522.52
283,1715411380670,1.29,2.73,-0.9199999999999999,55.05,-115.77999999999999,-522.52
284,1715411380680,1.29,2.73,-0.92,55.050000000000004,-115.78,-522.52
285,1715411380690,1.29,2.73,-0.92,55.05,-115.78,-522.52
286,1715411380700,1.29,2.73,-0.92,55.05,-115.78,-522.52
287,1715411380710,1.29,2.73,-0.92,55.05,-115.78,-522.52
288,1715411380720,1.29,2.73,-0.92,55.050000000000004,-115.78,-522.52
289,1715411380730,1.5225219941348975,3.0490322580645164,-1.1442521994134898,83.48035190615836,-153.45293255131963,-521.5059237536657
290,1715411380740,1.61,3.17,-1.23,94.3,-167.79,-521.12
291,1715411380750,1.61,3.17,-1.23,94.3,-167.79,-521.12
292,1715411380760,1.5893333333333333,3.2237333333333336,-1.3333333333333333,134.76533333333333,-159.38693333333333,-532.7511999999999
293,1715411380770,1.6690651558073653,2.9650141643059493,-1.511161473087819,204.45878186968838,-166.42246458923515,-515.7054674220963
294,1715411380780,1.7,2.87,-1.52,209.17,-173.71,-502.81
295,1715411380790,1.6999999999999997,2.87,-1.52,209.17,-173.71,-502.81
296,1715411380800,1.7,2.87,-1.5199999999999998,209.17,-173.71,-502.81
297,1715411380810,1.4649402390438246,2.87,-1.585816733067729,174.14792828685262,-231.33904382470118,-455.8474501992032
298,1715411380820,1.45,2.87,-1.59,167.11,-242.92,-446.41
299,1715411380830,1.45,2.87,-1.59,167.11,-242.92000000000002,-446.40999999999997
300,1715411380840,1.4948538011695907,2.7483625730994152,-1.508654970760234,167.11,-242.92,-446.41
301,1715411380850,2.04,1.27,-0.52,201.83029197080293,-276.629598540146,-440.2005109489051
302,1715411380860,2.04,1.27,-0.52,219.67,-293.95,-437.01
303,1715411380870,2.04,1.27,-0.52,219.67,-293.95,-437.01000000000005
304,1715411380880,2.453090909090909,0.820060606060606,0.24606060606060606,218.3492727272727,-292.6127272727273,-435.01800000000003
305,1715411380890,4.17,-1.05,3.43,147.03,-220.4,-327.45
306,1715411380900,4.17,-1.05,3.43,147.03,-220.4,-327.45
307,1715411380910,4.17,-1.05,3.43,147.03,-220.4,-327.45
308,1715411380920,4.390000000000001,-1.5148387096774194,3.6074193548387097,83.13606451612904,-206.40864516129034,-268.0768387096774
309,1715411380930,4.79,-2.36,3.93,-113.59,-163.33,-85.27
310,1715411380940,4.79,-2.36,3.93,-113.59,-163.33,-85.27
311,1715411380950,4.79,-2.36,3.93,-113.59,-163.33,-85.26999999999998
312,1715411380960,4.538,-1.8699999999999999,3.3653333333333335,-125.47296296296295,-85.02955555555556,-55.928518518518516
313,1715411380970,4.25,-1.31,2.72,-175.29,243.23,67.08
314,1715411380980,4.25,-1.31,2.72,-175.29,243.23,67.08
315,1715411380990,4.25,-1.31,2.72,-175.29,243.23000000000002,67.08
316,1715411381000,3.830060975609756,-0.5696951219512195,1.5640853658536584,-233.79359756097563,274.67128048780484,127.04109756097562
317,1715411381010,3.28,0.4,0.05,-356.32,340.52,252.62
318,1715411381020,3.28,0.4,0.05,-356.32,340.52,252.62
319,1715411381030,3.28,0.4,0.05,-356.32,340.52,252.62
320,1715411381040,2.4996129032258065,1.6387096774193548,-1.0586451612903227,-361.16354838709674,333.3925806451613,276.33612903225804
321,1715411381050,2.02,2.4,-1.74,-386.35,296.33,399.6600000000001
322,1715411381060,2.02,2.4,-1.74,-386.35,296.33,399.66
323,1715411381070,2.02,2.4,-1.7400000000000002,-386.35,296.33,399.66
324,1715411381080,1.867682119205298,2.5307947019867547,-1.6704635761589404,-350.7506622516557,291.92271523178806,390.4232450331126
325,1715411381090,1.1,3.19,-1.32,-171.33,269.71,343.87
326,1715411381100,1.1,3.19,-1.32,-171.33,269.71,343.87
327,1715411381110,1.1001801801801803,3.1858558558558556,-1.3012612612612613,-171.33,269.71,343.87
328,1715411381120,1.11,2.96,-0.28,-378.3203846153846,78.0946153846154,415.17769230769227
329,1715411381130,1.11,2.96,-0.28,-386.6,70.43,418.03
330,1715411381140,1.11,2.96,-0.28,-386.6,70.43,418.03
331,1715411381150,1.11,2.96,-0.28,-386.6,70.43,418.03000000000003
332,1715411381160,1.6305357142857144,2.1742857142857144,0.2307142857142857,-323.4490476190476,50.32142857142857,428.01142857142855
333,1715411381170,1.64,2.16,0.24,-308.59,45.59,430.36
334,1715411381180,1.6399999999999997,2.16,0.24,-308.59,45.59,430.36
335,1715411381190,1.6158333333333335,2.305,0.14937499999999998,-168.56374999999997,172.99,375.510625
336,1715411381200,1.6,2.4,0.09,11.47,336.79,304.99
337,1715411381210,1.6,2.4,0.09,11.47,336.79,304.99
338,1715411381220,1.6,2.4,0.09,11.47,336.79,304.99
339,1715411381230,1.6320224719101124,2.7842696629213486,-0.3775280898876405,-101.95258426966294,291.6347191011236,341.0101123595506
340,1715411381240,1.65,-0.64,-234.74,238.77000000000004,383.18000000000006
341,1715411381250,1.6499999999999997,-0.64,-234.74,238.77,383.18
342,1715411381260,1.65,-0.64,-234.74,238.77000000000004,383.18000000000006
343,1715411381270,1.6040217391304348,3.183913043478261,-0.877554347826087,-325.0217391304348,94.65521739130436,450.495652173913
344,1715411381280,1.59,3.24,-0.9500000000000001,-383.06,2.01,493.77
345,1715411381290,1.59,3.2399999999999998,-0.95,-383.06,2.01,493.77
346,1715411381300,1.59,3.24,-0.95,-383.06,2.01,493.77
347,1715411381310,1.4647560975609757,4.569512195121951,-1.2679268292682926,-278.73317073170733,63.95634146341464,481.00170731707317
348,1715411381320,1.46,4.62,-1.28,-240.48,86.67,476.32
349,1715411381330,1.46,4.62,-1.28,-240.48000000000002,86.67,476.32
350,1715411381340,1.46,4.62,-1.28,-240.47999999999996,86.67,476.32
351,1715411381350,1.0789308176100627,5.204654088050315,-2.1726415094339626,-253.32150943396223,13.995408805031449,477.181320754717
352,1715411381360,0.73,5.74,-2.99,-265.08,-52.55,477.9700000000001
353,1715411381370,0.73,5.74,-2.99,-265.08,-52.55,477.97
354,1715411381380,0.73,5.74,-2.99,-265.08,-52.54999999999999,477.97
355,1715411381390,-1.7110179640718564,7.252874251497006,-3.686107784431138,-202.46988023952096,31.24592814371258,297.325628742515
356,1715411381400,-1.9,7.37,-3.7399999999999998,-172.55,71.29,211.0
357,1715411381410,-1.9,7.37,-3.74,-172.55,71.29,211.0
358,1715411381420,-1.9,7.37,-3.74,-172.55,71.29,211.0
359,1715411381430,-1.9000000000000001,7.37,-3.74,-172.55,71.29,211.0
360,1715411381440,-1.9,7.37,-3.74,-172.55,71.29,211.0
361,1715411381450,-1.9,7.37,-3.74,-172.55,71.29,211.0
362,1715411381460,-1.9,7.370000000000001,-3.74,-172.55,71.29,211.0
363,1715411381470,-1.9,7.37,-3.74,-172.55,71.29,211.0
364,1715411381480,-1.9,7.37,-3.74,-172.55,71.29,211.0
365,1715411381490,-1.9041055718475073,7.359149560117303,-3.7397067448680352,-172.17196480938418,71.14375366568915,210.28709677419354
366,1715411381500,-1.0,4.53,-2.1,54.555224719101126,-174.61247191011236,-259.2168539325843
367,1715411381510,-1.0,4.53,-2.1,55.11,-175.72,-260.5
368,1715411381520,-1.0,4.53,-2.1,55.11,-175.72,-260.5
369,1715411381530,-1.0,4.53,-2.1,55.11,-175.72,-260.5
370,1715411381540,-0.8301219512195122,4.385365853658537,-1.9957317073170733,56.0084756097561,-174.95,-280.1942682926829
371,1715411381550,0.84,3.03,-1.04,70.5,-164.18,-484.8
372,1715411381560,0.8400000000000001,3.03,-1.04,70.5,-164.18,-484.79999999999995
373,1715411381570,1.4830232558139533,2.9974418604651167,-0.8365116279069768,141.54,-143.45,-535.11
374,1715411381580,1.63,2.99,-0.79,165.22,-136.54,-551.88
375,1715411381590,1.63,2.99,-0.7899999999999999,165.22,-136.54,-551.88
376,1715411381600,1.6300000000000001,2.9899999999999998,-0.79,165.22,-136.54,-551.88
377,1715411381610,1.74,3.063333333333333,-0.6891666666666667,217.0136507936508,-114.62571428571428,-558.3263492063493
378,1715411381620,1.75,3.07,-0.68,227.97,-109.99,-559.69
379,1715411381630,1.75,3.07,-0.68,227.96999999999997,-109.99,-559.69
380,1715411381640,1.75,3.0608396946564884,-0.7258015267175574,227.97,-109.99,-559.69
381,1715411381650,1.75,2.99,-1.08,296.46903536977493,-109.56138263665596,-557.1980385852091
382,1715411381660,1.75,2.99,-1.08,296.69,-109.56,-557.19
383,1715411381670,1.75,2.99,-1.08,296.69,-109.56,-557.19
384,1715411381680,1.7252727272727273,3.077272727272727,-1.112,297.22339393939393,-109.94987878787879,-557.0124242424242
385,1715411381690,1.5799999999999998,3.5900000000000003,-1.3,384.7,-173.89,-527.89
386,1715411381700,1.58,3.59,-1.3,384.7,-173.89,-527.89
387,1715411381710,1.58,3.5899999999999994,-1.3,384.7,-173.89,-527.89
388,1715411381720,1.536,3.3619999999999997,-1.44,365.713,-187.27599999999998,-498.172
389,1715411381730,1.47,3.02,-1.65,321.41,-218.51,-428.83
390,1715411381740,1.47,3.02,-1.65,321.41,-218.51,-428.83
391,1715411381750,1.47,3.02,-1.65,321.41,-218.51,-428.83
392,1715411381760,1.452896551724138,2.9002758620689657,-1.6457241379310346,307.214,-244.39068965517242,-407.2970344827586
393,1715411381770,1.43,2.74,-1.6399999999999997,272.4,-307.86,-354.49
394,1715411381780,1.43,2.74,-1.6400000000000001,272.4,-307.86,-354.49
395,1715411381790,1.43,2.74,-1.6399999999999997,272.4,-307.86,-354.49
396,1715411381800,1.43,2.74,-1.64,272.4,-307.86,-354.49
397,1715411381810,2.467542372881356,0.9683474576271186,0.6602118644067797,286.436186440678,-415.69588983050846,-330.65588983050844
398,1715411381820,2.49,0.93,0.71,286.74,-418.03,-330.14
399,1715411381830,2.49,0.93,0.71,286.74,-418.03,-330.14
400,1715411381840,3.822340425531914,-0.2734042553191489,2.4578014184397166,65.65028368794327,-344.3143262411347,-260.3640425531915
401,1715411381850,4.35,-0.75,3.15,-21.91,-315.12,-232.73
402,1715411381860,4.35,-0.75,3.15,-21.91,-315.12,-232.73
403,1715411381870,4.35,-0.75,3.15,-21.91,-315.12,-232.73
404,1715411381880,5.1286861313868615,-2.010729927007299,4.744452554744526,-32.63905109489051,-134.8861313868613,-90.69029197080292
405,1715411381890,5.19,-2.11,4.87,-35.52,-86.49,-52.55
406,1715411381900,5.19,-2.11,4.87,-35.52,-86.49,-52.55
407,1715411381910,5.098196721311475,-2.0206557377049177,4.6880327868852465,-35.52,-86.49,-52.55
408,1715411381920,4.07,-1.02,2.65,-198.18542372881356,227.37847457627117,86.95474576271187
409,1715411381930,4.07,-1.02,2.65,-200.99,232.79,89.36
410,1715411381940,4.07,-1.02,2.65,-200.99,232.79,89.36
411,1715411381950,3.9881896551724143,-0.8160344827586207,2.355258620689655,-208.1193103448276,236.31241379310342,97.13672413793104
412,1715411381960,3.3399999999999994,0.8,0.02,-366.39,314.51,269.78
413,1715411381970,3.34,0.8,0.02,-366.39,314.51,269.78
414,1715411381980,3.34,0.8000000000000002,0.02,-366.39,314.51,269.78
415,1715411381990,3.1266666666666665,1.1630769230769231,-0.31846153846153846,-363.3722222222222,317.24333333333334,282.6166666666666
416,1715411382000,2.3,2.57,-1.63,-339.23,339.11,385.31
417,1715411382010,2.3,2.57,-1.63,-339.2300000000001,339.10999999999996,385.31
418,1715411382020,2.3,2.57,-1.6299999999999997,-339.23,339.11,385.30999999999995
419,1715411382030,1.7509803921568627,3.064117647058824,-1.5696078431372549,-274.74764705882353,364.03205882352944,359.8663725490196
420,1715411382040,1.3,3.47,-1.52,-151.31,411.74,311.16
421,1715411382050,1.3,3.47,-1.52,-151.31,411.74,311.16
422,1715411382060,1.3,3.47,-1.52,-151.31,411.74,311.16
423,1715411382070,1.3069369369369368,3.2965765765765767,-1.0690990990990992,-227.89756756756756,359.7451351351351,319.5089189189189
424,1715411382080,1.31,3.22,-0.87,-286.25,320.13,325.87
425,1715411382090,1.31,3.22,-0.8700000000000001,-286.25,320.13,325.87
426,1715411382100,1.31,3.22,-0.87,-286.25,320.13,325.87
427,1715411382110,1.1342056074766356,2.9701869158878504,-0.5461682242990654,-353.2943925233645,234.48280373831776,361.4634579439252
428,1715411382120,1.12,2.95,-0.52,-381.9,197.94,376.65
429,1715411382130,1.12,2.9500000000000006,-0.52,-381.8999999999999,197.94,376.6499999999999
430,1715411382140,1.1264676616915423,2.9276119402985077,-0.5065671641791045,-381.9,197.94,376.65
431,1715411382150,1.25,2.5,-0.25,-394.9627358490566,109.5961320754717,365.9287735849056
432,1715411382160,1.25,2.5,-0.25,-398.19,87.77,363.28
433,1715411382170,1.25,2.5,-0.25,-398.19,87.77,363.28
434,1715411382180,1.2521862348178139,2.500728744939271,-0.2502834008097166,-398.19,87.77,363.28
435,1715411382190,1.79,2.68,-0.32,-379.5122764227642,71.25682926829269,462.4689430894309
436,1715411382200,1.79,2.68,-0.32,-376.1,68.24,480.59
437,1715411382210,1.79,2.68,-0.32,-376.1,68.24,480.59
438,1715411382220,1.751344537815126,2.8307563025210087,-0.3625210084033613,-374.5243697478992,63.146554621848736,482.26092436974784
439,1715411382230,1.59,3.46,-0.54,-344.85,-32.78,513.73
440,1715411382240,1.59,3.46,-0.54,-344.85,-32.78,513.73
441,1715411382250,1.59,3.46,-0.54,-344.85,-32.78,513.73
442,1715411382260,1.3969421487603306,4.015371900826446,-0.7277685950413223,-316.12772727272727,-6.246363636363636,502.8018181818182
443,1715411382270,0.86,5.56,-1.25,-134.22,161.8,433.59
444,1715411382280,0.86,5.56,-1.25,-134.22,161.8,433.59
445,1715411382290,0.86,5.56,-1.25,-134.22,161.8,433.59
446,1715411382300,0.86,5.56,-1.25,-134.22,161.8,433.59
447,1715411382310,-0.04615384615384618,6.001153846153846,-2.1025,-216.04807692307693,2.173846153846162,451.57
448,1715411382320,-0.66,6.3,-2.68,-271.48,-105.96,463.75
449,1715411382330,-0.66,6.3,-2.68,-271.48,-105.96,463.75
450,1715411382340,-0.66,6.3,-2.68,-271.48,-105.96,463.75
451,1715411382350,-1.8461924686192466,6.9736401673640165,-3.6099163179916323,-13.74673640167364,62.03267782426778,108.5439330543933
452,1715411382360,-2.28,7.22,-3.9500000000000006,80.51,123.46999999999998,-21.36
453,1715411382370,-2.28,7.22,-3.95,80.51,123.47,-21.36
454,1715411382380,-2.195322580645161,7.053870967741935,-3.8024193548387095,80.51,123.47,-21.36
455,1715411382390,-1.23,5.16,-2.1200000000000006,4.416831275720165,-77.43271604938272,-141.11818930041153
456,1715411382400,-1.23,5.16,-2.12,-6.71,-106.80999999999999,-158.63
457,1715411382410,-1.23,5.16,-2.12,-6.71,-106.81,-158.63
458,1715411382420,-1.1804854368932038,5.088932038834951,-2.0565048543689324,-6.71,-106.81,-158.63
459,1715411382430,-0.38,3.94,-1.03,13.264603174603176,-81.65841269841269,-328.0212698412698
460,1715411382440,-0.38,3.94,-1.03,16.17,-78.0,-352.66
461,1715411382450,-0.38,3.94,-1.03,16.17,-78.0,-352.66
462,1715411382460,0.18389312977099237,3.3000763358778626,-0.8969465648854962,14.5081679389313,-78.19770992366412,-404.19282442748096
463,1715411382470,0.51,2.93,-0.82,13.06,-78.37,-449.1
464,1715411382480,0.51,2.93,-0.82,13.06,-78.37,-449.1
465,1715411382490,0.51,2.93,-0.82,13.06,-78.37,-449.1
466,1715411382500,0.939767441860465,2.9709302325581395,-0.7654263565891473,19.726201550387596,-86.55279069767441,-477.9378294573644
467,1715411382510,1.14,2.99,-0.74,24.84,-92.83,-500.06
468,1715411382520,1.14,2.99,-0.74,24.84,-92.83,-500.05999999999995
469,1715411382530,1.14,2.99,-0.74,24.84,-92.83,-500.06
470,1715411382540,1.805426356589147,2.846124031007752,-0.8658914728682171,94.53209302325583,-83.32581395348838,-555.653953488372
471,1715411382550,1.88,2.83,-0.88,112.98,-80.81,-570.37
472,1715411382560,1.88,2.83,-0.88,112.98,-80.81,-570.37
473,1715411382570,1.87136,2.84728,-0.90592,112.98,-80.81,-570.37
474,1715411382580,1.84,2.91,-1.0,168.32454545454544,-87.51977272727272,-563.2347727272728
475,1715411382590,1.84,2.91,-1.0,175.41999999999996,-88.38,-562.32
476,1715411382600,1.8667272727272728,2.982545454545455,-1.1030909090909091,185.99181818181816,-90.64727272727272,-560.6933636363636
477,1715411382610,1.91,3.1,-1.27,215.52,-96.98,-556.15
478,1715411382620,1.91,3.1,-1.27,215.52,-96.98,-556.15
479,1715411382630,1.91,3.1,-1.27,215.52,-96.98,-556.15
480,1715411382640,1.744782608695652,2.9347826086956523,-1.4550434782608697,242.17121739130437,-116.25095652173914,-527.6252173913043
481,1715411382650,1.66,2.85,-1.55,269.29,-135.86,-498.6
482,1715411382660,1.66,2.8500000000000005,-1.5500000000000003,269.29,-135.86,-498.6
483,1715411382670,1.66,2.85,-1.55,269.29,-135.86,-498.6
484,1715411382680,1.66,2.85,-1.55,269.29,-135.86,-498.6
485,1715411382690,1.4602439024390244,2.7834146341463413,-1.5785365853658537,275.3873170731707,-184.6860975609756,-440.889512195122
486,1715411382700,1.45,2.78,-1.58,275.7,-187.19,-437.93
487,1715411382710,1.45,2.78,-1.58,275.7,-187.19,-437.93
488,1715411382720,1.5326490066225167,2.398543046357616,-1.3765562913907285,319.78145695364236,-202.15887417218542,-424.8571523178808
489,1715411382730,1.5800000000000003,2.18,-1.26,370.79,-219.48,-409.7300000000001
490,1715411382740,1.58,2.18,-1.26,370.79,-219.48,-409.73
491,1715411382750,1.6164179104477614,2.125074626865672,-1.1701492537313432,370.79,-219.48,-409.7300000000001
492,1715411382760,2.8,0.34,1.75,229.45990825688074,-475.12477064220184,-287.92724770642207
493,1715411382770,2.8,0.34,1.75,225.46,-482.36,-284.48
494,1715411382780,2.8,0.34,1.75,225.46,-482.36,-284.48
495,1715411382790,3.0673933649289093,-0.01488151658767771,2.0555924170616113,214.87895734597157,-470.73156398104265,-281.89137440758293
496,1715411382800,4.97,-2.54,4.23,2.2,-237.0,-229.86
497,1715411382810,4.97,-2.54,4.23,2.2,-237.0,-229.86
498,1715411382820,4.97,-2.54,4.23,2.2,-237.0,-229.86
499,1715411382830,4.97,-2.54,4.23,2.2,-237.0,-229.86
500,1715411382840,5.097555555555556,-2.0844444444444443,4.758444444444445,-9.921,62.66700000000001,-118.816
501,1715411382850,5.11,-2.04,4.81,-13.609999999999998,153.87,-85.02
502,1715411382860,5.11,-2.04,4.809999999999999,-13.61,153.87,-85.02
503,1715411382870,5.11,-2.04,4.81,-13.61,153.87,-85.02
504,1715411382880,4.435862068965517,-0.929655172413793,2.0182758620689656,-204.4241379310345,305.6085057471264,59.767356321839074
505,1715411382890,4.26,-0.64,1.29,-294.98,377.62,128.48
506,1715411382900,4.26,-0.64,1.29,-294.98,377.62,128.48
507,1715411382910,4.236141732283465,-0.5802362204724409,1.2203149606299215,-294.98,377.62,128.48
508,1715411382920,3.25,1.8899999999999997,-1.66,-341.2532407407408,382.7468518518519,227.50537037037034
509,1715411382930,3.25,1.8900000000000001,-1.6599999999999997,-396.96999999999997,388.92,346.74
510,1715411382940,3.25,1.89,-1.66,-396.97,388.92,346.74
511,1715411382950,2.796666666666667,2.273333333333333,-1.71,-356.2397222222222,367.64000000000004,355.7
512,1715411382960,1.89,3.04,-1.81,-187.5,279.48,392.82
513,1715411382970,1.8900000000000001,3.04,-1.8099999999999998,-187.5,279.48,392.82
514,1715411382980,1.89,3.04,-1.81,-187.5,279.48,392.82
515,1715411382990,1.7203030303030302,3.1951515151515153,-1.174848484848485,-163.46212121212122,291.99121212121213,377.6401515151515
516,1715411383000,1.54,3.36,-0.5,-104.0,322.94,340.09
517,1715411383010,1.54,3.3599999999999994,-0.5,-104.0,322.93999999999994,340.09
518,1715411383020,1.54,3.36,-0.5,-104.0,322.94,340.09
519,1715411383030,1.4969852941176471,3.346764705882353,-0.4073529411764706,-129.22242647058823,323.94919117647055,341.2444117647059
520,1715411383040,1.41,3.32,-0.22,-241.21,328.43,346.37
521,1715411383050,1.41,3.32,-0.22,-241.21,328.43,346.37
522,1715411383060,1.41,3.32,-0.22,-241.21,328.43,346.37
523,1715411383070,1.6941176470588237,3.075343137254902,-0.014803921568627452,-319.85132352941173,242.21450980392154,368.25985294117646
524,1715411383080,1.77,3.01,0.04,-348.88,210.39,376.34
525,1715411383090,1.77,3.01,0.04000000000000001,-348.88,210.39,376.34
526,1715411383100,1.77,3.01,0.04,-348.88,210.39,376.34
527,1715411383110,1.793809523809524,2.922698412698413,-0.2615873015873016,-315.9748148148148,219.49592592592595,389.44296296296295
528,1715411383120,1.8,2.9,-0.34,-302.12,223.33,394.96
529,1715411383130,1.8000000000000003,2.9,-0.34,-302.12,223.33,394.96
530,1715411383140,1.8293684210526315,2.978315789473684,-0.402,-312.4789473684211,198.87357894736843,414.43810526315787
531,1715411383150,1.89,3.14,-0.53,-339.97,133.97,466.13000000000005
532,1715411383160,1.89,3.14,-0.53,-339.97,133.97,466.13
533,1715411383170,1.89,3.14,-0.53,-339.9700000000001,133.97,466.13000000000005
534,1715411383180,1.89,3.14,-0.53,-339.97,133.97,466.13000000000005
535,1715411383190,2.0214035087719298,4.454035087719298,-0.20149122807017542,-247.2742105263158,113.12377192982457,531.4375438596492
536,1715411383200,2.03,4.54,-0.18,-241.21,111.76,535.71
537,1715411383210,2.03,4.54,-0.18,-241.20999999999998,111.76,535.71
538,1715411383220,2.03,4.54,-0.18,-241.21,111.76,535.71
539,1715411383230,1.3393959731543625,5.980402684563758,-4.422281879194632,-449.09832214765095,103.61731543624161,509.2144295302013
540,1715411383240,1.33,6.0,-4.48,-453.37,103.45,508.67
541,1715411383250,1.33,6.0,-4.48,-453.36999999999995,103.45,508.67
542,1715411383260,-0.686,6.9148695652173915,-3.899304347826087,-278.8613043478261,113.11521739130434,403.72478260869565
543,1715411383270,-2.35,7.67,-3.42,215.58,140.5,106.38
544,1715411383280,-2.35,7.669999999999999,-3.42,215.58,140.5,106.38
545,1715411383290,-2.35,7.67,-3.4199999999999995,215.58,140.5,106.38
546,1715411383300,-2.2578947368421054,7.23140350877193,-3.5932456140350877,154.04929824561407,125.25438596491227,80.48087719298245
547,1715411383310,-1.93,5.67,-4.21,-65.0,70.98,-11.72
548,1715411383320,-1.93,5.67,-4.21,-65.0,70.98,-11.72
549,1715411383330,-1.93,5.67,-4.21,-65.0,70.98,-11.72
550,1715411383340,-1.0323529411764705,4.739411764705882,-3.0158823529411767,10.934509803921573,-3.498823529411763,-172.1298039215686
551,1715411383350,-0.84,4.54,-2.76,68.54,-60.0,-293.82
552,1715411383360,-0.84,4.54,-2.76,68.54,-60.0,-293.82
553,1715411383370,-0.8281512605042016,4.529327731092437,-2.746050420168067,68.54,-60.0,-293.82
554,1715411383380,0.57,3.27,-1.1,80.75804511278197,-83.51503759398496,-398.17150375939855
555,1715411383390,0.57,3.27,-1.1,81.54,-85.02,-404.85
556,1715411383400,0.57,3.27,-1.1,81.54,-85.02,-404.85
557,1715411383410,0.621578947368421,3.2171929824561403,-1.130701754385965,82.65403508771931,-85.94105263157894,-409.9359649122807
558,1715411383420,0.99,2.84,-1.35,94.24,-95.52,-462.83
559,1715411383430,0.9900000000000001,2.84,-1.35,94.24,-95.52,-462.8299999999999
560,1715411383440,0.99,2.8399999999999994,-1.35,94.24,-95.52000000000001,-462.83000000000004
561,1715411383450,1.1466315789473684,2.8236842105263156,-1.248842105263158,94.24,-95.52,-462.83
562,1715411383460,1.47,2.79,-1.04,216.42064000000002,-142.61568,-503.74232
563,1715411383470,1.47,2.79,-1.04,228.21,-147.16,-507.69
564,1715411383480,1.47,2.79,-1.04,228.21,-147.16,-507.69
565,1715411383490,1.6976785714285716,2.743125,-0.8391071428571429,216.5689285714286,-175.8929464285714,-497.48026785714285
566,1715411383500,1.81,2.72,-0.74,196.41,-225.65,-479.8
567,1715411383510,1.81,2.72,-0.74,196.41,-225.65,-479.8
568,1715411383520,1.81,2.72,-0.74,196.41,-225.65,-479.8
569,1715411383530,1.7134848484848486,2.786818181818182,-0.7771212121212121,196.41,-225.65,-479.8
570,1715411383540,1.68,2.81,-0.79,291.04782945736434,-150.94410852713176,-491.353023255814
571,1715411383550,1.68,2.81,-0.79,299.87,-143.98,-492.43
572,1715411383560,1.68,2.81,-0.79,299.87000000000006,-143.98,-492.43
573,1715411383570,1.6252631578947367,3.1201754385964913,-1.31,251.3976315789474,-209.14666666666665,-459.6229824561404
574,1715411383580,1.62,3.15,-1.36,234.86,-231.38,-448.43
575,1715411383590,1.62,3.15,-1.36,234.86,-231.38,-448.43000000000006
576,1715411383600,1.62,3.15,-1.36,234.86,-231.38,-448.43
577,1715411383610,1.5936842105263158,3.114912280701754,-1.903859649122807,216.81508771929828,-253.85315789473685,-413.9847368421053
578,1715411383620,1.59,3.11,-1.98,210.94,-261.17,-402.77
579,1715411383630,1.59,3.11,-1.9800000000000002,210.94,-261.17,-402.77
580,1715411383640,1.6218340611353714,3.0793449781659388,-1.9175109170305678,214.80471615720523,-268.91799126637557,-402.9333187772926
581,1715411383650,1.86,2.85,-1.45,263.0,-365.54,-404.97
582,1715411383660,1.86,2.85,-1.45,263.0,-365.54,-404.97
583,1715411383670,1.86,2.85,-1.45,263.0,-365.54,-404.97
584,1715411383680,1.8824630541871923,2.808226600985222,-1.3869458128078818,261.18793103448274,-364.87068965517244,-404.2944827586207
585,1715411383690,2.43,1.79,0.15,210.45,-346.13,-385.38
586,1715411383700,2.43,1.79,0.15,210.45,-346.13,-385.38
587,1715411383710,2.43,1.79,0.15,210.45,-346.13,-385.38
588,1715411383720,3.1037238493723853,0.5918828451882846,1.3550627615062762,172.46987447698743,-359.5923430962343,-352.06410041841
589,1715411383730,4.37,-1.66,3.62,70.8,-395.63,-262.88
590,1715411383740,4.37,-1.66,3.62,70.8,-395.63,-262.88
591,1715411383750,4.37,-1.66,3.62,70.8,-395.63,-262.88
592,1715411383760,4.465154185022026,-2.05488986784141,3.9577973568281943,11.07973568281938,-257.51590308370044,-203.20995594713654
593,1715411383770,4.57,-2.49,4.33,-71.9,-65.61,-120.3
594,1715411383780,4.57,-2.49,4.33,-71.9,-65.61,-120.3
595,1715411383790,4.57,-2.49,4.33,-71.9,-65.61,-120.3
596,1715411383800,4.592058823529412,-2.4238235294117647,3.703529411764706,-126.48957983193277,40.389327731092436,-33.59411764705882
597,1715411383810,4.62,-2.34,2.91,-219.54,221.07,114.2
598,1715411383820,4.62,-2.34,2.91,-219.54,221.07,114.2
599,1715411383830,4.62,-2.3399999999999994,2.9100000000000006,-219.54,221.07,114.2
600,1715411383840,4.360836501901141,-1.580760456273764,2.0923574144486694,-232.95756653992393,256.29041825095055,159.6709505703422
601,1715411383850,3.91,-0.26,0.67,-267.88,347.96,278.02
602,1715411383860,3.91,-0.26,0.67,-267.88,347.96,278.02
603,1715411383870,3.91,-0.26,0.67,-267.88,347.96,278.02
604,1715411383880,3.4312244897959188,1.4885714285714284,-0.7593877551020407,-226.7965714285714,429.37616326530616,319.06620408163263
605,1715411383890,3.22,2.26,-1.39,-201.66,479.19,344.18
606,1715411383900,3.22,2.26,-1.39,-201.66,479.19,344.18
607,1715411383910,3.22,2.26,-1.39,-201.66,479.18999999999994,344.18
608,1715411383920,2.2620224719101123,3.0279026217228466,-1.7245318352059924,-191.71775280898876,462.44426966292133,323.19269662921346
609,1715411383930,1.96,3.27,-1.83,-184.08,449.58,307.06999999999994
610,1715411383940,1.96,3.27,-1.8299999999999998,-184.07999999999998,449.58,307.07
611,1715411383950,1.9599999999999997,3.27,-1.8299999999999998,-184.08,449.5799999999999,307.07
612,1715411383960,1.6336842105263158,3.2128947368421055,-1.4057894736842105,-180.26447368421054,409.03736842105263,251.5992105263158
613,1715411383970,1.56,3.2,-1.31,-178.71,392.5199999999999,229.0
614,1715411383980,1.56,3.2,-1.31,-178.71,392.5199999999999,229.0
615,1715411383990,1.5070588235294118,3.1652100840336135,-1.2661344537815127,-178.71,392.52,229.0
616,1715411384000,1.21,2.97,-1.02,-302.77027667984186,298.74541501976285,237.23249011857706
617,1715411384010,1.21,2.97,-1.02,-319.46,286.13,238.34
618,1715411384020,1.21,2.97,-1.02,-319.46,286.13,238.34000000000003
619,1715411384030,1.21,2.97,-1.02,-319.46,286.13,238.34
620,1715411384040,1.01398406374502,2.4505577689243028,-0.6279681274900398,-401.34717131474105,119.28346613545817,300.78892430278887
621,1715411384050,1.01,2.44,-0.62,-405.82,110.17,304.2
622,1715411384060,1.01,2.44,-0.62,-405.82,110.17,304.2
623,1715411384070,1.0527927927927927,2.3818018018018017,-0.5395495495495496,-390.60180180180186,111.92090090090089,303.7854054054054
624,1715411384080,1.2599999999999998,2.1,-0.15,-275.88,125.12,300.66
625,1715411384090,1.26,2.1,-0.15,-275.88,125.12,300.66
626,1715411384100,1.26,2.1,-0.15,-275.88,125.12,300.66
627,1715411384110,1.3104761904761906,2.3313492063492065,-0.26357142857142857,-275.88,125.12,300.66
628,1715411384120,1.38,2.65,-0.42,-296.14,133.0,364.5
629,1715411384130,1.38,2.6499999999999995,-0.42,-296.14,133.0,364.5
630,1715411384140,1.38,2.65,-0.42,-296.14,133.0,364.5
631,1715411384150,1.38,2.65,-0.42,-296.14,133.0,364.5
632,1715411384160,1.618671875,2.796875,-0.566875,-381.474375,-56.826757812500006,433.3017578125
633,1715411384170,1.64,2.81,-0.58,-389.1,-73.79,439.45
634,1715411384180,1.64,2.81,-0.58,-389.1,-73.79,439.45
635,1715411384190,0.8986991869918699,4.379349593495935,-1.4238211382113821,-322.94,32.24999999999999,420.1633333333333
636,1715411384200,0.7,4.8,-1.65,-289.86,85.27,410.52
637,1715411384210,0.7,4.8,-1.65,-289.86,85.27,410.52
638,1715411384220,0.6999999999999998,4.8,-1.6499999999999997,-289.86,85.27000000000001,410.52
639,1715411384230,0.28266129032258064,5.567903225806451,-2.3121774193548386,-301.7591935483871,51.72362903225806,431.0099193548387
640,1715411384240,-0.05,6.18,-2.84,-348.88,-81.12,512.15
641,1715411384250,-0.05,6.18,-2.84,-348.88,-81.12,512.15
642,1715411384260,-0.20555555555555555,6.234761904761904,-2.966190476190476,-311.5125396825397,-64.94063492063492,467.4
643,1715411384270,-2.01,6.87,-4.43,121.95,122.74,-51.7
644,1715411384280,-2.01,6.87,-4.43,121.95,122.74,-51.7
645,1715411384290,-2.01,6.87,-4.43,121.95,122.74,-51.7
646,1715411384300,-1.8847199999999997,6.14424,-3.6264799999999995,56.527120000000004,33.51416,-75.58168
647,1715411384310,-1.72,5.19,-2.57,-77.51,-149.29,-124.50999999999999
648,1715411384320,-1.72,5.19,-2.57,-77.51,-149.29,-124.51
649,1715411384330,-1.72,5.19,-2.57,-77.51,-149.29,-124.50999999999999
650,1715411384340,-1.433174603174603,4.956825396825398,-2.3203174603174603,-39.87309523809524,-138.01619047619047,-182.25206349206348
651,1715411384350,-0.33,4.06,-1.36,112.18,-92.47,-415.53
652,1715411384360,-0.33,4.06,-1.36,112.18,-92.47,-415.53
653,1715411384370,-0.33,4.06,-1.36,112.18,-92.47,-415.53
654,1715411384380,0.6989763779527559,3.488346456692913,-0.5977952755905512,22.91503937007874,-114.37551181102363,-446.48417322834644
655,1715411384390,0.75,3.46,-0.56,6.23,-118.47,-452.27
656,1715411384400,0.75,3.46,-0.56,6.23,-118.47,-452.27
657,1715411384410,0.75,3.46,-0.56,6.23,-118.47,-452.27
658,1715411384420,1.3121621621621622,3.413153153153153,-0.9254054054054054,14.192162162162164,-61.064594594594595,-526.7997297297297
659,1715411384430,1.35,3.41,-0.95,16.05,-47.67,-544.19
660,1715411384440,1.3698000000000001,3.4082000000000003,-0.9535999999999999,21.240119999999997,-47.391,-546.69704
661,1715411384450,1.9000000000000001,3.36,-1.05,160.22,-39.92,-613.83
662,1715411384460,1.9000000000000001,3.36,-1.05,160.22,-39.92,-613.83
663,1715411384470,1.8999999999999997,3.36,-1.05,160.22,-39.92,-613.83
664,1715411384480,1.9515418502202644,3.371894273127753,-1.024229074889868,168.50127753303966,-52.65259911894273,-612.8802202643171
665,1715411384490,2.16,3.42,-0.92,213.93,-122.5,-607.67
666,1715411384500,2.16,3.42,-0.92,213.93,-122.5,-607.67
667,1715411384510,2.16,3.4199999999999995,-0.92,213.93,-122.5,-607.67
668,1715411384520,2.16,3.42,-0.92,213.93,-122.5,-607.67
669,1715411384530,2.0575294117647056,3.4672941176470586,-0.9672941176470589,382.9103921568627,-87.74705882352941,-637.7327450980392
670,1715411384540,2.03,3.48,-0.9799999999999999,429.38,-78.19,-646.0
671,1715411384550,2.03,3.48,-0.98,429.38,-78.19,-646.0
672,1715411384560,2.03,3.48,-0.9799999999999999,429.38,-78.18999999999998,-646.0
673,1715411384570,1.9217441860465116,3.423294573643411,-1.1655813953488374,410.7055813953488,-123.27976744186047,-605.873023255814
674,1715411384580,1.82,3.37,-1.34,392.88,-166.32,-567.57
675,1715411384590,1.804873949579832,2.9716806722689073,-1.3198319327731092,358.5341176470588,-199.741512605042,-522.6123529411765
676,1715411384600,1.79,2.58,-1.3,299.99,-256.71,-445.98
677,1715411384610,1.7899999999999998,2.5799999999999996,-1.3,299.98999999999995,-256.71,-445.98
678,1715411384620,1.79,2.58,-1.3,299.99,-256.71,-445.98
679,1715411384630,1.7493333333333332,2.092,-0.8323333333333334,313.294,-286.666,-411.216
680,1715411384640,1.71,1.62,-0.38,333.25,-331.6,-359.07
681,1715411384650,1.71,1.62,-0.38,333.25,-331.6,-359.07
682,1715411384660,1.71,1.62,-0.38,333.25,-331.6,-359.07
683,1715411384670,2.6232075471698115,0.24641509433962266,1.891698113207547,216.57999999999998,-300.65500000000003,-260.22499999999997
684,1715411384680,2.92,-0.2,2.63,99.91,-269.71,-161.38
685,1715411384690,2.92,-0.2,2.63,99.91,-269.71,-161.38
686,1715411384700,2.92,-0.2,2.63,99.91,-269.71,-161.38
687,1715411384710,3.9644943820224716,-2.344943820224719,3.068314606741573,-68.18887640449438,-171.39988764044944,-38.26089887640449
688,1715411384720,4.04,-2.5,3.1,-87.1,-160.33999999999997,-24.409999999999997
689,1715411384730,4.04,-2.5,3.1,-87.1,-160.34,-24.41
690,1715411384740,3.977165354330709,-2.4768503937007873,3.1462992125984255,-90.33653543307086,-132.25811023622046,-14.714251968503937
691,1715411384750,3.85,-2.43,3.24,-112.79,62.56,52.55
692,1715411384760,3.85,-2.43,3.24,-112.79,62.56,52.55
693,1715411384770,3.85,-2.43,3.24,-112.79,62.56,52.55
694,1715411384780,3.6315126050420172,-1.7439495798319329,2.5452100840336134,-144.2947899159664,120.72899159663865,106.03899159663865
695,1715411384790,3.35,-0.86,1.65,-208.92,240.05,215.75999999999996
696,1715411384800,3.35,-0.86,1.65,-208.92,240.05,215.76
697,1715411384810,3.35,-0.86,1.65,-208.92,240.05,215.76
698,1715411384820,3.0357142857142856,0.5971428571428571,0.24999999999999997,-227.82035714285715,308.31107142857144,270.5667857142857
699,1715411384830,2.91,1.18,-0.31,-240.05,352.48,306.03
700,1715411384840,2.91,1.18,-0.31,-240.05,352.48,306.03
701,1715411384850,2.91,1.18,-0.31,-240.05,352.48,306.03
702,1715411384860,2.33896,2.22248,-1.0536800000000002,-252.58168000000003,321.39736,338.61344
703,1715411384870,2.05,2.75,-1.43,-263.43,294.49,366.82
704,1715411384880,2.05,2.75,-1.43,-263.43,294.49,366.82
705,1715411384890,2.05,2.75,-1.43,-263.43,294.49,366.82
706,1715411384900,1.3121951219512196,3.1926829268292685,-0.9971544715447155,-236.59097560975613,252.34487804878052,350.4126829268293
707,1715411384910,1.3,3.2,-0.99,-231.99,245.12,347.6
708,1715411384920,1.3,3.2,-0.99,-231.99,245.12,347.6
709,1715411384930,1.3,3.2,-0.99,-231.99,245.12,347.6
710,1715411384940,1.2916363636363637,2.890545454545455,-0.734909090909091,-228.54545454545453,224.34636363636366,329.8945454545455
711,1715411384950,1.28,2.46,-0.38,-223.57,194.34,304.32
712,1715411384960,1.28,2.46,-0.38,-223.56999999999996,194.34,304.32
713,1715411384970,1.28,2.46,-0.38,-223.57,194.33999999999997,304.32
714,1715411384980,1.3768478260869563,2.239891304347826,-0.26554347826086955,-208.36489130434782,161.61423913043475,348.3857608695652
715,1715411384990,1.39,2.21,-0.25,-206.3,157.17,354.37
716,1715411385000,1.3900000000000001,2.21,-0.25,-206.3,157.17000000000002,354.37
717,1715411385010,1.2616666666666665,2.3266666666666667,-0.15083333333333332,-201.95111111111112,143.31583333333333,387.32444444444445
718,1715411385020,1.17,2.41,-0.08,-198.06,130.92,416.81
719,1715411385030,1.17,2.41,-0.08,-198.06,130.92,416.81
720,1715411385040,1.17,2.41,-0.08,-198.06,130.92,416.81
721,1715411385050,1.274245283018868,2.3118867924528304,-0.15971698113207547,-204.15264150943398,126.01075471698113,415.56650943396227
722,1715411385060,1.34,2.25,-0.21,-211.24,120.3,414.12
723,1715411385070,1.34,2.25,-0.21,-211.24,120.29999999999998,414.12
724,1715411385080,1.3414876033057852,2.2545041322314052,-0.21123966942148759,-211.24,120.3,414.12000000000006
725,1715411385090,1.7,3.34,-0.51,-274.7023880597015,-7.67223880597015,539.6597014925372
726,1715411385100,1.7,3.34,-0.51,-284.55,-27.53,559.14
727,1715411385110,1.7,3.34,-0.51,-284.55,-27.53,559.14
728,1715411385120,1.7,3.34,-0.51,-284.55,-27.53,559.14
729,1715411385130,2.050886075949367,3.5739240506329115,-0.2973417721518987,-304.58620253164554,-59.860506329113925,549.1078481012659
730,1715411385140,2.36,3.78,-0.11,-327.33,-96.56,537.72
731,1715411385150,2.36,3.7800000000000002,-0.11,-327.33,-96.56,537.72
732,1715411385160,2.36,3.78,-0.11,-327.33,-96.56,537.72
733,1715411385170,1.6136653386454183,5.551832669322709,-1.2095617529880478,-156.80677290836653,-15.990039840637452,495.12195219123504
734,1715411385180,1.05,6.89,-2.04,-28.02,44.86,462.95
735,1715411385190,1.05,6.89,-2.04,-28.02,44.86,462.95
736,1715411385200,1.05,6.89,-2.04,-28.02,44.86,462.95
737,1715411385210,-0.7358775510204082,7.49665306122449,-2.6398367346938776,-88.33081632653061,28.91081632653061,303.3189795918367
738,1715411385220,-1.57,7.78,-2.92,-123.35,19.65,210.63
739,1715411385230,-1.5699999999999998,7.779999999999999,-2.92,-123.35,19.65,210.63
740,1715411385240,-1.57,7.78,-2.92,-123.35,19.65,210.63
741,1715411385250,-1.9002702702702703,6.472972972972973,-2.147027027027027,-11.627297297297295,38.868918918918915,-45.84945945945947
742,1715411385260,-2.04,5.92,-1.82,35.64,47.0,-154.36
743,1715411385270,-2.04,5.92,-1.82,35.64,47.0,-154.36
744,1715411385280,-2.04,5.92,-1.82,35.64,47.0,-154.36
745,1715411385290,-0.7015139442231076,4.5182071713147405,-1.5486852589641436,11.278326693227092,-9.327091633466138,-335.62107569721115
746,1715411385300,-0.56,4.37,-1.52,6.1,-21.3,-374.15
747,1715411385310,-0.56,4.37,-1.52,6.1,-21.3,-374.15
748,1715411385320,-0.56,4.37,-1.52,6.1,-21.3,-374.15
749,1715411385330,0.66,3.26,-0.75,102.40505836575876,-9.643035019455255,-489.9380155642023
750,1715411385340,0.66,3.26,-0.75,105.9,-9.22,-494.14
751,1715411385350,0.66,3.26,-0.75,105.9,-9.22,-494.14
752,1715411385360,0.66,3.26,-0.75,105.9,-9.22,-494.14
753,1715411385370,1.1389056603773584,2.898377358490566,-0.7304528301886792,33.71230188679245,-47.93316981132075,-505.7119245283019
754,1715411385380,1.15,2.89,-0.73,32.04,-48.83,-505.97999999999996
755,1715411385390,1.15,2.89,-0.73,32.04,-48.83,-505.98
756,1715411385400,1.3946874999999999,2.86046875,-0.75109375,41.4440625,-53.656718749999996,-516.6752343750001
757,1715411385410,1.73,2.82,-0.78,89.36,-78.25,-571.17
758,1715411385420,1.73,2.82,-0.78,89.36,-78.25,-571.17
759,1715411385430,1.73,2.82,-0.78,89.36,-78.25,-571.17
760,1715411385440,1.7007627118644069,2.7790677966101693,-0.7098305084745763,146.6528813559322,-63.60694915254237,-562.1455932203389
761,1715411385450,1.68,2.75,-0.66,221.92,-44.37,-550.29
762,1715411385460,1.68,2.75,-0.66,221.92,-44.37,-550.29
763,1715411385470,1.68,2.75,-0.66,221.92,-44.37,-550.29
764,1715411385480,1.63975,3.08925,-0.88425,229.89866666666666,-83.14333333333333,-546.6153333333333
765,1715411385490,1.6100000000000003,3.34,-1.05,236.88000000000002,-117.07000000000001,-543.4
766,1715411385500,1.61,3.34,-1.05,236.87999999999997,-117.07,-543.4
767,1715411385510,1.61,3.34,-1.05,236.88000000000002,-117.07,-543.4
768,1715411385520,1.5519658119658122,3.431196581196581,-1.4811111111111113,343.6546153846154,-106.37384615384615,-549.5269230769231
769,1715411385530,1.54,3.45,-1.57,391.11,-101.62,-552.25
770,1715411385540,1.54,3.45,-1.57,391.11,-101.62,-552.25
771,1715411385550,1.54,3.45,-1.57,391.11,-101.62,-552.25
772,1715411385560,1.602596153846154,3.297980769230769,-1.6951923076923079,301.84499999999997,-217.34499999999997,-470.4925
773,1715411385570,1.61,3.28,-1.71,272.09,-255.92,-443.24
774,1715411385580,1.61,3.28,-1.71,272.09,-255.92,-443.24
775,1715411385590,1.6901818181818182,3.050909090909091,-1.521818181818182,271.7304545454545,-256.82336363636364,-442.9530909090909
776,1715411385600,2.1,1.88,-0.56,232.54,-355.29,-411.68
777,1715411385610,,,,,,
778,1715411385620,2.1,1.88,-0.56,232.54,-355.29,-411.68
779,1715411385630,2.753947368421053,1.011140350877193,0.797017543859649,227.6615789473684,-346.9722807017544,-399.743947368421
780,1715411385640,4.23,-0.95,3.86,189.76,-282.35,-307.01
781,1715411385650,4.23,-0.95,3.86,189.76,-282.35,-307.01
782,1715411385660,4.23,-0.95,3.86,189.76,-282.35,-307.01
783,1715411385670,4.184330708661417,-1.5528346456692914,3.983307086614173,68.95448818897637,-209.90000000000003,-228.78440944881888
784,1715411385680,4.13,-2.27,4.13,-151.18,-77.88,-86.24
785,1715411385690,4.13,-2.27,4.13,-151.18,-77.88,-86.24000000000001
786,1715411385700,4.13,-2.27,4.13,-151.18,-77.88,-86.24
787,1715411385710,4.369545454545455,-1.9840909090909091,3.395909090909091,-151.47945454545456,70.01618181818182,-28.293090909090907
788,1715411385720,4.44,-1.9,3.18,-151.79,223.39,31.8
789,1715411385730,4.44,-1.9,3.18,-151.79,223.39,31.8
790,1715411385740,4.44,-1.9,3.18,-151.79,223.39,31.800000000000004
791,1715411385750,3.597029702970297,-0.12584158415841584,1.1705940594059405,-304.09821782178216,298.139900990099,218.7207920792079
792,1715411385760,3.58,-0.09,1.13,-317.2,304.57,234.8
793,1715411385770,3.58,-0.09,1.13,-317.2,304.57,234.8
794,1715411385780,3.58,-0.09,1.13,-317.2,304.57,234.8
795,1715411385790,2.9575,1.681730769230769,-0.5699038461538461,-313.2307692307692,328.8430769230769,287.31538461538463
796,1715411385800,2.8,2.13,-1.0,-306.88,367.68,371.34
797,1715411385810,2.8,2.13,-1.0,-306.88,367.68,371.34
798,1715411385820,2.7502999999999997,2.1951,-1.0245,-301.0056,365.06480000000005,369.695
799,1715411385830,2.09,3.06,-1.35,-222.96,330.32,347.84
800,1715411385840,2.09,3.06,-1.35,-222.96,330.32,347.84
801,1715411385850,2.09,3.06,-1.35,-222.96,330.32,347.84
802,1715411385860,1.6144791666666665,3.2948958333333334,-1.1151041666666666,-302.1834375,242.40125,379.99625
803,1715411385870,1.26,3.47,-0.94,-391.97,142.76,416.44
804,1715411385880,1.26,3.47,-0.94,-391.97,142.76,416.44
805,1715411385890,1.26,3.47,-0.94,-391.97,142.76,416.44
806,1715411385900,1.4694392523364486,2.7408411214953268,-0.3039252336448598,-397.7516822429907,49.851962616822426,426.696261682243
807,1715411385910,1.53,2.53,-0.12,-400.33,8.42,431.27
808,1715411385920,1.53,2.53,-0.12,-400.33,8.42,431.27
809,1715411385930,1.5453811659192824,2.534708520179372,-0.11497757847533632,-400.33,8.42,431.27
810,1715411385940,2.02,2.68,0.04,-205.27781512605043,11.72201680672269,458.9453781512605
811,1715411385950,2.02,2.68,0.04,-191.22,11.96,460.94
812,1715411385960,2.02,2.68,0.04,-191.22,11.96,460.94
813,1715411385970,1.9895754716981133,2.710424528301887,0.05910377358490566,-191.22,11.959999999999999,460.94
814,1715411385980,1.59,3.11,0.31,-216.654,39.589999999999996,500.76500000000004
815,1715411385990,1.59,3.11,0.31,-219.48,42.66,505.19
816,1715411386000,1.59,3.11,0.31,-219.48,42.66,505.19
817,1715411386010,1.6273504273504273,3.066752136752137,0.23333333333333334,-216.23,44.48350427350427,500.49470085470085
818,1715411386020,1.97,2.67,-0.47,-143.43,85.33,395.32
819,1715411386030,1.97,2.67,-0.47,-143.43,85.33,395.32
820,1715411386040,1.97,2.67,-0.47,-143.43,85.33,395.32
821,1715411386050,1.9146976744186046,2.9026511627906975,-0.49669767441860463,-143.68153488372093,85.33734883720929,395.7787906976744
822,1715411386060,1.68,3.8900000000000006,-0.61,-170.47,86.12,444.64
823,1715411386070,1.68,3.89,-0.61,-170.47,86.12,444.64
824,1715411386080,1.68,3.89,-0.61,-170.47,86.12,444.64
825,1715411386090,1.68,3.89,-0.61,-170.47,86.12,444.63999999999993
826,1715411386100,0.6196799999999999,5.45416,-2.2493600000000002,-178.08776,39.21024,477.45727999999997
827,1715411386110,0.27,5.97,-2.79,-180.6,23.74,488.28
828,1715411386120,0.27,5.97,-2.79,-180.6,23.74,488.28
829,1715411386130,-0.6447761194029851,6.324626865671642,-3.072089552238806,-133.77268656716416,33.19059701492537,377.4440298507463
830,1715411386140,-2.0,6.85,-3.49,-44.19,51.27,165.41
831,1715411386150,-2.0,6.85,-3.49,-44.19,51.27,165.41
832,1715411386160,-2.0,6.85,-3.49,-44.19,51.27,165.40999999999997
833,1715411386170,-2.0836625514403293,6.704691358024691,-3.309465020576132,-49.52333333333333,-33.455925925925925,77.49518518518519
834,1715411386180,-2.19,6.52,-3.08,-58.59,-177.49,-71.96
835,1715411386190,-2.19,6.52,-3.08,-58.59,-177.49,-71.96
836,1715411386200,-2.19,6.52,-3.08,-58.59,-177.49,-71.96
837,1715411386210,-0.9867073170731707,5.560853658536585,-1.8767073170731707,-40.17333333333333,-161.68390243902442,-202.84780487804878
838,1715411386220,-0.12,4.87,-1.01,-23.74,-147.58,-319.64
839,1715411386230,-0.11999999999999998,4.87,-1.01,-23.74,-147.58,-319.64
840,1715411386240,-0.12,4.87,-1.01,-23.74,-147.58,-319.64
841,1715411386250,0.3586425339366515,3.87185520361991,-0.9224434389140271,-45.41601809954751,-111.95466063348417,-383.3377375565611
842,1715411386260,0.7,3.16,-0.8599999999999999,-63.66,-81.97,-436.95
843,1715411386270,0.7,3.16,-0.86,-63.66,-81.96999999999998,-436.95
844,1715411386280,0.7,3.16,-0.8600000000000001,-63.66,-81.97,-436.95
845,1715411386290,1.0524561403508772,3.0449122807017543,-0.881578947368421,-29.458859649122807,-74.31140350877193,-483.69561403508766
846,1715411386300,1.19,-0.89,-10.25,-70.01,-509.95
847,1715411386310,1.19,-0.89,-10.25,-70.01,-509.95
848,1715411386320,1.19,-0.89,-10.25,-70.01,-509.95
849,1715411386330,1.6316194331983804,2.697408906882591,-0.6937246963562753,32.763522267206476,-75.92947368421054,-541.9692712550608
850,1715411386340,1.73,2.63,-0.65,54.93,-78.98,-558.47
851,1715411386350,1.73,2.63,-0.65,54.93,-78.98,-558.47
852,1715411386360,1.73,2.63,-0.65,54.93,-78.98,-558.47
853,1715411386370,1.8402510460251045,2.6948535564853553,-0.5721757322175732,114.62121338912134,-73.75280334728035,-558.7877824267782
854,1715411386380,1.9,2.73,-0.53,146.97,-70.92,-558.96
855,1715411386390,1.9,2.73,-0.53,146.97,-70.92,-558.96
856,1715411386400,1.707017543859649,2.874736842105263,-0.8773684210526316,178.82368421052632,-58.041315789473686,-564.2052631578947
857,1715411386410,1.7,2.88,-0.89,183.65,-56.09,-565.0
858,1715411386420,1.7,2.88,-0.89,183.65,-56.09,-565.0
859,1715411386430,1.685,2.8775,-0.9275,189.46375,-66.45125,-558.24875
860,1715411386440,1.64,2.87,-1.04,230.16,-138.98,-510.99
861,1715411386450,1.64,2.87,-1.04,230.16,-138.98,-510.99
862,1715411386460,1.64,2.87,-1.04,230.16,-138.98,-510.99
863,1715411386470,1.526290322580645,2.907903225806452,-1.1650806451612903,233.23112903225805,-142.86016129032257,-502.73733870967743
864,1715411386480,1.34,2.97,-1.37,241.7,-153.56,-479.98
865,1715411386490,1.34,2.97,-1.37,241.7,-153.56,-479.98
866,1715411386500,1.34,2.97,-1.37,241.7,-153.56,-479.9800000000001
867,1715411386510,1.373,2.816,-1.3956666666666666,253.7888888888889,-168.66400000000002,-470.40844444444446
868,1715411386520,1.43,2.55,-1.44,275.7,-196.04,-453.06
869,1715411386530,1.43,2.55,-1.4399999999999997,275.7,-196.04,-453.06
870,1715411386540,1.43,2.55,-1.44,275.7,-196.04,-453.06
871,1715411386550,1.8188695652173914,1.6275652173913042,-0.18295652173913043,282.2282608695652,-272.03130434782605,-421.8926086956522
872,1715411386560,1.86,1.53,-0.05,285.71,-312.56,-405.27
873,1715411386570,1.86,1.53,-0.05,285.71,-312.56,-405.2699999999999
874,1715411386580,1.86,1.53,-0.05,285.71,-312.56,-405.27
875,1715411386590,3.1915454545454547,-0.08981818181818178,2.1395,112.08918181818181,-323.98454545454547,-300.0092727272727
876,1715411386600,3.8,-0.8299999999999998,3.14,16.72,-330.26,-242.19
877,1715411386610,3.8,-0.83,3.14,16.72,-330.26,-242.19
878,1715411386620,3.8,-0.83,3.14,16.72,-330.26,-242.19
879,1715411386630,4.764392156862745,-2.6340784313725494,4.104392156862745,59.65603921568627,-164.85439215686276,-196.0527450980392
880,1715411386640,4.96,-3.0,4.3,77.21,-97.23,-177.19
881,1715411386650,4.96,-3.0,4.3,77.21,-97.23,-177.19
882,1715411386660,4.96,-3.0,4.3,77.21,-97.23,-177.19
883,1715411386670,4.458280542986426,-1.6471493212669683,3.529502262443439,-95.44176470588236,178.87479638009052,13.800859728506788
884,1715411386680,4.4,-1.49,3.44,-127.93,230.83,49.74
885,1715411386690,4.4,-1.4900000000000002,3.44,-127.93,230.83,49.74
886,1715411386700,4.36,-1.4298130841121497,3.330093457943925,-127.93,230.83,49.74
887,1715411386710,3.3300000000000005,0.12,0.5,-372.0582142857143,291.5703571428572,258.15107142857147
888,1715411386720,3.33,0.12,0.5,-381.1,293.82,265.87
889,1715411386730,3.33,0.12,0.5,-381.1,293.82,265.87
890,1715411386740,3.232921348314607,0.36674157303370786,0.3007865168539326,-381.1,293.82,265.87
891,1715411386750,2.37,2.56,-1.47,-364.7788785046729,310.1966355140187,381.4686915887851
892,1715411386760,2.37,2.56,-1.47,-363.46,311.52,390.80999999999995
893,1715411386770,2.37,2.56,-1.47,-363.46,311.52,390.81
894,1715411386780,1.8147457627118646,2.944406779661017,-1.47,-295.9842372881356,310.10627118644067,364.6672881355932
895,1715411386790,1.46,3.19,-1.47,-153.93,307.13,309.63
896,1715411386800,1.46,3.1900000000000004,-1.4700000000000002,-153.93,307.13,309.63
897,1715411386810,1.46,3.19,-1.47,-153.93,307.13,309.63
898,1715411386820,1.385086206896552,3.019741379310345,-0.8366379310344827,-195.34689655172414,278.1886206896552,323.15241379310345
899,1715411386830,1.35,2.94,-0.54,-263.12,230.83,345.28
900,1715411386840,1.35,2.94,-0.54,-263.12,230.83,345.28
901,1715411386850,1.35,2.94,-0.54,-263.12,230.83,345.28
902,1715411386860,1.35,2.94,-0.54,-263.12,230.83,345.28
903,1715411386870,1.41016,2.79712,-0.43848000000000004,-294.76792,216.76384,366.55408
904,1715411386880,1.51,2.5599999999999996,-0.27,-347.29,193.42,401.86
905,1715411386890,1.5152500000000002,2.52325,-0.25075000000000003,-341.5475,191.58416666666665,403.6041666666667
906,1715411386900,1.54,2.35,-0.16,-278.38,171.39,422.79
907,1715411386910,1.54,2.35,-0.16,-278.38,171.39,422.79
908,1715411386920,1.54,2.35,-0.16,-278.38,171.39,422.79
909,1715411386930,1.5750000000000002,2.43,-0.24000000000000002,-259.7741935483871,171.60290322580644,422.25774193548386
910,1715411386940,1.61,2.51,-0.32,-182.25,172.49,420.04
911,1715411386950,1.61,2.51,-0.32,-182.25,172.49,420.04
912,1715411386960,1.61,2.51,-0.32,-182.25,172.49,420.04
913,1715411386970,1.5830769230769233,2.8546153846153843,-0.4546153846153846,-197.22692307692307,141.35923076923078,426.77846153846156
914,1715411386980,1.56,3.15,-0.57,-221.19,91.55,437.56000000000006
915,1715411386990,1.56,3.15,-0.57,-221.19000000000003,91.55,437.56
916,1715411387000,1.56,3.15,-0.57,-221.19,91.55,437.56
917,1715411387010,2.0036974789915964,3.9325210084033615,-0.4651260504201681,-321.8363865546218,8.867815126050418,514.9018487394958
918,1715411387020,2.11,4.12,-0.44,-367.25,-28.44,549.8
919,1715411387030,2.11,4.12,-0.44,-367.25,-28.440000000000005,549.8
920,1715411387040,2.11,4.12,-0.44,-367.25,-28.440000000000005,549.8
921,1715411387050,2.1,5.74,-1.8900000000000001,-144.1680769230769,32.82451923076923,466.9101923076923
922,1715411387060,2.1,5.74,-1.8900000000000001,-106.57,43.15,452.94
923,1715411387070,2.1,5.739999999999999,-1.89,-106.57,43.15,452.94
924,1715411387080,2.1,5.74,-1.89,-106.57,43.15,452.94000000000005
925,1715411387090,0.3352678571428572,6.482767857142858,-2.8540178571428574,-132.48875,56.521071428571425,381.8226785714286
926,1715411387100,-1.25,7.15,-3.72,-156.62,68.97,315.61
927,1715411387110,-1.25,7.15,-3.72,-156.62,68.97,315.61
928,1715411387120,-1.4658659217877095,7.020167597765364,-3.627709497206704,-142.85162011173185,65.22469273743016,289.8605586592179
929,1715411387130,-2.63,6.319999999999999,-3.13,32.96,17.4,-38.94
930,1715411387140,-2.63,6.32,-3.13,32.96,17.4,-38.94
931,1715411387150,-2.63,6.32,-3.13,32.96,17.4,-38.94
932,1715411387160,-2.4583261802575107,6.045321888412017,-2.9360085836909873,32.42609442060086,-0.8111587982832641,-76.51424892703862
933,1715411387170,-1.63,4.72,-2.0,29.85,-88.68,-257.81
934,1715411387180,-1.63,4.72,-2.0,29.85,-88.68,-257.81
935,1715411387190,-1.63,4.72,-2.0,29.85,-88.68,-257.81
936,1715411387200,-1.0951999999999997,4.3812,-1.538,30.4722,-92.56620000000001,-293.54467999999997
937,1715411387210,0.28,3.51,-0.35,32.9,-107.73,-432.98
938,1715411387220,0.28,3.51,-0.35,32.9,-107.73,-432.98
939,1715411387230,0.28,3.51,-0.35,32.9,-107.73,-432.98
940,1715411387240,0.592107438016529,3.359586776859504,-0.530495867768595,17.446280991735538,-98.14603305785124,-444.987520661157
941,1715411387250,1.11,3.11,-0.83,-48.4,-57.31,-496.15
942,1715411387260,1.11,3.11,-0.83,-48.4,-57.31,-496.15
943,1715411387270,1.11,3.11,-0.83,-48.4,-57.31,-496.15
944,1715411387280,1.4199056603773588,3.0717924528301888,-0.9106603773584906,-48.4,-57.31,-496.1499999999999
945,1715411387290,1.84,3.0199999999999996,-1.02,78.04410256410256,-52.88658119658119,-592.3545299145298
946,1715411387300,1.84,3.02,-1.02,82.52,-52.73,-595.76
947,1715411387310,1.84,3.02,-1.02,82.52,-52.73,-595.76
948,1715411387320,1.9135714285714285,2.955625,-0.9188392857142856,105.72285714285714,-73.8157142857143,-589.8242857142857
949,1715411387330,2.0,2.88,-0.8,136.66,-101.93,-581.91
950,1715411387340,2.0,2.88,-0.8,136.66,-101.93,-581.91
951,1715411387350,2.0,2.88,-0.8,136.66,-101.93,-581.91
952,1715411387360,1.9594190871369292,2.8867634854771786,-0.9555601659751038,142.89029045643153,-98.77439834024896,-570.513734439834
953,1715411387370,1.94,2.89,-1.03,146.67,-96.86,-563.6
954,1715411387380,1.94,2.89,-1.03,146.67,-96.86,-563.6
955,1715411387390,1.94,2.89,-1.03,146.67,-96.86000000000001,-563.6
956,1715411387400,1.7779757085020242,3.10838056680162,-1.2483805668016195,273.1425910931174,-84.05631578947369,-547.3717004048583
957,1715411387410,1.71,3.2,-1.34,343.14,-76.97,-538.39
958,1715411387420,1.71,3.2,-1.34,343.14,-76.97,-538.39
959,1715411387430,1.71,3.2,-1.34,343.14,-76.97,-538.39
960,1715411387440,1.759879518072289,3.0004819277108434,-1.3150602409638554,307.24951807228916,-168.2770682730924,-491.6850602409639
961,1715411387450,1.77,2.96,-1.31,295.35,-198.55,-476.2
962,1715411387460,1.77,2.96,-1.31,295.35,-198.55,-476.2
963,1715411387470,1.77,2.96,-1.31,295.35,-198.55,-476.2
964,1715411387480,1.6813360323886641,2.522591093117409,-1.049919028340081,257.1921052631579,-234.95263157894738,-422.7026315789474
965,1715411387490,1.62,2.22,-0.87,230.35,-260.56,-385.07
966,1715411387500,1.62,2.22,-0.87,230.35,-260.56,-385.07
967,1715411387510,1.62,2.22,-0.87,230.35,-260.56,-385.07000000000005
968,1715411387520,2.0510204081632653,0.4959183673469388,0.8638775510204082,199.55416326530613,-346.9680816326531,-381.5375102040816
969,1715411387530,2.06,0.46,0.9,195.74,-357.67,-381.1
970,1715411387540,2.06,0.46,0.9,195.74,-357.67,-381.1
971,1715411387550,2.6574736842105264,-0.42926315789473685,1.7927368421052632,154.0377894736842,-337.92873684210525,-345.8181052631579
972,1715411387560,3.78,-2.1,3.47,49.01,-288.21,-256.96
973,1715411387570,3.7799999999999994,-2.1,3.47,49.01,-288.21,-256.96
974,1715411387580,3.78,-2.1,3.47,49.01,-288.21,-256.96
975,1715411387590,3.78,-2.1,3.47,49.01,-288.21,-256.96
976,1715411387600,3.78,-2.1,3.47,49.01,-288.21,-256.96
977,1715411387610,3.78,-2.1,3.47,49.01,-288.2099999999999,-256.96
978,1715411387620,3.78,-2.1,3.47,49.01,-288.21,-256.96
979,1715411387630,3.78,-2.1,3.47,49.01,-288.21,-256.96
980,1715411387640,4.033125,-1.7737500000000002,3.0143750000000002,-93.398125,49.171875,-80.18312499999999
981,1715411387650,4.23,-1.52,2.66,-204.16,311.58,57.31
982,1715411387660,3.823089430894309,-0.4683739837398374,1.1433333333333333,-256.67341463414635,351.31439024390244,123.26170731707317
983,1715411387670,3.46,0.47,-0.21,-330.81,407.41,216.37
984,1715411387680,3.46,0.47,-0.21,-330.81,407.41,216.37
985,1715411387690,3.46,0.47,-0.21,-330.81,407.41,216.37
986,1715411387700,3.46,0.47000000000000003,-0.21,-330.81,407.41,216.37
987,1715411387710,3.46,0.47,-0.21,-330.81,407.41,216.37
988,1715411387720,3.46,0.47,-0.21,-330.81,407.41,216.37
989,1715411387730,3.46,0.47,-0.21,-330.81,407.41,216.37
990,1715411387740,3.46,0.47,-0.21,-330.81,407.41,216.37
991,1715411387750,3.46,0.47,-0.21,-330.81,407.41,216.37000000000003
992,1715411387760,3.4599999999999995,0.47,-0.21,-330.81,407.41,216.37
993,1715411387770,3.4600000000000004,0.47,-0.21,-330.81,407.41,216.37
994,1715411387780,3.46,0.47,-0.21,-330.81,407.41,216.37
995,1715411387790,1.8711764705882354,2.4796078431372552,-1.2039215686274511,-250.88274509803924,299.80529411764707,311.30764705882353
996,1715411387800,1.27,3.24,-1.58,-220.64,259.09,347.23
997,1715411387810,1.1769072164948453,2.7523711340206187,-0.9726804123711341,-254.92030927835052,189.96195876288658,335.269793814433
998,1715411387820,1.06,2.14,-0.21,-297.97,103.15,320.25
999,1715411387830,1.06,2.14,-0.21,-297.97,103.15,320.25
1000,1715411387840,1.06,2.14,-0.21,-297.96999999999997,103.15,320.25
1001,1715411387850,1.203231441048035,1.9537991266375547,-0.09541484716157206,-205.43532751091703,141.04903930131005,325.01244541484715
1002,1715411387860,1.26,1.88,-0.05,-168.76,156.07,326.9
1003,1715411387870,1.26,1.88,-0.05,-168.76,156.07,326.9
1004,1715411387880,1.26,1.88,-0.05,-168.76,156.07,326.9
1005,1715411387890,1.2449999999999999,2.0,-0.0725,-155.9125,172.0,331.34250000000003
1006,1715411387900,1.2,2.36,-0.14,-117.37,219.79,344.67
1007,1715411387910,1.2,2.36,-0.14,-117.37,219.79,344.67
1008,1715411387920,1.2,2.36,-0.14,-117.37,219.79,344.67
1009,1715411387930,0.9111969111969112,2.5962934362934367,-0.42223938223938223,-251.89972972972973,138.54444015444017,392.46034749034754
1010,1715411387940,0.76,2.72,-0.57,-322.33,96.01,417.48
1011,1715411387950,0.76,2.72,-0.57,-322.33,96.01,417.47999999999996
1012,1715411387960,1.0899999999999999,2.8800000000000003,-0.535,-302.18399999999997,54.395,432.4775
1013,1715411387970,1.42,3.04,-0.5,-264.77,-22.89,460.33
1014,1715411387980,1.42,3.04,-0.5,-264.77,-22.89,460.33
1015,1715411387990,1.42,3.04,-0.5,-264.77,-22.89,460.33
1016,1715411388000,1.114,4.054,-0.65,-275.975,8.996999999999998,454.7545
1017,1715411388010,0.91,4.73,-0.75,-289.67,47.97,447.94
1018,1715411388020,0.91,4.73,-0.75,-289.67,47.970000000000006,447.94
1019,1715411388030,0.91,4.73,-0.75,-289.67,47.97,447.94
1020,1715411388040,0.91,4.73,-0.75,-289.67,47.97,447.93999999999994
1021,1715411388050,-0.8959349593495936,6.526626016260162,-3.2634146341463417,26.17313008130081,184.33670731707318,304.815
1022,1715411388060,-1.03,6.66,-3.45,49.620000000000005,194.46,294.19
1023,1715411388070,-1.03,6.66,-3.45,49.62,194.46,294.19
1024,1715411388080,-2.5458490566037737,5.999245283018869,-4.645188679245283,-134.34509433962265,0.07698113207547555,107.78811320754718
1025,1715411388090,-2.59,5.98,-4.68,-167.05,-34.48,74.65
1026,1715411388100,-2.59,5.98,-4.68,-167.05,-34.48,74.65
1027,1715411388110,-2.576239316239316,5.902222222222223,-4.547777777777777,-167.05,-34.48,74.65
1028,1715411388120,-2.36,4.68,-2.47,34.94725663716814,-68.51115044247788,-200.58946902654867
1029,1715411388130,-2.36,4.68,-2.47,42.36,-69.76,-210.69
1030,1715411388140,-2.36,4.68,-2.47,42.36,-69.76,-210.69
1031,1715411388150,-1.923302752293578,4.34605504587156,-2.2388073394495414,44.295688073394494,-73.26880733944954,-234.37743119266054
1032,1715411388160,-0.66,3.38,-1.57,58.59,-99.18,-409.3
1033,1715411388170,-0.66,3.38,-1.57,58.59,-99.18,-409.3
1034,1715411388180,-0.66,3.38,-1.57,58.59,-99.18,-409.3
1035,1715411388190,0.0395454545454545,3.0898181818181816,-1.196909090909091,50.02854545454546,-100.26,-425.53272727272724
1036,1715411388200,0.69,2.82,-0.85,19.35,-104.13,-483.7
1037,1715411388210,0.69,2.82,-0.85,19.35,-104.13,-483.7
1038,1715411388220,0.69,2.82,-0.85,19.35,-104.13,-483.7
1039,1715411388230,1.0210169491525425,2.8466949152542376,-1.1276271186440678,23.556525423728814,-106.91635593220339,-504.1554237288136
1040,1715411388240,1.31,2.87,-1.37,29.48,-110.84,-532.96
1041,1715411388250,1.31,2.87,-1.37,29.48,-110.84,-532.96
1042,1715411388260,1.31,2.87,-1.37,29.48,-110.84,-532.96
1043,1715411388270,1.4677777777777778,2.706153846153846,-1.0423076923076924,100.10119658119659,-122.45982905982908,-525.6083760683761
1044,1715411388280,1.57,2.6,-0.83,171.94,-134.28,-518.13
1045,1715411388290,1.57,2.6,-0.83,171.94,-134.28,-518.13
1046,1715411388300,1.57,2.6,-0.83,171.94,-134.28,-518.13
1047,1715411388310,1.4510344827586206,2.996551724137931,-0.6713793103448277,185.72939655172414,-134.9751724137931,-517.5325862068966
1048,1715411388320,1.45,-0.67,197.32999999999998,-135.56,-517.03
1049,1715411388330,1.45,-0.67,197.33,-135.56,-517.03
1050,1715411388340,1.45,-0.67,197.33,-135.56,-517.03
1051,1715411388350,1.395478260869565,3.0644347826086955,-0.8038260869565217,202.22043478260872,-132.43513043478262,-516.9952173913043
1052,1715411388360,1.34,3.13,-0.94,232.48,-113.1,-516.78
1053,1715411388370,1.34,3.13,-0.94,232.48,-113.1,-516.78
1054,1715411388380,1.3341176470588234,3.139191176470588,-0.953235294117647,232.90205882352942,-114.09632352941175,-516.9417647058824
1055,1715411388390,1.18,3.38,-1.3,243.96,-140.2,-521.18
1056,1715411388400,1.18,3.38,-1.3,243.96,-140.2,-521.18
1057,1715411388410,1.18,3.38,-1.3,243.96,-140.2,-521.18
1058,1715411388420,1.18,3.38,-1.3,243.96,-140.2,-521.18
1059,1715411388430,1.538673469387755,2.1529591836734694,-0.7997448979591837,276.6187755102041,-166.3934693877551,-470.481224489796
1060,1715411388440,1.56,2.08,-0.77,280.33,-169.37,-464.72
1061,1715411388450,1.56,2.08,-0.77,280.33,-169.37,-464.72
1062,1715411388460,2.0708108108108108,0.5637837837837838,0.648918918918919,176.6471171171171,-326.9844144144144,-402.0821621621622
1063,1715411388470,2.19,0.21,0.98,136.47,-388.06,-377.81
1064,1715411388480,2.19,0.21,0.98,136.47,-388.06,-377.81
1065,1715411388490,2.19,0.21,0.98,136.47,-388.06,-377.81
1066,1715411388500,2.19,0.21,0.98,136.47,-388.06,-377.81
1067,1715411388510,2.19,0.21,0.9800000000000001,136.47,-388.06,-377.81
1068,1715411388520,2.19,0.21,0.9799999999999999,136.47,-388.06,-377.81
1069,1715411388530,2.19,0.21,0.98,136.47,-388.06,-377.81
1070,1715411388540,2.19,0.21,0.98,136.47,-388.06,-377.81
1071,1715411388550,2.19,0.21,0.98,136.47,-388.06,-377.81
1072,1715411388560,2.19,0.21,0.98,136.47,-388.06,-377.81
1073,1715411388570,2.19,0.21000000000000002,0.9800000000000001,136.47,-388.06,-377.81
1074,1715411388580,2.19,0.21,0.98,136.47,-388.06,-377.81
1075,1715411388590,2.19,0.21,0.98,136.47,-388.06000000000006,-377.81000000000006
1076,1715411388600,2.19,0.21,0.98,136.47,-388.06,-377.81
1077,1715411388610,2.19,0.21,0.98,136.47,-388.06,-377.81
1078,1715411388620,2.19,0.21,0.98,136.47,-388.06,-377.81
1079,1715411388630,2.19,0.21,0.98,136.47,-388.06,-377.81
1080,1715411388640,2.19,0.21,0.98,136.47,-388.06,-377.81
1081,1715411388650,2.19,0.21,0.98,136.47,-388.06,-377.81
1082,1715411388660,2.19,0.21,0.98,136.47,-388.06,-377.81
1083,1715411388670,2.6234453781512603,0.15176470588235294,0.8086554621848739,-14.460252100840329,-102.32420168067225,-137.69882352941175
1084,1715411388680,2.865,1.111818181818182,-0.2581818181818182,-302.1572727272727,333.8090909090909,318.6010606060606
1085,1715411388690,2.31,2.39,-1.2,-353.52,299.87,401.61
1086,1715411388700,2.31,2.39,-1.2,-353.52,299.87,401.61
1087,1715411388710,2.31,2.39,-1.2,-353.52,299.87,401.61
1088,1715411388720,2.31,2.39,-1.2,-353.52,299.87,401.61
1089,1715411388730,1.9971140939597316,2.6183221476510066,-1.0477852348993288,-335.38389261744965,271.36073825503354,404.896711409396
1090,1715411388740,1.2,3.2,-0.66,-289.18,198.73,413.27
1091,1715411388750,1.2257894736842105,3.0280701754385966,-0.41500000000000004,-302.17543859649123,186.58815789473684,415.4478070175439
1092,1715411388760,1.26,2.8,-0.09,-329.22,161.32,419.98
1093,1715411388770,1.26,2.8,-0.09,-329.22,161.32,419.98
1094,1715411388780,1.26,2.8,-0.09,-329.22,161.32,419.98
1095,1715411388790,1.3307317073170732,2.361463414634146,-0.005121951219512195,-263.5132520325203,170.83284552845527,380.5952032520325
1096,1715411388800,1.36,2.18,0.03,-215.39,177.8,351.75
1097,1715411388810,1.36,2.18,0.03,-215.39,177.8,351.75
1098,1715411388820,1.36,2.18,0.030000000000000002,-215.39,177.8,351.75
1099,1715411388830,1.370054054054054,2.185027027027027,-0.010216216216216219,-179.8262162162162,192.32594594594596,337.3375675675676
1100,1715411388840,1.38,2.19,-0.05,-121.4,216.19,313.66
1101,1715411388850,1.38,2.19,-0.05,-121.4,216.19,313.66
1102,1715411388860,1.38,2.19,-0.05,-121.4,216.19,313.66
1103,1715411388870,1.3453061224489797,2.432857142857143,-0.36918367346938774,-184.88285714285715,166.25857142857143,336.405306122449
1104,1715411388880,1.33,2.54,-0.51,-212.88999999999996,144.23,346.44
1105,1715411388890,1.33,2.54,-0.51,-212.88999999999996,144.23,346.44
1106,1715411388900,1.3986516853932585,2.6670786516853933,-0.5830337078651686,-215.07764044943818,133.9353183520599,350.3324344569288
1107,1715411388910,1.8,3.41,-1.01,-239.44,19.29,393.68
1108,1715411388920,1.8000000000000003,3.41,-1.01,-239.44,19.29,393.68
1109,1715411388930,1.7999999999999998,3.41,-1.01,-239.43999999999997,19.29,393.68
1110,1715411388940,1.7977826086956523,3.4289130434782606,-1.0300869565217392,-241.58052173913043,16.78913043478261,395.7015652173913
1111,1715411388950,1.63,4.86,-2.55,-485.6,-268.31,626.16
1112,1715411388960,1.63,4.86,-2.55,-485.6,-268.31,626.16
1113,1715411388970,1.63,4.86,-2.55,-485.6,-268.31,626.16
1114,1715411388980,1.63,4.86,-2.55,-485.6,-268.31,626.16
1115,1715411388990,-0.8051184834123224,6.385023696682464,-2.623791469194313,29.997393364928904,48.66535545023697,274.0107109004739
1116,1715411389000,-1.34,6.72,-2.64,143.25,118.29,196.66
1117,1715411389010,-1.34,6.719999999999999,-2.64,143.25,118.29,196.66000000000003
1118,1715411389020,-1.34,6.72,-2.64,143.25,118.29,196.66
1119,1715411389030,-2.609059829059829,5.70871794871795,-3.4728205128205127,-135.27581196581198,-105.66213675213675,103.81487179487179
1120,1715411389040,-2.62,5.7,-3.48,-147.71,-115.66,99.67
1121,1715411389050,-2.62,5.7,-3.4800000000000004,-147.71,-115.65999999999998,99.67
1122,1715411389060,-2.5080000000000005,5.5986666666666665,-3.312,-147.71,-115.66,99.67
1123,1715411389070,-1.78,4.94,-2.22,12.016138613861381,-93.3167821782178,-143.7589108910891
1124,1715411389080,-1.78,4.94,-2.22,84.41,-83.19,-254.09
1125,1715411389090,-1.7800000000000002,4.94,-2.22,84.41,-83.19,-254.09000000000003
1126,1715411389100,-1.282857142857143,4.582857142857143,-1.82,75.60932773109243,-90.97142857142858,-265.7321008403361
1127,1715411389110,-0.04,3.69,-0.82,3.85,-154.42,-360.66
1128,1715411389120,-0.04,3.69,-0.82,3.85,-154.42,-360.66
1129,1715411389130,-0.04,3.6899999999999995,-0.82,3.85,-154.42,-360.66
1130,1715411389140,0.15041322314049585,3.5680165289256194,-0.8497520661157024,2.513636363636364,-146.13628099173553,-382.09909090909093
1131,1715411389150,0.6,3.28,-0.92,-3.85,-106.69,-484.19
1132,1715411389160,0.6,3.28,-0.92,-3.85,-106.69,-484.19
1133,1715411389170,0.6,3.28,-0.9200000000000002,-3.85,-106.69,-484.19
1134,1715411389180,1.1050746268656717,3.1046268656716416,-1.1023880597014926,31.960746268656713,-118.29746268656717,-525.9596268656716
1135,1715411389190,1.32,3.03,-1.18,58.47,-126.89000000000001,-556.88
1136,1715411389200,1.32,3.03,-1.18,58.47,-126.89000000000001,-556.88
1137,1715411389210,1.32,3.03,-1.18,58.47,-126.89,-556.88
1138,1715411389220,1.8932999999999998,3.2393,-1.089,59.7132,-139.82389999999998,-555.0740000000001
1139,1715411389230,1.95,3.26,-1.08,64.39,-188.48,-548.28
1140,1715411389240,1.95,3.2600000000000002,-1.08,64.39,-188.48,-548.28
1141,1715411389250,1.95,3.26,-1.08,64.39,-188.48,-548.28
1142,1715411389260,1.95,3.201132075471698,-0.9818867924528302,160.18877358490568,-136.32103773584907,-575.7500943396227
1143,1715411389270,1.95,3.2,-0.98,173.58,-129.03,-579.59
1144,1715411389280,1.95,3.2,-0.98,173.58,-129.03,-579.59
1145,1715411389290,1.9356074766355138,3.217476635514019,-1.0283177570093458,172.4422429906542,-130.70523364485982,-578.8285046728972
1146,1715411389300,1.81,3.37,-1.45,133.0,-188.78,-552.43
1147,1715411389310,1.81,3.37,-1.45,133.0,-188.78,-552.43
1148,1715411389320,1.81,3.37,-1.45,133.0,-188.78,-552.43
1149,1715411389330,1.8100000000000003,3.3700000000000006,-1.45,133.0,-188.78,-552.43
1150,1715411389340,1.72,2.76,-1.43,254.20060606060602,-153.40242424242425,-551.800606060606
1151,1715411389350,1.72,2.76,-1.43,262.02,-151.12,-551.76
1152,1715411389360,1.72,2.76,-1.43,262.02,-151.12,-551.76
1153,1715411389370,1.7004918032786887,2.717540983606557,-1.4024590163934425,262.74885245901635,-158.63868852459018,-541.49
1154,1715411389380,1.55,2.39,-1.19,268.86,-221.68,-455.38
1155,1715411389390,1.55,2.39,-1.19,268.86,-221.68,-455.38
1156,1715411389400,1.55,2.39,-1.19,268.86,-221.68,-455.37999999999994
1157,1715411389410,2.0682692307692307,1.3682692307692308,-0.28673076923076923,211.9716346153846,-304.0886538461539,-413.8530769230769
1158,1715411389420,2.25,1.01,0.03,171.87,-362.18,-384.58
1159,1715411389430,2.25,1.01,0.03,171.87,-362.18,-384.58
1160,1715411389440,2.25,1.01,0.03,171.87,-362.18,-384.58
1161,1715411389450,3.298352941176471,-0.7398823529411764,2.3395294117647056,203.62800000000001,-187.49129411764707,-302.21729411764704
1162,1715411389460,3.58,-1.21,2.96,212.16,-140.56,-280.09
1163,1715411389470,3.5799999999999996,-1.2100000000000002,2.96,212.16,-140.56,-280.09
1164,1715411389480,3.850291262135922,-1.3789320388349515,3.2415533980582523,209.4193203883495,-140.49601941747574,-278.4343689320388
1165,1715411389490,4.54,-1.81,3.96,-70.13,-133.97,-109.56
1166,1715411389500,4.54,-1.81,3.96,-70.13,-133.97,-109.56
1167,1715411389510,4.54,-1.81,3.96,-70.13,-133.97,-109.56
1168,1715411389520,4.54,-1.8099999999999998,3.96,-70.13,-133.97,-109.56000000000002
1169,1715411389530,4.410646766169155,-1.5711940298507463,3.0843781094527367,-109.30980099502487,211.3863184079602,37.452537313432835
1170,1715411389540,4.41,-1.57,3.08,-113.4,247.44,52.8
1171,1715411389550,4.41,-1.57,3.08,-113.4,247.44,52.8
1172,1715411389560,3.6624,-0.09616000000000002,1.17896,-249.2656,292.36879999999996,165.78088
1173,1715411389570,3.36,0.5,0.41,-352.6,326.54,251.70999999999998
1174,1715411389580,3.36,0.5,0.41,-352.6,326.54,251.71
1175,1715411389590,3.3599999999999994,0.5,0.41,-352.6,326.54,251.71000000000004
1176,1715411389600,2.291376146788991,2.7040366972477066,-1.6604587155963304,-411.11651376146796,326.4877064220184,382.3567889908257
1177,1715411389610,2.24,2.81,-1.76,-419.74,326.48,401.61
1178,1715411389620,2.24,2.81,-1.76,-419.74,326.4800000000001,401.61
1179,1715411389630,2.24,2.81,-1.76,-419.74,326.48,401.61
1180,1715411389640,2.0160975609756098,2.8542276422764226,-1.6715447154471543,-350.99536585365854,344.6407317073171,380.99439024390244
1181,1715411389650,1.43,2.97,-1.44,-163.51,394.17,324.77
1182,1715411389660,1.43,2.97,-1.44,-163.51,394.17,324.77
1183,1715411389670,1.43,2.97,-1.44,-163.51,394.17,324.77
1184,1715411389680,1.3731967213114755,2.856393442622951,-1.061311475409836,-174.41991803278688,380.08155737704914,308.06295081967215
1185,1715411389690,1.34,2.79,-0.84,-182.8,369.26,295.23
1186,1715411389700,1.34,2.79,-0.84,-182.8,369.26,295.23
1187,1715411389710,1.3162655601659752,2.768423236514523,-0.7666390041493776,-201.37215767634856,347.37012448132776,299.8204564315353
1188,1715411389720,1.23,2.69,-0.5,-303.77,226.68,325.13
1189,1715411389730,1.23,2.69,-0.5,-303.77,226.68,325.13
1190,1715411389740,1.23,2.69,-0.5,-303.77,226.68,325.13
1191,1715411389750,1.2669527896995707,2.638969957081545,-0.4472103004291846,-310.25772532188836,212.26506437768242,331.83197424892705
1192,1715411389760,1.44,2.4,-0.2,-342.53,140.56,365.17
1193,1715411389770,1.44,2.4,-0.2,-342.53,140.56,365.17
1194,1715411389780,1.44,2.4,-0.2,-342.53,140.56,365.17
1195,1715411389790,1.44,2.4634361233480178,-0.24757709251101323,-339.3000440528634,140.95859030837005,387.17149779735684
1196,1715411389800,1.44,2.56,-0.32,-333.13,141.72,429.2
1197,1715411389810,1.44,2.56,-0.32,-333.13,141.72,429.2
1198,1715411389820,1.44,2.5600000000000005,-0.32000000000000006,-333.13,141.72,429.2
1199,1715411389830,1.5929880478087648,2.9169721115537848,-0.48828685258964144,-320.07478087649406,120.05689243027888,448.2821513944223
1200,1715411389840,1.74,3.26,-0.65,-305.36,95.64,469.79
1201,1715411389850,1.74,3.26,-0.65,-305.36,95.64,469.79
1202,1715411389860,1.74,3.2600000000000002,-0.65,-305.36,95.64,469.79
1203,1715411389870,1.6538671875,3.65046875,-0.546640625,-367.813671875,-3.9147656249999976,504.93710937500003
1204,1715411389880,1.59,3.94,-0.47,-432.25,-106.63,541.2
1205,1715411389890,1.59,3.94,-0.47,-432.25,-106.63,541.2
1206,1715411389900,1.59,3.94,-0.47,-432.25,-106.63,541.2
1207,1715411389910,1.8346530612244898,5.242612244897959,-1.547795918367347,-307.9567346938776,-48.81130612244898,555.0914285714285
1208,1715411389920,1.96,5.91,-2.1,-219.3,-7.57,565.0
1209,1715411389930,1.96,5.91,-2.1,-219.29999999999998,-7.570000000000001,565.0
