id,timestamp,acc_x,acc_y,acc_z,gyro_x,gyro_y,gyro_z
0,1715411336690,1.91,2.43,-0.52,198.61,-108.22000000000001,-533.26
1,1715411336700,1.5082608695652175,2.612608695652174,-0.8304347826086956,308.3958260869565,-65.50144927536232,-498.9492753623188
2,1715411336710,1.47,2.63,-0.8599999999999999,327.88,-57.92,-492.86
3,1715411336720,1.47,2.63,-0.86,327.88,-57.92,-492.86
4,1715411336730,1.4699999999999998,2.63,-0.8599999999999999,327.88,-57.92,-492.86
5,1715411336740,1.6469747899159664,2.6234453781512608,-0.9321008403361344,357.68050420168066,-104.48736694677872,-452.98240896358544
6,1715411336750,1.74,2.62,-0.97,373.54,-129.27,-431.76
7,1715411336760,1.74,2.62,-0.97,373.54,-129.27,-431.76
8,1715411336770,1.74,2.62,-0.97,373.54,-129.27,-431.76
9,1715411336780,1.3462100456621005,2.7363470319634704,-1.2474429223744292,330.67264840182645,-163.03913242009133,-368.36570776255707
10,1715411336790,1.3,2.75,-1.28,317.99,-173.03,-349.61
11,1715411336800,1.3,2.75,-1.28,317.99,-173.03,-349.61
12,1715411336810,1.3227218934911242,2.6889349112426038,-1.2757396449704141,315.086449704142,-177.68562130177514,-346.77863905325444
13,1715411336820,1.46,2.32,-1.25,268.92,-251.71000000000004,-301.76
14,1715411336830,1.46,2.32,-1.25,268.92,-251.71000000000004,-301.76
15,1715411336840,1.46,2.32,-1.25,268.92,-251.71,-301.76
16,1715411336850,1.4635428571428573,2.258,-1.1224571428571428,269.04571428571427,-252.4317142857143,-300.1171428571429
17,1715411336860,1.48,1.97,-0.53,271.12,-264.34,-273.01
18,1715411336870,1.48,1.97,-0.53,271.12,-264.34,-273.01
19,1715411336880,1.48,1.97,-0.53,271.12,-264.34,-273.01
20,1715411336890,2.1837209302325578,1.1990697674418604,0.5848837209302326,258.54093023255814,-274.4876744186046,-272.68627906976747
21,1715411336900,3.26,0.02,2.29,90.82,-409.79,-268.37
22,1715411336910,3.26,0.02,2.29,90.82,-409.79,-268.37
23,1715411336920,3.26,0.02,2.29,90.82,-409.79,-268.37
24,1715411336930,3.6042396313364056,-1.0892165898617512,3.3303686635944696,87.1548387096774,-357.4077880184332,-240.80511520737326
25,1715411336940,4.16,-2.88,5.01,69.89,-110.66,-110.96
26,1715411336950,4.16,-2.88,5.01,69.89,-110.66,-110.96
27,1715411336960,4.16,-2.88,5.01,69.89,-110.66,-110.96
28,1715411336970,3.9153571428571428,-2.88,4.088511904761905,-152.77160714285714,41.180595238095236,22.456904761904763
29,1715411336980,3.86,-2.8800000000000003,3.8800000000000003,-239.26,100.16000000000001,74.28
30,1715411336990,3.86,-2.88,3.8800000000000003,-239.26,100.16000000000001,74.28
31,1715411337000,3.86,-2.88,3.88,-239.26,100.16,74.28
32,1715411337010,3.4458131487889276,-1.6156401384083043,2.3177162629757784,-215.82276816608996,235.38242214532875,150.79166089965398
33,1715411337020,3.29,-1.14,1.73,-201.42,318.48,197.81
34,1715411337030,3.29,-1.14,1.73,-201.42,318.48,197.81
35,1715411337040,3.207441860465116,0.6019767441860465,0.3677906976744186,-218.29732558139534,355.5677906976744,239.60651162790697
36,1715411337050,3.19,0.97,0.08,-223.75,367.55,253.11
37,1715411337060,3.19,0.97,0.08,-223.75,367.55,253.10999999999999
38,1715411337070,3.19,0.97,0.08,-223.75,367.55,253.11
39,1715411337080,2.9372037914691944,2.089526066350711,-0.6362559241706162,-188.98355450236966,404.4363507109005,265.1009004739337
40,1715411337090,2.77,2.83,-1.11,-165.53,429.32,273.19
41,1715411337100,2.77,2.83,-1.11,-165.53,429.32,273.19
42,1715411337110,2.77,2.83,-1.11,-165.53,429.32,273.19
43,1715411337120,2.23875,3.72375,-1.31,-227.93625,384.88250000000005,301.765
44,1715411337130,1.92,4.26,-1.43,-265.38,358.22,318.91
45,1715411337140,1.8725862068965515,4.165172413793104,-1.2308620689655172,-334.50614942528733,309.8705747126437,339.4180459770115
46,1715411337150,1.77,3.96,-0.8,-484.06999999999994,205.26,383.79
47,1715411337160,1.77,3.96,-0.8,-484.07,205.26,383.79
48,1715411337170,1.77,3.96,-0.8000000000000002,-484.07,205.26000000000002,383.79
49,1715411337180,1.8122775800711743,3.772099644128114,-0.6708185053380783,-492.92950177935944,182.3220640569395,409.1776868327402
50,1715411337190,1.9499999999999997,3.1599999999999997,-0.25,-521.79,107.6,491.88
51,1715411337200,1.95,3.16,-0.25,-521.79,107.6,491.88
52,1715411337210,1.945862068965517,3.1527586206896556,-0.2507758620689655,-521.79,107.6,491.88
53,1715411337220,1.79,2.88,-0.28,-228.4336956521739,234.95195652173916,430.61608695652177
54,1715411337230,1.79,2.88,-0.28,-175.78,257.81,419.62
55,1715411337240,1.79,2.88,-0.28,-175.78,257.81,419.62
56,1715411337250,1.79,2.88,-0.28,-175.78,257.81,419.61999999999995
57,1715411337260,1.906188524590164,2.8468032786885247,-0.2468032786885246,-194.96844262295082,221.075368852459,414.174631147541
58,1715411337270,2.0,2.82,-0.22,-217.96,177.06,407.65
59,1715411337280,2.0,2.82,-0.22,-217.96,177.06,407.65
60,1715411337290,2.0,2.82,-0.22,-217.96,177.06,407.65
61,1715411337300,1.664070796460177,3.4660176991150444,-0.1855457227138643,-397.1874336283186,15.62548672566372,499.38628318584074
62,1715411337310,1.61,3.5700000000000003,-0.18,-442.99,-25.63,522.83
63,1715411337320,1.61,3.57,-0.18,-442.99,-25.63,522.83
64,1715411337330,1.6100000000000003,3.57,-0.18,-442.98999999999995,-25.63,522.83
65,1715411337340,1.64,3.6799999999999997,-0.87,-356.0745,-89.8215,581.388
66,1715411337350,1.64,3.6799999999999997,-0.87,-351.5,-93.2,584.47
67,1715411337360,1.64,3.6800000000000006,-0.87,-351.5,-93.2,584.47
68,1715411337370,1.0636571428571429,4.546857142857143,-1.3081142857142858,-311.908,-74.19885714285715,550.095142857143
69,1715411337380,-0.8200000000000001,7.38,-2.7399999999999998,-5.07,73.06,283.69
70,1715411337390,-0.82,7.38,-2.74,-5.07,73.06,283.69
71,1715411337400,-0.82,7.38,-2.74,-5.07,73.06,283.69
72,1715411337410,-1.156228813559322,7.321525423728813,-2.7546186440677967,-13.026610169491525,56.064745762711865,228.63440677966102
73,1715411337420,-1.97,7.180000000000001,-2.79,-44.190000000000005,-10.5,13.0
74,1715411337430,-1.97,7.180000000000001,-2.79,-44.190000000000005,-10.5,13.0
75,1715411337440,-1.97,7.18,-2.79,-44.19,-10.5,13.0
76,1715411337450,-1.57,6.955757575757576,-2.7213131313131314,-29.98282828282828,-12.217474747474748,-8.086262626262629
77,1715411337460,0.01,6.07,-2.45,156.74,-34.79,-285.22
78,1715411337470,0.01,6.07,-2.45,156.74,-34.79,-285.22
79,1715411337480,0.01,6.07,-2.45,156.74,-34.79,-285.22
80,1715411337490,0.12981042654028435,5.673127962085308,-2.0868246445497634,113.05374407582939,-78.80611374407583,-311.0967772511849
81,1715411337500,0.33,5.009999999999999,-1.4799999999999998,3.11,-189.58,-376.22
82,1715411337510,0.33,5.01,-1.4799999999999998,3.11,-189.58,-376.22
83,1715411337520,0.33,5.01,-1.48,3.11,-189.58,-376.22
84,1715411337530,0.7382758620689656,4.171379310344828,-1.2537931034482759,39.66206896551724,-165.97793103448276,-416.30827586206897
85,1715411337540,1.07,3.4899999999999998,-1.07,154.54,-91.8,-542.3
86,1715411337550,1.07,3.49,-1.07,154.54,-91.79999999999998,-542.3
87,1715411337560,1.07,3.49,-1.07,154.54,-91.8,-542.3
88,1715411337570,1.5627374301675978,3.104022346368715,-0.8975418994413408,139.90569832402235,-126.63653631284916,-551.1692737430168
89,1715411337580,1.67,3.0200000000000005,-0.86,136.72,-134.22,-553.1
90,1715411337590,1.67,3.02,-0.86,136.72,-134.22,-553.1
91,1715411337600,1.6700000000000002,3.0200000000000005,-0.86,136.72,-134.22,-553.1
92,1715411337610,2.0987500000000003,2.81,-0.72,157.39625,-142.88881944444447,-551.9926388888889
93,1715411337620,2.16,2.78,-0.7,161.74,-144.71,-551.76
94,1715411337630,2.16,2.78,-0.7,161.74,-144.71,-551.76
95,1715411337640,2.154166666666667,2.772777777777778,-0.7019444444444444,161.74,-144.71,-551.76
96,1715411337650,1.95,2.52,-0.77,285.4696357615894,-50.886490066225164,-517.5411258278147
97,1715411337660,1.95,2.52,-0.77,292.85,-45.29,-515.5
98,1715411337670,1.95,2.52,-0.77,292.85,-45.29,-515.5
99,1715411337680,1.9365517241379309,2.53176724137931,-0.8590948275862069,296.4961206896552,-54.90362068965517,-507.0906896551724
100,1715411337690,1.87,2.59,-1.3,331.3,-146.67,-426.82
101,1715411337700,1.8700000000000003,2.59,-1.3,331.3,-146.67,-426.82
102,1715411337710,1.87,2.59,-1.3,331.3,-146.67,-426.82000000000005
103,1715411337720,1.7669756097560976,2.6649268292682926,-1.2344390243902439,340.0720975609756,-144.962,-410.67434146341463
104,1715411337730,1.65,2.75,-1.16,360.78000000000003,-140.93,-372.56
105,1715411337740,1.65,2.75,-1.16,360.78,-140.93,-372.56
106,1715411337750,1.6499999999999997,2.75,-1.16,360.78,-140.93,-372.56
107,1715411337760,1.5592741935483871,2.5080645161290325,-1.3354032258064517,310.335685483871,-179.10842741935483,-314.13358870967744
108,1715411337770,1.5,2.35,-1.45,257.39,-219.18,-252.81
109,1715411337780,1.5,2.35,-1.45,257.39,-219.18000000000004,-252.81
110,1715411337790,1.5055102040816326,2.3316326530612246,-1.420612244897959,257.39,-219.18,-252.81
111,1715411337800,1.5300000000000002,2.25,-1.29,291.625,-237.44679775280898,-270.7859550561798
112,1715411337810,1.53,2.25,-1.29,293.88,-238.65,-271.97
113,1715411337820,1.53,2.25,-1.29,293.88,-238.65,-271.97
114,1715411337830,1.6571375464684015,2.1469516728624534,-1.035724907063197,292.944312267658,-245.04479553903346,-272.2387732342008
115,1715411337840,2.48,1.4799999999999998,0.61,277.1,-353.3299999999999,-276.79
116,1715411337850,2.48,1.48,0.61,277.1,-353.33,-276.79
117,1715411337860,2.48,1.4799999999999998,0.61,277.1,-353.3299999999999,-276.79
118,1715411337870,4.041538461538462,-2.0000000000000004,3.9933333333333336,151.80307692307696,-382.74051282051283,-215.78102564102565
119,1715411337880,4.58,-3.2,5.16,64.64,-403.2,-173.34
120,1715411337890,4.58,-3.2,5.16,64.64,-403.2,-173.34
121,1715411337900,4.58,-3.2,5.16,64.64,-403.19999999999993,-173.34
122,1715411337910,4.58,-3.2,5.16,64.64,-403.2,-173.34
123,1715411337920,4.58,-3.2,5.16,64.64,-403.2,-173.34
124,1715411337930,4.501049180327868,-3.1224590163934427,5.205114754098361,33.81062295081967,-347.72006557377046,-132.0464262295082
125,1715411337940,4.02,-2.65,5.48,-159.24,-0.31,126.53
126,1715411337950,3.6938181818181817,-2.078,4.298181818181818,-205.40636363636364,94.64963636363638,165.84763636363638
127,1715411337960,3.3299999999999996,-1.44,2.98,-277.34,242.60999999999999,227.10999999999999
128,1715411337970,3.33,-1.44,2.98,-277.34,242.61,227.11
129,1715411337980,3.3299999999999996,-1.44,2.98,-277.34,242.61,227.11
130,1715411337990,3.2056459330143543,-0.03966507177033495,1.6283253588516746,-269.40827751196167,307.70674641148327,223.76837320574165
131,1715411338000,3.1,1.15,0.48,-260.25,382.87,219.91
132,1715411338010,3.1,1.15,0.48,-260.25,382.87,219.91
133,1715411338020,3.1,1.15,0.48,-260.25,382.87,219.91
134,1715411338030,3.1,1.15,0.48,-260.25,382.87,219.91
135,1715411338040,3.1,1.15,0.48,-260.25,382.87,219.91
136,1715411338050,3.1,1.15,0.48,-260.25,382.87,219.90999999999997
137,1715411338060,2.4547802197802198,2.4719230769230767,-0.8187362637362638,-196.08868131868132,449.23802197802195,197.0224175824176
138,1715411338070,1.76,3.3199999999999994,-1.2,-251.59,409.0,190.92
139,1715411338080,1.76,3.32,-1.2,-251.59,409.0,190.92
140,1715411338090,1.7599999999999998,3.3200000000000003,-1.2,-251.59,409.0,190.92
141,1715411338100,1.76,3.32,-1.2,-251.59,409.0,190.92
142,1715411338110,1.7600000000000002,3.32,-1.2,-251.59,409.0,190.92
143,1715411338120,1.76,3.32,-1.2,-251.59,409.0,190.92
144,1715411338130,1.76,3.32,-1.2,-251.59,409.0,190.92
145,1715411338140,1.76,3.32,-1.2,-251.58999999999997,409.0,190.92
146,1715411338150,1.76,3.32,-1.2,-251.59,409.0,190.92
147,1715411338160,1.76,3.32,-1.2,-251.59,409.0,190.92
148,1715411338170,1.76,3.32,-1.2,-251.58999999999997,409.0,190.92
149,1715411338180,1.76,3.32,-1.2,-251.59,409.0,190.92
150,1715411338190,1.7513684210526315,3.276842105263158,-1.0662105263157895,-305.956,353.814,214.10010526315787
151,1715411338200,1.74,3.22,-0.89,-377.56,281.13,244.63
152,1715411338210,1.74,3.22,-0.89,-377.56,281.13,244.63
153,1715411338220,1.5108962264150942,3.1156603773584903,-0.6197641509433963,-411.4864150943396,188.7945283018868,331.7294339622641
154,1715411338230,1.23,2.94,-0.3,-456.54,72.51,435.97
155,1715411338240,1.23,2.9400000000000004,-0.3,-456.53999999999996,72.51,435.97
156,1715411338250,1.23,2.94,-0.3,-456.54,72.51,435.96999999999997
157,1715411338260,1.49,2.62,-0.08,-323.61,71.47,427.43
158,1715411338270,1.49,2.62,-0.08,-323.61,71.47,427.43
159,1715411338280,1.4246285714285714,2.889657142857143,-0.366,-276.43857142857144,71.60571428571428,427.9942857142857
160,1715411338290,1.41,2.95,-0.43,-257.57,71.66,428.22
161,1715411338300,1.41,2.95,-0.43,-257.57,71.66,428.22
162,1715411338310,1.41,2.95,-0.42999999999999994,-257.57,71.66,428.22
163,1715411338320,1.41,2.9499999999999997,-0.43000000000000005,-257.57,71.66,428.22
164,1715411338330,0.8769626168224299,4.182102803738318,-0.7795327102803739,-265.032523364486,-16.82420560747664,409.3976635514019
165,1715411338340,0.8,4.36,-0.83,-266.11,-29.6,406.68
166,1715411338350,0.6593103448275862,4.672413793103448,-1.0824137931034483,-268.90103448275863,-32.795172413793104,401.76344827586206
167,1715411338360,-0.56,7.38,-3.27,-306.58,-75.93,335.39000000000004
168,1715411338370,-0.56,7.380000000000001,-3.27,-306.58,-75.93,335.39
169,1715411338380,-0.56,7.38,-3.27,-306.58,-75.93,335.39
170,1715411338390,-0.8624120603015075,7.180100502512563,-3.2520603015075373,-247.2126633165829,-53.614673366834175,262.3110050251256
171,1715411338400,-1.74,6.6,-3.2,74.52,67.32,-133.73
172,1715411338410,-1.74,6.6,-3.2,74.52,67.32,-133.73
173,1715411338420,-1.74,6.6,-3.2,74.52,67.32,-133.73
174,1715411338430,-1.0834538152610442,5.948353413654618,-2.812931726907631,88.38024096385543,5.151325301204812,-180.34590361445782
175,1715411338440,-0.4,5.27,-2.41,110.47,-93.93,-254.64
176,1715411338450,-0.4,5.27,-2.41,110.47,-93.93,-254.64
177,1715411338460,-0.4,5.27,-2.41,110.47,-93.93,-254.64
178,1715411338470,0.11320652173913043,4.800163043478261,-1.3980434782608697,103.66717391304347,-137.4234782608696,-338.75673913043477
179,1715411338480,0.31,4.62,-1.01,98.88,-168.03,-397.95
180,1715411338490,0.31,4.62,-1.01,98.88,-168.03,-397.95
181,1715411338500,0.31,4.62,-1.01,98.88,-168.03,-397.95
182,1715411338510,0.8991379310344827,3.415344827586207,-0.46482758620689657,100.57405172413793,-138.64172413793105,-427.7905172413793
183,1715411338520,0.98,3.25,-0.39,103.45,-88.75,-478.45
184,1715411338530,0.98,3.25,-0.39,103.45,-88.75,-478.45
185,1715411338540,0.98,3.25,-0.39,103.45000000000002,-88.75,-478.44999999999993
186,1715411338550,1.1487958115183248,3.075759162303665,-0.575130890052356,141.2058115183246,-79.04151832460734,-509.2579581151832
187,1715411338560,1.29,2.93,-0.73,172.79,-70.92,-535.03
188,1715411338570,1.29,2.93,-0.73,172.79,-70.92,-535.03
189,1715411338580,1.7090099009900992,2.8206930693069308,-0.6389108910891089,212.91762376237625,-106.63465346534653,-542.2534653465348
190,1715411338590,1.75,2.81,-0.63,221.62,-114.38,-543.82
191,1715411338600,1.75,2.81,-0.63,221.62,-114.38,-543.82
192,1715411338610,1.7518577075098816,2.7988537549407115,-0.65600790513834,221.95391304347828,-117.01739130434781,-540.784347826087
193,1715411338620,1.76,2.75,-0.77,225.46,-144.71,-508.91
194,1715411338630,1.76,2.75,-0.7699999999999999,225.46,-144.71,-508.9100000000001
195,1715411338640,1.76,2.75,-0.77,225.46,-144.71,-508.91
196,1715411338650,1.7783206106870229,2.7536641221374047,-0.852442748091603,225.33145038167942,-145.17137404580154,-508.2670992366413
197,1715411338660,1.86,2.77,-1.22,217.04,-174.93,-466.8
198,1715411338670,1.86,2.77,-1.22,217.03999999999996,-174.93,-466.8
199,1715411338680,1.86,2.77,-1.22,217.04000000000002,-174.93,-466.79999999999995
200,1715411338690,1.672544378698225,2.957455621301775,-1.18094674556213,328.4745562130177,-153.3862721893491,-436.6001183431953
201,1715411338700,1.62,3.01,-1.17,372.68,-144.84,-424.62000000000006
202,1715411338710,1.62,3.01,-1.17,372.68,-144.84,-424.61999999999995
203,1715411338720,1.6199999999999999,3.0100000000000002,-1.17,372.68,-144.84,-424.62
204,1715411338730,1.5171428571428571,2.823571428571429,-1.26,312.87014285714287,-192.85250000000002,-389.93171428571424
205,1715411338740,1.46,2.72,-1.31,272.4,-225.34,-366.46
206,1715411338750,1.46,2.72,-1.31,272.4,-225.33999999999997,-366.46
207,1715411338760,1.4665915492957746,2.6540845070422536,-1.2649577464788733,269.2624225352112,-226.23915492957744,-364.0334647887324
208,1715411338770,1.52,2.12,-0.9,219.36000000000004,-240.54000000000002,-325.44
209,1715411338780,1.52,2.12,-0.9,219.36000000000004,-240.54000000000002,-325.44
210,1715411338790,1.52,2.12,-0.9000000000000001,219.36,-240.53999999999996,-325.44
211,1715411338800,1.52,2.12,-0.9,219.36,-240.54,-325.44
212,1715411338810,1.7465868263473054,1.6256287425149702,-0.3438323353293413,203.30161676646708,-248.39868263473056,-313.8199401197605
213,1715411338820,1.96,1.16,0.18,187.81,-255.98,-302.61
214,1715411338830,1.96,1.16,0.18,187.81,-255.98,-302.61
215,1715411338840,1.96,1.16,0.18,187.81,-255.98,-302.61
216,1715411338850,4.692881355932204,-3.0376271186440675,3.5125423728813563,187.81,-255.98,-302.61
217,1715411338860,4.74,-3.1100000000000003,3.57,163.0413656387665,-255.1212334801762,-276.61599118942735
218,1715411338870,4.74,-3.11,3.57,138.49,-254.27,-250.84999999999997
219,1715411338880,4.74,-3.11,3.57,138.49,-254.27,-250.85
220,1715411338890,4.112676056338028,-2.990070422535211,4.97225352112676,-39.1430985915493,2.9285915492957755,28.979577464788736
221,1715411338900,4.06,-2.98,5.09,-55.54,26.67,54.81
222,1715411338910,4.06,-2.98,5.09,-55.54,26.67,54.81
223,1715411338920,4.06,-2.98,5.09,-55.54,26.67,54.81
224,1715411338930,4.06,-2.98,5.09,-55.54,26.67,54.81
225,1715411338940,4.06,-2.98,5.09,-55.54,26.670000000000005,54.81
226,1715411338950,4.06,-2.98,5.09,-55.54,26.67,54.81000000000001
227,1715411338960,4.06,-2.9800000000000004,5.09,-55.54,26.67,54.809999999999995
228,1715411338970,3.4652142857142856,-1.2181071428571428,2.87325,-167.39189285714284,181.72303571428574,185.33714285714285
229,1715411338980,2.93,0.37,0.88,-267.52,320.8,302.19
230,1715411338990,2.93,0.37,0.88,-267.52,320.8,302.19
231,1715411339000,2.7895689655172418,2.0395689655172413,-0.4931034482758621,-267.52,320.8,302.19
232,1715411339010,2.75,2.51,-0.8799999999999999,-267.52,320.8,302.19
233,1715411339020,2.75,2.5100000000000002,-0.88,-193.74499999999998,379.8125,270.565
234,1715411339030,2.75,2.51,-0.88,-149.48,415.21999999999997,251.58999999999997
235,1715411339040,2.1160663507109003,3.179952606635071,-1.1609478672985782,-149.48,434.48293838862554,215.44857819905215
236,1715411339050,1.87,3.44,-1.27,-149.48,441.96,201.42
237,1715411339060,1.87,3.44,-1.27,-149.48,441.96,201.42000000000002
238,1715411339070,1.81,3.3325,-1.1625,-177.00528846153844,414.1535576923077,206.22740384615383
239,1715411339080,1.63,3.01,-0.84,-317.87,271.85,230.83
240,1715411339090,1.63,3.01,-0.84,-317.87,271.85,230.83
241,1715411339100,1.6300000000000001,3.0100000000000002,-0.84,-317.87,271.85,230.82999999999998
242,1715411339110,1.6758823529411764,2.9778823529411764,-0.670235294117647,-372.1909411764706,219.11400000000003,286.3481176470588
243,1715411339120,1.73,2.94,-0.47000000000000003,-462.15999999999997,131.77,378.3
244,1715411339130,1.73,2.94,-0.4699999999999999,-462.16,131.77,378.3
245,1715411339140,1.73,2.9400000000000004,-0.47,-462.16,131.77,378.3
246,1715411339150,1.70375,2.90625,-0.395,-448.7417,123.0642,400.1573
247,1715411339160,1.6600000000000001,2.85,-0.27,-415.88999999999993,101.75,453.67
248,1715411339170,1.6600000000000001,2.8500000000000005,-0.27,-415.89,101.75,453.67
249,1715411339180,1.66,2.85,-0.27,-415.89,101.75,453.67
250,1715411339190,1.6835294117647057,2.8029411764705885,-0.27,-413.67209150326795,102.45039215686275,453.5439869281046
251,1715411339200,1.72,2.73,-0.27,-246.22,155.33,444.03
252,1715411339210,1.72,2.73,-0.27,-246.22,155.33,444.03000000000003
253,1715411339220,1.72,2.7300000000000004,-0.27,-246.22000000000003,155.33,444.03
254,1715411339230,1.6361290322580644,3.1493548387096775,-0.3538709677419355,-251.48625806451614,126.41548387096775,443.1317419354839
255,1715411339240,1.59,3.38,-0.4,-255.19,106.08,442.5
256,1715411339250,1.59,3.38,-0.4,-255.18999999999997,106.08,442.5
257,1715411339260,1.5899999999999999,3.38,-0.4,-255.19000000000003,106.08,442.5
258,1715411339270,1.7253293413173652,3.5017964071856285,-0.027844311377245523,-313.39934131736527,28.95808383233533,504.25616766467067
259,1715411339280,1.79,3.56,0.15,-356.45,-28.08,549.93
260,1715411339290,1.79,3.56,0.15,-356.45,-28.08,549.93
261,1715411339300,1.79,3.56,0.15,-356.45,-28.08,549.93
262,1715411339310,1.0453846153846154,5.238769230769231,-1.109076923076923,-347.65215384615385,-9.898615384615384,496.5115384615384
263,1715411339320,0.69,6.04,-1.71,-335.27,15.69,421.33
264,1715411339330,0.69,6.04,-1.71,-335.27,15.689999999999998,421.33
265,1715411339340,0.559375,6.129375,-1.769375,-335.27,15.69,421.33
266,1715411339350,-1.4,7.470000000000001,-2.66,11.127638888888889,44.29,147.97159722222221
267,1715411339360,-1.4,7.47,-2.66,13.55,44.49,146.06
268,1715411339370,-1.4,7.47,-2.66,13.55,44.49,146.06
269,1715411339380,-1.3777173913043477,7.411847826086956,-2.6491304347826086,13.55,44.49,146.06
270,1715411339390,-0.99,6.4,-2.46,-38.68269607843137,-62.34372549019607,-94.7039705882353
271,1715411339400,-0.9900000000000001,6.4,-2.46,-38.94,-62.86999999999999,-95.89
272,1715411339410,-0.99,6.4,-2.46,-38.94,-62.87,-95.89
273,1715411339420,-0.6785080645161291,6.154959677419355,-1.978225806451613,-13.983225806451612,-89.14221774193548,-187.78370967741935
274,1715411339430,-0.24,5.81,-1.3,22.34,-127.38,-321.53
275,1715411339440,-0.24,5.81,-1.3,22.34,-127.38,-321.53
276,1715411339450,-0.24,5.81,-1.3,22.34,-127.38,-321.53
277,1715411339460,0.7054132231404958,4.485041322314049,-0.9066528925619834,32.63297520661157,-118.06214876033057,-406.35165289256196
278,1715411339470,1.13,3.8900000000000006,-0.73,44.19,-107.6,-501.59000000000003
279,1715411339480,1.13,3.89,-0.73,44.19,-107.6,-501.5899999999999
280,1715411339490,1.13,3.89,-0.73,44.19,-107.6,-501.59
281,1715411339500,1.445,3.274,-0.597,130.2023076923077,-65.16307692307691,-557.8546153846153
282,1715411339510,1.58,3.01,-0.54,183.96,-38.64,-593.02
283,1715411339520,1.58,3.0100000000000002,-0.54,183.96,-38.64,-593.0199999999999
284,1715411339530,1.58,3.01,-0.54,183.96,-38.64,-593.02
285,1715411339540,1.8762121212121212,2.7399242424242427,-0.4877272727272727,200.574696969697,-50.942424242424245,-585.760606060606
286,1715411339550,1.92,2.7,-0.48,204.65,-53.96,-583.98
287,1715411339560,1.9199999999999997,2.7,-0.4799999999999999,204.65,-53.96,-583.98
288,1715411339570,1.92,2.7,-0.48,204.65000000000003,-53.96,-583.98
289,1715411339580,1.9472916666666664,2.3997916666666668,-0.37083333333333335,226.38819444444445,-86.95861111111111,-549.8154166666668
290,1715411339590,1.95,2.37,-0.36,231.87,-95.28,-541.2
291,1715411339600,1.95,2.37,-0.36,231.87,-95.28,-541.2
292,1715411339610,1.9474999999999998,2.371521739130435,-0.3633695652173913,231.87,-95.28,-541.2
293,1715411339620,1.72,2.51,-0.67,304.64463414634145,-83.19079268292684,-487.53054878048783
294,1715411339630,1.7200000000000002,2.51,-0.67,310.91,-82.15,-482.91
295,1715411339640,1.7200000000000002,2.51,-0.67,310.91,-82.15,-482.91
296,1715411339650,1.5800873362445416,2.6071615720524015,-0.7516157205240175,364.2261572052402,-74.3110480349345,-468.36711790393014
297,1715411339660,1.36,2.76,-0.88,471.56,-58.53000000000001,-439.09
298,1715411339670,1.36,2.76,-0.88,471.56,-58.53,-439.09
299,1715411339680,1.36,2.76,-0.8799999999999999,471.55999999999995,-58.53,-439.09
300,1715411339690,1.2844604316546762,2.7168345323741008,-1.027482014388489,446.1243165467626,-78.46467625899281,-404.1855395683453
301,1715411339700,1.15,2.64,-1.29,373.35,-135.5,-304.32
302,1715411339710,1.15,2.64,-1.29,373.35,-135.5,-304.32
303,1715411339720,1.15,2.64,-1.29,373.35,-135.5,-304.32
304,1715411339730,1.1848958333333333,2.4934375,-1.2551041666666667,299.3542708333334,-205.65322916666665,-279.48729166666664
305,1715411339740,1.2,2.43,-1.24,239.31999999999996,-262.57,-259.34
306,1715411339750,1.2,2.43,-1.24,239.32000000000002,-262.57,-259.34
307,1715411339760,1.2,2.43,-1.24,239.32,-262.57,-259.34
308,1715411339770,1.449375,2.1675,-0.79375,280.604875,-264.5725,-259.47349999999994
309,1715411339780,1.58,2.03,-0.56,313.54,-266.17,-259.58
310,1715411339790,1.58,2.03,-0.56,313.54,-266.17,-259.58
311,1715411339800,1.58,2.03,-0.56,313.54,-266.17,-259.58
312,1715411339810,2.6035915492957744,0.4444366197183098,1.9755633802816899,149.93711267605633,-393.31718309859156,-232.38795774647886
313,1715411339820,3.11,-0.34,3.23,26.73,-489.07,-211.91
314,1715411339830,3.11,-0.34,3.23,26.73,-489.07,-211.91
315,1715411339840,3.11,-0.34,3.23,26.73,-489.07,-211.91
316,1715411339850,4.534539007092198,-3.2834751773049646,5.341063829787235,21.729290780141845,-171.90333333333334,-129.68304964539007
317,1715411339860,4.77,-3.7699999999999996,5.69,20.32,-82.52,-106.51
318,1715411339870,4.77,-3.77,5.69,20.32,-82.52,-106.51
319,1715411339880,4.715846153846154,-3.5026153846153845,5.454769230769231,20.32,-82.52,-106.51
320,1715411339890,4.45,-2.19,4.3,-167.5272580645161,169.28975806451612,104.0048387096774
321,1715411339900,4.45,-2.19,4.3,-175.42,179.87,112.85000000000001
322,1715411339910,4.45,-2.19,4.3,-175.42,179.87,112.85000000000001
323,1715411339920,4.129649122807018,-1.1998245614035088,3.1023245614035084,-247.21473684210525,210.49842105263158,174.62473684210528
324,1715411339930,3.57,0.53,1.01,-402.77,276.86,308.47
325,1715411339940,3.57,0.53,1.01,-402.77,276.86,308.47
326,1715411339950,3.57,0.53,1.01,-402.77,276.86,308.47
327,1715411339960,3.3135754189944135,1.2593854748603353,0.314804469273743,-378.9270391061453,292.8603910614525,315.1879888268156
328,1715411339970,2.67,3.09,-1.43,-273.44,363.65,344.91
329,1715411339980,2.67,3.09,-1.43,-273.44,363.65,344.91
330,1715411339990,2.67,3.09,-1.43,-273.44,363.65,344.91
331,1715411340000,2.5294285714285714,3.180285714285714,-1.4322857142857142,-273.44,363.65,344.91
332,1715411340010,1.44,3.88,-1.45,-169.43,345.34,240.78
333,1715411340020,1.44,3.88,-1.45,-169.43,345.34,240.78
334,1715411340030,1.44,3.88,-1.45,-169.43,345.34,240.77999999999997
335,1715411340040,1.5157251908396947,3.472977099236641,-1.109236641221374,-184.20190839694658,333.92259541984726,243.23496183206106
336,1715411340050,1.6,3.0200000000000005,-0.73,-330.69,220.7,267.58
337,1715411340060,1.6,3.02,-0.73,-330.69,220.70000000000002,267.58
338,1715411340070,1.6000000000000003,3.02,-0.73,-330.69,220.69999999999996,267.58
339,1715411340080,1.7620454545454545,2.9213636363636364,-0.5468181818181818,-351.42818181818177,223.26363636363635,306.0290909090909
340,1715411340090,1.8299999999999998,2.88,-0.47,-368.71,225.4,338.07
341,1715411340100,1.83,2.88,-0.47,-368.71,225.4,338.07
342,1715411340110,1.8300000000000003,2.88,-0.47,-368.71,225.4,338.07
343,1715411340120,1.7977981651376147,2.949770642201835,-0.4270642201834862,-375.73825688073396,208.8466055045872,373.4733027522936
344,1715411340130,1.77,3.01,-0.39,-382.39,193.18,406.98
345,1715411340140,1.77,3.01,-0.39,-382.39,193.18,406.98
346,1715411340150,1.7699999999999998,3.01,-0.39,-382.39,193.18,406.98
347,1715411340160,2.17650406504065,2.977479674796748,-0.414390243902439,-365.53260162601623,163.1359349593496,455.67138211382115
348,1715411340170,2.27,2.97,-0.42,-358.28,150.21,476.62
349,1715411340180,2.27,2.97,-0.42,-358.28,150.21,476.62
350,1715411340190,2.2416981132075473,3.082075471698113,-0.4233962264150943,-358.4542767295597,149.59849056603773,477.2311320754717
351,1715411340200,2.02,3.9599999999999995,-0.45,-385.99,52.98,573.79
352,1715411340210,2.02,3.96,-0.45000000000000007,-385.98999999999995,52.98,573.79
353,1715411340220,2.02,3.96,-0.45,-385.99,52.97999999999999,573.79
354,1715411340230,2.220322580645161,4.77,-0.1625806451612903,-287.98483870967743,2.7967741935483867,554.3732258064516
355,1715411340240,2.25,4.89,-0.11999999999999998,-259.4,-11.84,548.71
356,1715411340250,2.25,4.89,-0.12000000000000001,-259.4,-11.84,548.71
357,1715411340260,2.25,4.89,-0.12,-259.4,-11.84,548.71
358,1715411340270,1.1234117647058823,5.968901960784313,-1.4134901960784314,-347.96207843137256,-66.23533333333333,478.0761960784314
359,1715411340280,0.36,6.7,-2.29,-421.87,-111.63,419.13
360,1715411340290,0.36,6.7,-2.29,-421.87,-111.63,419.13
361,1715411340300,0.36,6.7,-2.29,-421.87,-111.63,419.13
362,1715411340310,-1.2902255639097744,6.83984962406015,-2.3669172932330826,-104.34503759398496,58.23330827067669,179.72082706766918
363,1715411340320,-2.0,6.9,-2.4,93.14,163.88,30.820000000000004
364,1715411340330,-2.0,6.900000000000001,-2.4,93.14,163.88,30.820000000000004
365,1715411340340,-2.0,6.8999999999999995,-2.4,93.14,163.88,30.819999999999997
366,1715411340350,-2.042063492063492,6.597142857142857,-3.99,15.866666666666667,51.82,-68.01333333333334
367,1715411340360,-2.05,6.54,-4.29,-22.77,-4.21,-117.43
368,1715411340370,-2.05,6.54,-4.29,-22.77,-4.21,-117.43
369,1715411340380,-2.05,6.54,-4.29,-22.77,-4.21,-117.43
370,1715411340390,-0.02236842105263156,5.323421052631579,-1.6188157894736843,43.10407894736843,-121.80269736842104,-287.9267105263158
371,1715411340400,0.25,5.16,-1.26,62.81000000000001,-156.98,-338.93
372,1715411340410,0.25,5.16,-1.26,62.81,-156.98,-338.93
373,1715411340420,0.786887417218543,4.118278145695364,-0.9715231788079471,106.02324503311259,-95.75880794701986,-429.50152317880793
374,1715411340430,0.9199999999999999,3.86,-0.9,122.13,-72.94,-463.26
375,1715411340440,0.9200000000000002,3.8600000000000003,-0.9,122.13,-72.94,-463.26000000000005
376,1715411340450,0.92,3.86,-0.9,122.13,-72.94,-463.26000000000005
377,1715411340460,1.41,3.07,-0.71,170.53584615384617,-68.81076923076924,-514.575076923077
378,1715411340470,1.41,3.07,-0.71,173.71,-68.54,-517.94
379,1715411340480,1.4100000000000001,3.0700000000000003,-0.71,173.71,-68.54,-517.94
380,1715411340490,1.4878048780487805,2.994878048780488,-0.6804878048780488,173.71,-68.54,-517.94
381,1715411340500,1.7,2.79,-0.6,271.50423841059603,-61.359271523178805,-541.7699337748345
382,1715411340510,1.7,2.79,-0.6,278.44,-60.85,-543.46
383,1715411340520,1.7343523316062177,2.7424352331606214,-0.5894300518134715,277.0719689119171,-73.46740932642487,-532.0752331606218
384,1715411340530,1.83,2.61,-0.56,271.67,-123.28999999999999,-487.12
385,1715411340540,1.83,2.61,-0.56,271.67,-123.29,-487.12
386,1715411340550,1.83,2.61,-0.56,271.67,-123.29,-487.12000000000006
387,1715411340560,1.8119469026548674,2.6641592920353983,-0.8488495575221239,307.0553097345133,-144.71929203539824,-467.0677876106195
388,1715411340570,1.81,2.67,-0.88,315.61,-149.9,-462.22
389,1715411340580,1.8100000000000003,2.67,-0.88,315.61,-149.9,-462.22
390,1715411340590,1.81,2.67,-0.88,315.61,-149.9,-462.22
391,1715411340600,1.7779487179487181,2.8783333333333334,-0.8158974358974359,429.466858974359,-123.79083333333332,-426.5849358974359
392,1715411340610,1.77,2.93,-0.8,498.72,-107.91,-404.91
393,1715411340620,1.77,2.93,-0.8,498.72,-107.90999999999998,-404.90999999999997
394,1715411340630,1.77,2.93,-0.8,498.71999999999997,-107.91,-404.91
395,1715411340640,1.5514285714285714,2.954285714285714,-1.301904761904762,351.05123015873016,-192.56392857142856,-326.3574603174603
396,1715411340650,1.5,2.96,-1.42,303.89,-219.6,-301.27
397,1715411340660,1.5,2.9600000000000004,-1.42,303.89,-219.6,-301.27
398,1715411340670,1.5,2.96,-1.42,303.89,-219.6,-301.27
399,1715411340680,1.5818930041152264,2.779835390946502,-1.2971604938271604,314.3355555555555,-258.7222222222222,-266.9
400,1715411340690,1.6,2.74,-1.27,317.32,-269.9,-257.08
401,1715411340700,1.6,2.74,-1.27,317.32,-269.9,-257.08
402,1715411340710,1.6,2.74,-1.27,317.32,-269.9,-257.08
403,1715411340720,1.6963855421686744,2.325542168674699,-0.6531325301204819,200.8365662650602,-287.6222891566265,-234.67969879518074
404,1715411340730,1.7,2.31,-0.63,192.57,-288.88,-233.09
405,1715411340740,1.7,2.31,-0.63,192.57,-288.88,-233.09
406,1715411340750,2.1316239316239316,1.4424786324786325,0.5580341880341879,202.74846153846153,-303.7046153846154,-246.45000000000002
407,1715411340760,2.71,0.28,2.15,242.18999999999997,-361.15,-298.22
408,1715411340770,2.71,0.28,2.15,242.19,-361.15,-298.22
409,1715411340780,2.71,0.28,2.15,242.19,-361.15,-298.22
410,1715411340790,3.4094520547945204,-1.1746575342465753,4.070958904109589,200.67986301369862,-331.53027397260274,-252.99041095890414
411,1715411340800,4.09,-2.59,5.94,52.8,-226.00999999999996,-91.86
412,1715411340810,4.09,-2.59,5.94,52.8,-226.01000000000002,-91.86
413,1715411340820,4.09,-2.59,5.94,52.8,-226.01000000000002,-91.86
414,1715411340830,3.9375177304964533,-2.660921985815603,5.546382978723405,-6.452553191489362,-169.93510638297872,-60.42687943262412
415,1715411340840,3.66,-2.79,4.83,-235.29000000000002,46.63,60.970000000000006
416,1715411340850,3.6599999999999997,-2.79,4.83,-235.29,46.63,60.97
417,1715411340860,3.6599999999999997,-2.79,4.83,-235.29,46.63,60.97
418,1715411340870,3.479016393442623,-1.8850819672131147,3.4556557377049177,-234.42475409836067,76.63868852459017,73.49688524590164
419,1715411340880,3.34,-1.19,2.4,-227.17000000000002,328.25,178.53
420,1715411340890,3.34,-1.19,2.4,-227.17000000000002,328.25,178.53
421,1715411340900,3.34,-1.19,2.4,-227.17,328.25,178.53
422,1715411340910,3.1785798816568045,0.4189940828402367,1.0253254437869823,-273.6632544378698,342.18562130177514,223.95816568047337
423,1715411340920,3.03,1.9,-0.24,-336.30000000000007,360.96000000000004,285.16
424,1715411340930,3.03,1.9,-0.24,-336.3,360.96,285.16
425,1715411340940,3.03,1.9,-0.24000000000000002,-336.3,360.96,285.16
426,1715411340950,2.4331111111111112,3.3395555555555556,-1.2845555555555555,-232.72216666666665,399.53933333333333,248.46716666666666
427,1715411340960,2.35,3.54,-1.43,-209.47,408.2,240.23
428,1715411340970,2.35,3.54,-1.43,-209.47,408.19999999999993,240.23
429,1715411340980,2.35,3.5399999999999996,-1.43,-209.47,408.2,240.22999999999996
430,1715411340990,1.8351006711409397,3.6043624161073824,-1.2461073825503355,-302.351744966443,347.93530201342276,244.35201342281877
431,1715411341000,1.7900000000000003,3.6099999999999994,-1.23,-338.81,324.28,245.96999999999997
432,1715411341010,1.79,3.61,-1.23,-338.81,324.28,245.97
433,1715411341020,1.79,3.61,-1.23,-338.81,324.28,245.97
434,1715411341030,1.8056000000000003,3.376,-0.7698,-470.72360000000003,224.3074,325.6158
435,1715411341040,1.81,3.3099999999999996,-0.64,-507.92999999999995,196.11,348.08
436,1715411341050,1.81,3.3100000000000005,-0.64,-507.93000000000006,196.10999999999999,348.08
437,1715411341060,1.7756179775280898,3.2007865168539325,-0.5813483146067416,-491.47516853932586,184.73966292134833,363.68337078651683
438,1715411341070,1.64,2.77,-0.35,-426.57,139.89,425.23
439,1715411341080,1.64,2.77,-0.35,-426.57,139.89,425.23
440,1715411341090,1.6443243243243242,2.738864864864865,-0.3223243243243243,-426.57,139.89,425.23
441,1715411341100,1.69,2.41,-0.030000000000000002,-404.8680769230769,130.77076923076922,422.80115384615385
442,1715411341110,1.69,2.41,-0.03,-313.72,92.47,412.6
443,1715411341120,1.69,2.41,-0.03,-313.72,92.47,412.59999999999997
444,1715411341130,1.69,2.41,-0.030000000000000002,-313.72,92.47,412.6
445,1715411341140,2.0068888888888887,2.7544444444444447,0.06644444444444444,-246.85274074074076,99.9768888888889,419.4305925925926
446,1715411341150,2.15,2.91,0.10999999999999999,-204.96,104.68,423.7099999999999
447,1715411341160,2.15,2.91,0.11,-204.96,104.68,423.71000000000004
448,1715411341170,2.15,2.91,0.11,-204.96,104.68,423.71
449,1715411341180,1.8904861111111113,3.4009722222222223,0.18013888888888888,-324.72555555555556,29.036666666666672,470.8511111111111
450,1715411341190,1.78,3.61,0.21,-400.94,-19.1,500.85
451,1715411341200,1.78,3.61,0.21,-400.94,-19.1,500.85
452,1715411341210,1.78,3.61,0.21,-400.94,-19.1,500.85
453,1715411341220,1.5229268292682927,5.091951219512196,-0.7653658536585366,-318.7521951219513,28.75341463414634,429.8751219512195
454,1715411341230,1.44,5.57,-1.08,-292.24,44.19,406.98
455,1715411341240,1.44,5.57,-1.08,-292.24,44.19,406.98
456,1715411341250,1.44,5.57,-1.08,-292.23999999999995,44.19,406.98
457,1715411341260,-0.42114503816793897,6.8698473282442745,-2.0154961832061065,-320.48213740458016,-267.6256488549618,412.14984732824433
458,1715411341270,-0.45,6.89,-2.03,-320.92,-272.46,412.23
459,1715411341280,-0.45,6.89,-2.03,-320.92,-272.46,412.23
460,1715411341290,-0.5424107142857143,6.908482142857143,-2.0725892857142854,-309.2684821428571,-262.9663392857143,398.9614285714286
461,1715411341300,-1.6,7.12,-2.56,114.06999999999998,81.97,-83.13
462,1715411341310,-1.6,7.12,-2.56,114.07,81.97,-83.13
463,1715411341320,,,,,,
464,1715411341330,-1.6,7.12,-2.56,114.07,81.97,-83.13
465,1715411341340,-0.9488372093023256,6.136744186046512,-1.772093023255814,21.74813953488372,-66.95093023255814,-179.15046511627907
466,1715411341350,-0.6,5.61,-1.35,-27.71,-146.73,-230.59000000000003
467,1715411341360,-0.6,5.61,-1.35,-27.71,-146.73,-230.59
468,1715411341370,-0.1676470588235294,4.791411764705883,-0.7274117647058824,14.267470588235293,-105.76541176470587,-314.541
469,1715411341380,0.15,4.19,-0.27,78.8,-42.79,-443.6
470,1715411341390,0.15,4.19,-0.27,78.8,-42.79,-443.6
471,1715411341400,0.15,4.19,-0.27,78.8,-42.79,-443.59999999999997
472,1715411341410,0.6193785310734463,3.363333333333333,-0.3750847457627119,56.313672316384185,-29.628418079096043,-466.30372881355936
473,1715411341420,0.82,3.01,-0.42,40.53,-20.39,-482.24000000000007
474,1715411341430,0.82,3.0099999999999993,-0.42000000000000004,40.53,-20.39,-482.24000000000007
475,1715411341440,0.82,3.01,-0.42,40.53,-20.39,-482.24
476,1715411341450,1.3512686567164178,3.094328358208955,-0.4705970149253731,85.25164179104479,-32.705820895522386,-533.8874626865671
477,1715411341460,1.45,3.1100000000000003,-0.48,101.68,-37.23,-552.86
478,1715411341470,1.45,3.11,-0.48,101.68,-37.23,-552.86
479,1715411341480,1.4824087591240875,3.107810218978102,-0.48569343065693427,101.68,-37.23,-552.86
480,1715411341490,2.19,3.06,-0.61,154.12272727272727,-53.95363636363637,-596.3777272727274
481,1715411341500,2.19,3.06,-0.61,156.62,-54.75,-598.45
482,1715411341510,2.19,3.06,-0.61,156.62,-54.75,-598.45
483,1715411341520,2.168448275862069,3.0462068965517237,-0.6332758620689655,156.62,-54.75,-598.45
484,1715411341530,1.94,2.9,-0.88,193.61134615384614,-61.725,-537.8708333333334
485,1715411341540,1.9400000000000002,2.9,-0.88,193.85,-61.77,-537.48
486,1715411341550,1.94,2.9,-0.88,193.85,-61.77,-537.48
487,1715411341560,2.041269035532995,2.8200507614213195,-0.9119796954314721,228.87690355329948,-65.96116751269035,-530.3640609137055
488,1715411341570,2.13,2.75,-0.94,298.4,-74.28,-516.24
489,1715411341580,2.13,2.75,-0.9399999999999998,298.4,-74.28,-516.24
490,1715411341590,2.13,2.75,-0.94,298.4,-74.28,-516.24
491,1715411341600,2.040263157894737,2.7479605263157896,-1.0113815789473684,307.2711184210526,-73.57125,-504.4164473684211
492,1715411341610,1.6899999999999997,2.74,-1.29,362.61,-69.15,-430.66
493,1715411341620,1.69,2.7400000000000007,-1.29,362.61,-69.15,-430.66
494,1715411341630,1.69,2.74,-1.29,362.61,-69.15,-430.66
495,1715411341640,1.6484722222222221,2.6601388888888895,-1.3506944444444444,341.94118055555555,-98.30722222222224,-407.2980555555556
496,1715411341650,1.56,2.4899999999999998,-1.48,266.6,-204.59,-322.14
497,1715411341660,1.56,2.49,-1.48,266.6,-204.59,-322.14
498,1715411341670,1.56,2.49,-1.48,266.6,-204.59,-322.14
499,1715411341680,1.6591304347826088,2.183167701863354,-1.2203726708074534,287.6449689440994,-206.59416149068326,-310.06409937888196
500,1715411341690,1.7700000000000002,1.8399999999999999,-0.93,349.24,-212.46,-274.72
501,1715411341700,1.77,1.84,-0.93,349.24,-212.46000000000004,-274.72
502,1715411341710,1.77,1.84,-0.93,349.24,-212.46,-274.72
503,1715411341720,1.87,0.52,1.05,282.15328125,-346.43859375,-241.13296875
504,1715411341730,1.87,0.52,1.05,249.39,-411.87,-224.73
505,1715411341740,1.8699999999999999,0.52,1.05,249.39000000000001,-411.87000000000006,-224.73
506,1715411341750,1.8699999999999999,0.52,1.05,249.39000000000001,-411.87,-224.73
507,1715411341760,3.945639097744361,-2.167067669172932,4.935789473684211,136.54924812030075,-257.8784962406015,-183.28962406015037
508,1715411341770,4.45,-2.82,5.88,109.13,-220.46,-173.22
509,1715411341780,4.45,-2.82,5.88,109.13,-220.45999999999998,-173.22
510,1715411341790,4.305844155844156,-2.5667532467532466,6.0280519480519485,54.42619047619047,-102.75982683982684,-124.7617316017316
511,1715411341800,4.08,-2.17,6.26,-68.85,162.48,-15.56
512,1715411341810,4.08,-2.17,6.26,-68.85,162.48,-15.56
513,1715411341820,4.08,-2.17,6.26,-68.85,162.48,-15.56
514,1715411341830,4.08,-2.17,6.26,-68.85,162.48,-15.56
515,1715411341840,3.5099999999999993,0.07,1.8999999999999997,-343.0195597484277,299.76201257861635,80.84251572327044
516,1715411341850,3.51,0.07,1.9,-409.41999999999996,333.01,104.18999999999998
517,1715411341860,3.51,0.07,1.9,-409.42,333.01,104.19
518,1715411341870,3.455263157894737,0.31494736842105264,1.4662105263157894,-409.27621052631577,335.4462105263158,106.59400000000001
519,1715411341880,3.11,1.8599999999999999,-1.27,-402.59,448.73,218.38
520,1715411341890,3.11,1.8600000000000003,-1.27,-402.59,448.73,218.38
521,1715411341900,3.11,1.8600000000000003,-1.27,-402.59,448.73,218.38
522,1715411341910,2.6428143712574848,2.3023353293413176,-1.3694011976047904,-319.1168862275449,451.2738922155689,194.59886227544908
523,1715411341920,2.17,2.75,-1.47,-118.1,457.4,137.33
524,1715411341930,2.17,2.75,-1.47,-118.09999999999998,457.3999999999999,137.33
525,1715411341940,2.17,2.75,-1.47,-118.10000000000001,457.4,137.33
526,1715411341950,1.9676216216216216,2.7655675675675675,-1.287081081081081,-137.8027027027027,443.8335135135135,135.77972972972975
527,1715411341960,1.65,2.79,-1.0,-300.35,331.91,122.99
528,1715411341970,1.65,2.79,-1.0,-300.35,331.91,122.99000000000001
529,1715411341980,1.65,2.79,-1.0,-300.35,331.91,122.99
530,1715411341990,1.4653846153846153,2.841282051282051,-0.8717948717948718,-414.20108974358976,236.7573717948718,191.6380128205128
531,1715411342000,1.29,2.89,-0.75,-601.38,80.32,304.5
532,1715411342010,1.29,2.8900000000000006,-0.75,-601.38,80.31999999999998,304.5
533,1715411342020,1.29,2.89,-0.75,-601.38,80.32,304.5
534,1715411342030,1.3641984732824428,2.7292366412213744,-0.453206106870229,-629.8260305343512,-10.775267175572523,372.311679389313
535,1715411342040,1.47,2.5,-0.03,-671.69,-144.84,472.11
536,1715411342050,1.47,2.5,-0.03,-671.69,-144.84,472.11
537,1715411342060,1.6035937500000002,2.0725000000000002,0.361875,-507.75250000000005,-104.636875,480.7896875
538,1715411342070,1.62,2.02,0.41,-461.85,-93.38,483.22
539,1715411342080,1.62,2.02,0.41,-461.8500000000001,-93.38,483.22
540,1715411342090,1.62,2.02,0.41,-461.85,-93.38,483.22
541,1715411342100,1.6002547770700637,1.7435668789808918,0.20267515923566878,-269.7535031847134,-20.682547770700637,437.94961783439487
542,1715411342110,1.6,1.74,0.2,-174.62,15.32,415.53000000000003
543,1715411342120,1.6,1.7400000000000002,0.2,-174.62,15.32,415.53
544,1715411342130,1.7006993006993008,1.7973426573426572,0.1272727272727273,-174.62,15.320000000000002,415.53
545,1715411342140,2.32,2.15,-0.32,-131.23358108108107,39.27648648648649,415.75216216216216
546,1715411342150,2.32,2.15,-0.32,-127.75,41.2,415.77
547,1715411342160,2.32,2.15,-0.32,-127.75,41.2,415.77
548,1715411342170,2.32,2.15,-0.32,-127.75,41.2,415.7699999999999
549,1715411342180,2.9075862068965517,5.127103448275863,0.6788965517241379,-218.6006206896552,-365.90910344827586,658.4431034482759
550,1715411342190,2.92,5.19,0.7,-220.52,-374.51,663.57
551,1715411342200,2.92,5.19,0.7,-220.52,-374.51,663.57
552,1715411342210,2.4105759162303664,6.0146073298429314,-0.1575916230366492,-203.4886387434555,-236.05968586387436,588.1986910994765
553,1715411342220,1.53,7.44,-1.64,-163.45,89.42,411.01
554,1715411342230,1.53,7.44,-1.64,-163.45,89.42,411.01
555,1715411342240,1.53,7.44,-1.64,-163.45,89.42,411.01000000000005
556,1715411342250,0.8159615384615385,7.289358974358975,-1.6912179487179486,-81.9501923076923,74.19320512820512,321.1255128205128
557,1715411342260,-0.8400000000000001,6.94,-1.81,107.05999999999999,38.88,112.67
558,1715411342270,-0.84,6.940000000000001,-1.81,107.06000000000002,38.88,112.66999999999999
559,1715411342280,-0.84,6.94,-1.81,107.06,38.88,112.67
560,1715411342290,-1.2183088235294117,6.648161764705883,-1.74875,43.96889705882353,16.689485294117645,69.72294117647058
561,1715411342300,-1.89,6.13,-1.64,-68.05,-22.71,-6.529999999999999
562,1715411342310,-1.89,6.129999999999999,-1.64,-68.05,-22.71,-6.53
563,1715411342320,-1.7980188679245284,5.9799999999999995,-1.5239622641509434,-62.176792452830185,-25.376603773584907,-21.689622641509438
564,1715411342330,-1.24,5.07,-0.8199999999999998,35.71,-69.82,-274.35
565,1715411342340,-1.24,5.07,-0.82,35.71,-69.82,-274.35
566,1715411342350,-1.24,5.07,-0.82,35.71,-69.82,-274.35
567,1715411342360,-1.24,5.07,-0.82,35.71,-69.82,-274.35
568,1715411342370,0.272,3.8100000000000005,-0.3346666666666666,-19.183,-56.0245,-411.05550000000005
569,1715411342380,0.38,3.72,-0.3,-28.87,-53.59,-435.18
570,1715411342390,0.38,3.7200000000000006,-0.3,-28.869999999999997,-53.59,-435.18
571,1715411342400,0.50075,3.6556875000000004,-0.334125,-28.869999999999997,-53.59000000000001,-435.18
572,1715411342410,1.3,3.23,-0.56,-27.86021582733813,-19.318273381294965,-517.3207194244604
573,1715411342420,1.3,3.23,-0.56,-27.71,-14.22,-529.54
574,1715411342430,1.3,3.23,-0.56,-27.71,-14.22,-529.54
575,1715411342440,1.5328994082840237,3.259112426035503,-0.6424852071005918,-13.662307692307694,-14.727692307692308,-542.2830769230769
576,1715411342450,2.26,3.35,-0.9,63.6,-17.52,-612.37
577,1715411342460,2.26,3.35,-0.9,63.6,-17.52,-612.37
578,1715411342470,2.26,3.35,-0.9,63.6,-17.52,-612.37
579,1715411342480,2.346363636363636,3.346545454545454,-0.9276363636363637,93.80654545454546,-13.162666666666668,-620.3246666666666
580,1715411342490,2.51,3.34,-0.98,194.76,1.4,-646.91
581,1715411342500,2.51,3.3400000000000003,-0.98,194.76,1.4,-646.91
582,1715411342510,2.51,3.34,-0.98,194.76,1.4,-646.91
583,1715411342520,2.4899375,3.4001875,-0.9465625000000001,234.5585,-52.6745,-622.7518124999999
584,1715411342530,2.48,3.43,-0.93,271.48,-102.84000000000002,-600.34
585,1715411342540,2.48,3.43,-0.93,271.48,-102.84,-600.34
586,1715411342550,2.48,3.4300000000000006,-0.93,271.48,-102.84,-600.34
587,1715411342560,2.314794520547945,3.0720547945205476,-1.0493150684931507,312.55397260273975,-61.672876712328765,-582.7838356164384
588,1715411342570,2.3,3.04,-1.06,346.44,-27.709999999999997,-568.3
589,1715411342580,2.3,3.04,-1.06,346.44,-27.71,-568.3
590,1715411342590,2.3,3.04,-1.06,346.44,-27.71,-568.3
591,1715411342600,2.193548387096774,2.8590322580645164,-1.1611290322580645,313.2696774193549,-119.06145161290323,-483.80403225806447
592,1715411342610,2.1,2.7,-1.25,284.12,-199.34,-409.55000000000007
593,1715411342620,2.1,2.7,-1.25,284.12,-199.34,-409.55
594,1715411342630,2.092941176470588,2.6329411764705886,-1.2279411764705883,284.12,-199.34,-409.55
595,1715411342640,2.02,1.94,-1.0,358.76,-106.51,-351.81
596,1715411342650,2.02,1.9400000000000002,-1.0,358.76,-106.51,-351.81
597,1715411342660,2.02,1.94,-1.0,358.76,-106.51000000000002,-351.81
598,1715411342670,2.0933333333333333,1.5523809523809524,-0.3504761904761905,356.88619047619045,-154.47904761904763,-333.78857142857146
599,1715411342680,2.23,0.83,0.8600000000000001,350.89,-307.98,-276.12
600,1715411342690,2.23,0.83,0.86,350.89,-307.98,-276.12
601,1715411342700,2.23,0.83,0.86,350.89,-307.98,-276.12
602,1715411342710,2.23,0.83,0.86,350.89,-307.98,-276.12
603,1715411342720,3.559699248120301,-1.6718045112781954,4.00203007518797,221.21969924812032,-203.74142857142857,-185.7693984962406
604,1715411342730,3.5799999999999996,-1.7100000000000002,4.05,219.24,-202.15,-184.39
605,1715411342740,3.58,-1.71,4.05,219.24,-202.15,-184.39
606,1715411342750,3.669285714285714,-2.21,5.072321428571429,168.96654761904762,-169.64964285714285,-150.49523809523808
607,1715411342760,3.7800000000000002,-2.83,6.340000000000001,-29.17,-41.56,-16.91
608,1715411342770,3.78,-2.83,6.340000000000001,-29.17,-41.56,-16.91
609,1715411342780,3.78,-2.83,6.34,-29.17,-41.56,-16.91
610,1715411342790,3.4293785310734464,-1.8627683615819208,4.6231638418079095,-128.2434463276836,89.3722033898305,67.05610169491526
611,1715411342800,3.2,-1.23,3.5,-204.53,190.19,131.71
612,1715411342810,3.2,-1.23,3.5,-204.53,190.19,131.71
613,1715411342820,3.2,-1.23,3.5,-204.53,190.19000000000003,131.71
614,1715411342830,2.694285714285714,0.75,0.9199999999999999,-300.9413333333333,270.3066666666667,204.046
615,1715411342840,2.61,1.08,0.49,-336.0,299.44,230.35
616,1715411342850,2.61,1.08,0.49000000000000005,-336.0,299.44,230.35
617,1715411342860,2.61,1.08,0.49,-336.0,299.44,230.34999999999997
618,1715411342870,2.3976377952755907,2.224015748031496,-0.5855118110236222,-275.4444881889764,340.20503937007874,244.51889763779528
619,1715411342880,2.3,2.75,-1.08,-230.65,370.36,255.0
620,1715411342890,2.3,2.75,-1.08,-230.65,370.36,255.0
621,1715411342900,2.3,2.75,-1.08,-230.65,370.36,255.0
622,1715411342910,2.0174647887323944,2.990985915492958,-0.8722535211267606,-254.22014084507038,337.46028169014085,253.263661971831
623,1715411342920,1.96,3.04,-0.8300000000000001,-267.03,319.58,252.32
624,1715411342930,1.96,3.04,-0.83,-267.03,319.58,252.32
625,1715411342940,2.0076923076923077,3.0201282051282052,-0.7564743589743589,-276.9610256410256,315.8502564102564,258.2251282051282
626,1715411342950,2.2,2.94,-0.46,-377.69,278.02,318.12
627,1715411342960,2.2,2.94,-0.46,-377.69,278.02,318.12
628,1715411342970,2.2,2.94,-0.46,-377.68999999999994,278.02,318.12
629,1715411342980,2.2,2.995179856115108,-0.4939568345323741,-377.69,278.02,318.12
630,1715411342990,2.2,3.07,-0.54,-320.6652066115702,276.5621487603306,383.61421487603303
631,1715411343000,2.2,3.07,-0.54,-320.19,276.55,384.16
632,1715411343010,2.2,3.07,-0.54,-320.19,276.55,384.16
633,1715411343020,1.9017307692307692,3.196923076923077,-0.6161538461538462,-305.78499999999997,281.675,381.96000000000004
634,1715411343030,1.73,3.27,-0.66,-291.38,286.8,379.76
635,1715411343040,1.73,3.27,-0.66,-291.38,286.8,379.76
636,1715411343050,1.73,3.27,-0.66,-291.38,286.8,379.76
637,1715411343060,1.7675,2.923125,-0.463125,-326.283125,192.61875,388.056875
638,1715411343070,1.77,2.9,-0.45,-328.61,186.34,388.61
639,1715411343080,1.77,2.9,-0.45,-328.61,186.34,388.61
640,1715411343090,1.77,2.9,-0.45,-328.61,186.34,388.61
641,1715411343100,1.4964084507042252,3.3954225352112672,-0.4426056338028169,-447.7628169014084,69.40549295774647,467.77408450704223
642,1715411343110,1.4,3.57,-0.44,-489.75,28.2,495.67
643,1715411343120,1.4,3.57,-0.44,-489.75,28.2,495.67
644,1715411343130,1.4,3.57,-0.44,-489.75,28.2,495.67
645,1715411343140,1.363607594936709,3.7956329113924054,-0.2944303797468354,-405.70329113924055,-30.901898734177216,477.2260759493671
646,1715411343150,1.35,3.88,-0.24,-359.56,-63.35,467.1
647,1715411343160,1.35,3.88,-0.24,-359.56,-63.35000000000001,467.1
648,1715411343170,1.35,3.88,-0.24,-359.56,-63.35,467.1
649,1715411343180,0.18007407407407408,5.654518518518518,-2.148,-303.537037037037,-50.17459259259259,370.6792592592593
650,1715411343190,-0.14,6.140000000000001,-2.67,-288.21000000000004,-46.57,344.3
651,1715411343200,-0.14,6.14,-2.67,-288.21,-46.57,344.3
652,1715411343210,-0.14,6.14,-2.67,-288.21,-46.57,344.3
653,1715411343220,-1.093469387755102,7.30204081632653,-1.5874149659863948,95.93795918367347,93.81183673469388,69.63530612244898
654,1715411343230,-1.1,7.31,-1.5800000000000003,149.54,113.4,31.310000000000002
655,1715411343240,-1.1,7.31,-1.58,149.54,113.39999999999999,31.31
656,1715411343250,-0.9986754966887418,6.806754966887417,-2.056225165562914,140.91430463576157,107.63046357615895,19.75245033112583
657,1715411343260,-0.7999999999999999,5.82,-2.99,4.82,16.6,-162.6
658,1715411343270,-0.8,5.82,-2.99,4.82,16.6,-162.6
659,1715411343280,-0.8,5.82,-2.99,4.82,16.6,-162.6
660,1715411343290,-0.8,5.82,-2.99,4.82,16.6,-162.6
661,1715411343300,-0.286890243902439,5.232256097560976,-1.5999390243902438,135.54926829268294,-59.260975609756095,-345.42634146341464
662,1715411343310,-0.25,5.19,-1.5,145.87,-65.25,-359.86
663,1715411343320,-0.25,5.19,-1.5,145.87,-65.25,-359.86
664,1715411343330,0.704051724137931,3.883189655172414,-0.8826724137931035,100.3398275862069,-108.38900862068965,-446.59814655172414
665,1715411343340,0.94,3.56,-0.73,85.51,-122.44,-474.85
666,1715411343350,0.94,3.56,-0.73,85.51,-122.44,-474.85
667,1715411343360,0.9400000000000001,3.56,-0.7299999999999999,85.51,-122.43999999999998,-474.85
668,1715411343370,1.202394366197183,3.1949295774647886,-0.5759859154929577,125.0494366197183,-94.64915492957746,-503.9100704225353
669,1715411343380,1.4,2.92,-0.46,169.31,-63.54,-536.44
670,1715411343390,1.4,2.92,-0.46,169.31,-63.54,-536.44
671,1715411343400,1.4,2.92,-0.45999999999999996,169.31,-63.54,-536.44
672,1715411343410,1.8583050847457627,2.7701694915254236,-0.49525423728813556,208.84872881355935,-83.45203389830509,-560.3467796610171
673,1715411343420,1.92,2.75,-0.5,220.57999999999998,-89.36,-567.44
674,1715411343430,1.92,2.75,-0.5,220.58000000000004,-89.36,-567.44
675,1715411343440,1.9277586206896553,2.715086206896552,-0.5,220.58,-89.36,-567.44
676,1715411343450,1.9799999999999998,2.48,-0.5,307.1170588235295,-73.89044117647059,-516.0610294117647
677,1715411343460,1.98,2.48,-0.5,310.42,-73.3,-514.1
678,1715411343470,1.98,2.48,-0.5,310.42,-73.3,-514.1
679,1715411343480,1.949230769230769,2.5184615384615383,-0.5415384615384615,310.42,-73.3,-514.1
680,1715411343490,1.58,2.98,-1.04,355.11482352941175,-91.96705882352941,-463.4625882352941
681,1715411343500,1.58,2.98,-1.04,356.75,-92.65,-461.61
682,1715411343510,1.5800000000000003,2.98,-1.04,356.75,-92.65,-461.61
683,1715411343520,1.6489820359281437,2.928263473053892,-1.1089820359281437,361.1532934131736,-106.47904191616766,-431.69922155688624
684,1715411343530,1.74,2.86,-1.2,370.12,-134.64,-370.79
685,1715411343540,1.74,2.86,-1.2,370.12,-134.64,-370.79
686,1715411343550,1.74,2.86,-1.2,370.12,-134.64,-370.79
687,1715411343560,1.5255111111111113,2.899511111111111,-1.5048,342.49044444444445,-171.2272888888889,-331.4143555555555
688,1715411343570,1.36,2.93,-1.7400000000000002,321.17,-199.46,-301.03
689,1715411343580,1.36,2.93,-1.74,321.17,-199.46,-301.03
690,1715411343590,1.36,2.93,-1.74,321.17,-199.46,-301.03
691,1715411343600,1.6429787234042552,2.6328723404255316,-1.4145744680851065,288.8159574468085,-238.63872340425533,-287.353829787234
692,1715411343610,1.76,2.51,-1.28,236.69,-301.76,-265.32
693,1715411343620,1.7600000000000002,2.51,-1.28,236.69,-301.76,-265.32
694,1715411343630,1.76,2.51,-1.28,236.69,-301.76,-265.32
695,1715411343640,2.006021505376344,1.5643548387096773,-0.503494623655914,228.58333333333334,-332.03956989247314,-260.3651612903226
696,1715411343650,2.08,1.28,-0.27,224.91,-345.76,-258.12
697,1715411343660,2.08,1.28,-0.27,224.91,-345.76,-258.12
698,1715411343670,2.08,1.28,-0.27,224.91,-345.76,-258.12
699,1715411343680,4.738881578947368,-2.0007894736842107,4.903552631578947,222.37598684210528,-293.56809210526313,-221.08105263157896
700,1715411343690,5.03,-2.36,5.47,221.44,-274.29,-207.4
701,1715411343700,5.03,-2.36,5.47,221.44,-274.29,-207.4
702,1715411343710,4.40929203539823,-2.4454867256637165,5.566637168141592,192.12628318584072,-252.9687610619469,-189.62221238938054
703,1715411343720,3.36,-2.59,5.73,-146.61,-6.59,15.81
704,1715411343730,3.3600000000000003,-2.59,5.73,-146.61,-6.589999999999999,15.809999999999999
705,1715411343740,3.36,-2.59,5.73,-146.61,-6.59,15.81
706,1715411343750,3.2624999999999997,-2.2937499999999997,4.8862499999999995,-177.2363392857143,55.019732142857144,40.30553571428572
707,1715411343760,3.1,-1.8,3.48,-257.26,216.0,104.30999999999999
708,1715411343770,3.1,-1.8,3.48,-257.26,216.0,104.31
709,1715411343780,3.1,-1.8,3.48,-257.26,216.0,104.31
710,1715411343790,2.95222641509434,-0.5304905660377359,1.914943396226415,-281.90845283018865,270.86943396226417,159.9528679245283
711,1715411343800,2.88,0.09,1.15,-296.14,302.55,192.08
712,1715411343810,2.88,0.09,1.15,-296.14,302.55,192.08
713,1715411343820,2.88,0.09,1.15,-296.14,302.55,192.08
714,1715411343830,2.6665693430656936,1.3768613138686132,-0.0364233576642336,-240.8884671532847,354.2095620437956,206.2210218978102
715,1715411343840,2.54,2.14,-0.74,-193.85,398.19,218.26
716,1715411343850,2.54,2.14,-0.7400000000000001,-193.85,398.19,218.26
717,1715411343860,2.54,2.14,-0.74,-193.85,398.19,218.26
718,1715411343870,2.131111111111111,2.7942222222222224,-0.9137777777777778,-230.59888888888887,371.3617777777778,219.16466666666668
719,1715411343880,1.74,3.42,-1.08,-265.75,345.7,220.03
720,1715411343890,1.74,3.42,-1.08,-265.75,345.7,220.03
721,1715411343900,1.7400000000000002,3.42,-1.08,-265.75,345.7,220.02999999999997
722,1715411343910,1.7732142857142856,3.389,-0.9759285714285714,-320.38000000000005,300.0678571428571,249.95499999999998
723,1715411343920,1.8900000000000001,3.28,-0.61,-520.69,132.75,359.68
724,1715411343930,1.8900000000000001,3.28,-0.61,-520.69,132.75,359.68
725,1715411343940,1.935251798561151,3.2653237410071942,-0.5476258992805756,-520.69,132.75,359.68
726,1715411343950,2.26,3.16,-0.1,-341.85273291925466,204.4280124223602,410.4467080745342
727,1715411343960,2.26,3.16,-0.1,-320.74,212.89,416.44
728,1715411343970,2.26,3.1599999999999997,-0.1,-320.74,212.89,416.44000000000005
729,1715411343980,2.233801169590643,3.1777777777777776,-0.11777777777777779,-320.74,212.88999999999996,416.44000000000005
730,1715411343990,1.98,3.3500000000000005,-0.29,-267.56308510638297,277.5290425531915,385.896914893617
731,1715411344000,1.9799999999999998,3.35,-0.29,-265.81,279.66,384.89
732,1715411344010,1.98,3.35,-0.29,-265.81,279.66,384.89
733,1715411344020,1.98,3.2150434782608697,-0.43339130434782613,-303.03478260869565,241.96330434782607,431.22904347826085
734,1715411344030,1.9800000000000002,3.19,-0.46,-318.66,226.14,450.68
735,1715411344040,1.98,3.19,-0.46,-318.66,226.14,450.68
736,1715411344050,1.98,3.19,-0.46,-318.66,226.14,450.68
737,1715411344060,1.9309803921568625,3.2488235294117644,-0.4109803921568627,-349.7464705882353,114.93019607843136,423.8682352941176
738,1715411344070,1.93,3.25,-0.41,-355.53,94.24,418.88
739,1715411344080,1.93,3.25,-0.41,-355.53,94.24,418.88
740,1715411344090,1.93,3.25,-0.41,-355.53,94.24,418.88
741,1715411344100,1.4778761061946903,3.9397787610619472,-0.8273451327433627,-342.0488938053098,81.85469026548672,447.58986725663715
742,1715411344110,1.15,4.44,-1.13,-331.54,72.2,469.97
743,1715411344120,1.15,4.44,-1.13,-331.53999999999996,72.2,469.97
744,1715411344130,1.15,4.44,-1.13,-331.54,72.2,469.96999999999997
745,1715411344140,0.510625,4.86625,-1.4806249999999999,-370.74,-87.57222222222221,458.5422222222222
746,1715411344150,0.22,5.06,-1.64,-402.1,-215.39,449.4
747,1715411344160,0.22,5.06,-1.64,-402.1,-215.39,449.4
748,1715411344170,0.22,5.06,-1.64,-402.1,-215.39,449.4
749,1715411344180,-1.701125,7.598000000000001,-3.2967500000000003,-155.8684375,-49.75062499999999,244.5256875
750,1715411344190,-1.96,7.94,-3.52,-4.15,52.31,118.29
751,1715411344200,-1.96,7.94,-3.52,-4.15,52.31,118.29
752,1715411344210,-1.5247692307692307,7.353384615384615,-3.923692307692308,0.9339999999999999,-93.486,-95.22538461538463
753,1715411344220,-1.27,7.009999999999999,-4.16,3.9100000000000006,-178.83,-220.21000000000004
754,1715411344230,-1.27,7.01,-4.16,3.9100000000000006,-178.83,-220.21
755,1715411344240,-1.27,7.01,-4.16,3.9099999999999997,-178.82999999999998,-220.21
756,1715411344250,0.5660000000000001,5.867,-1.2530000000000001,-24.548000000000002,-269.08200000000005,-268.82800000000003
757,1715411344260,0.77,5.74,-0.93,-27.71,-279.11,-274.23
758,1715411344270,0.77,5.74,-0.93,-27.71,-279.11,-274.23
759,1715411344280,0.8220625,5.5668125,-0.9108750000000001,-27.71,-279.11,-274.23
760,1715411344290,1.26,4.11,-0.75,-6.338553459119497,-144.09389937106917,-445.8267295597484
761,1715411344300,1.26,4.11,-0.75,-3.7800000000000002,-127.92999999999999,-466.37
762,1715411344310,1.3152845528455284,3.9358536585365855,-0.7665853658536586,-0.029024390243902066,-122.42731707317074,-474.9765853658537
763,1715411344320,1.46,3.4799999999999995,-0.8100000000000002,18.19,-95.7,-516.78
764,1715411344330,1.46,3.48,-0.81,18.19,-95.7,-516.78
765,1715411344340,1.46,3.48,-0.81,18.19,-95.7,-516.78
766,1715411344350,1.5887878787878786,3.397575757575758,-0.7893939393939394,52.39666666666666,-93.60424242424243,-550.0830303030303
767,1715411344360,1.71,3.32,-0.77,98.82,-90.76,-595.28
768,1715411344370,1.71,3.32,-0.77,98.82,-90.76,-595.28
769,1715411344380,1.71,3.32,-0.77,98.82,-90.76,-595.28
770,1715411344390,1.975,3.1569230769230767,-0.7088461538461539,112.25538461538461,-97.70792307692308,-600.9758461538462
771,1715411344400,2.36,2.92,-0.62,141.42,-112.78999999999999,-613.34
772,1715411344410,2.36,2.92,-0.62,141.42,-112.78999999999999,-613.34
773,1715411344420,2.36,2.92,-0.62,141.42,-112.79,-613.34
774,1715411344430,2.2961073825503355,2.8926174496644297,-0.6975838926174497,155.77758389261746,-104.65496644295303,-593.6358389261745
775,1715411344440,2.22,2.86,-0.79,182.56,-89.48,-556.88
776,1715411344450,2.22,2.86,-0.79,182.56,-89.48,-556.88
777,1715411344460,2.22,2.86,-0.79,182.56,-89.48,-556.88
778,1715411344470,1.915,2.9269512195121954,-1.0429268292682927,243.7929268292683,-89.20469512195122,-528.0434146341463
779,1715411344480,1.81,2.95,-1.13,278.2,-89.05,-511.84
780,1715411344490,1.81,2.95,-1.13,278.2,-89.05,-511.84000000000003
781,1715411344500,1.81,2.95,-1.13,278.2,-89.05,-511.84000000000003
782,1715411344510,1.6488372093023256,2.765813953488372,-1.3755813953488372,291.64558139534887,-114.90511627906976,-452.25581395348837
783,1715411344520,1.6,2.71,-1.45,295.72,-122.74,-434.2
784,1715411344530,1.6,2.71,-1.45,295.72,-122.74,-434.2
785,1715411344540,1.629724770642202,2.581192660550459,-1.459908256880734,291.8976146788991,-134.6059633027523,-409.4122935779817
786,1715411344550,1.72,2.19,-1.49,275.88,-184.33,-305.54
787,1715411344560,1.72,2.19,-1.49,275.88,-184.33,-305.54
788,1715411344570,1.7200000000000002,2.19,-1.4900000000000002,275.88,-184.33,-305.54
789,1715411344580,1.7199999999999998,2.19,-1.49,275.88,-184.33,-305.54
790,1715411344590,2.1273684210526316,1.2103759398496239,-0.5394736842105263,272.94947368421055,-193.06052631578947,-269.65849624060144
791,1715411344600,2.14,1.18,-0.51,272.52,-194.34,-264.4
792,1715411344610,2.14,1.18,-0.51,272.52,-194.34000000000003,-264.4
793,1715411344620,2.14,1.18,-0.51,272.52,-194.34,-264.4
794,1715411344630,2.2591525423728815,1.0554802259887006,-0.21480225988700563,275.0758757062147,-193.4554802259887,-263.95451977401126
795,1715411344640,3.25,0.02,2.24,296.33,-186.1,-260.25
796,1715411344650,3.25,0.02,2.24,296.33,-186.09999999999997,-260.25
797,1715411344660,3.611311475409836,-1.3349180327868853,3.8088524590163937,188.09360655737703,-201.88229508196721,-191.8155737704918
798,1715411344670,4.01,-2.83,5.54,-3.78,-229.86,-70.5
799,1715411344680,4.01,-2.83,5.54,-3.78,-229.86,-70.5
800,1715411344690,4.01,-2.83,5.54,-3.7800000000000002,-229.86,-70.5
801,1715411344700,3.8726153846153846,-2.595,5.406230769230769,-22.934307692307694,-141.30476923076924,1.793230769230772
802,1715411344710,3.63,-2.18,5.17,-56.76,15.079999999999998,129.46
803,1715411344720,3.6300000000000003,-2.18,5.17,-56.76,15.08,129.46
804,1715411344730,3.603176470588235,-2.0976470588235294,5.071176470588235,-56.75999999999999,15.08,129.46
805,1715411344740,3.06,-0.43,3.07,-244.13522123893804,250.51044247787615,190.06424778761064
806,1715411344750,3.06,-0.43,3.0700000000000003,-252.81000000000003,261.41,192.87
807,1715411344760,3.06,-0.43,3.07,-252.81,261.41,192.87
808,1715411344770,3.06,-0.43,3.07,-252.81,261.41,192.87
809,1715411344780,3.0898623853211005,1.6006422018348623,-0.015779816513761466,-422.7222018348624,299.65229357798165,273.61633027522936
810,1715411344790,3.09,1.6099999999999999,-0.03,-432.62,301.88,278.32
811,1715411344800,3.09,1.61,-0.030000000000000002,-432.62,301.88,278.32
812,1715411344810,3.05675,1.754375,-0.14725000000000002,-431.38325000000003,302.36525,278.69343749999996
813,1715411344820,2.71,3.26,-1.37,-234.74000000000004,379.52,338.07
814,1715411344830,2.7100000000000004,3.26,-1.37,-234.74,379.52,338.07
815,1715411344840,2.71,3.26,-1.37,-234.74,379.52,338.07
816,1715411344850,2.584074074074074,3.499506172839506,-1.330493827160494,-233.65345679012347,382.5661728395062,330.33259259259256
817,1715411344860,2.2,4.23,-1.21,-227.97,398.5,289.86
818,1715411344870,2.2,4.23,-1.21,-227.97,398.5,289.86
819,1715411344880,2.2,4.23,-1.21,-227.97,398.5,289.86
820,1715411344890,2.1885000000000003,4.048875000000001,-1.0835,-299.439625,344.119375,314.495875
821,1715411344900,2.16,3.6,-0.77,-476.56,209.35,375.55
822,1715411344910,2.16,3.6,-0.77,-476.56,209.35,375.55
823,1715411344920,2.16,3.6,-0.77,-476.56,209.35,375.55
824,1715411344930,2.2824475524475525,3.1894405594405595,-0.4890909090909091,-348.78293706293704,239.2725174825175,391.0613286713287
825,1715411344940,2.33,3.03,-0.38,-277.95,255.86000000000004,399.66
826,1715411344950,2.33,3.0300000000000002,-0.38,-277.95,255.86,399.65999999999997
827,1715411344960,2.33,3.03,-0.38,-277.95,255.86,399.66
828,1715411344970,2.16,2.9800000000000004,-0.32,-225.675,279.6845652173913,378.9817391304348
829,1715411344980,2.16,2.98,-0.32,-219.3,282.59,376.46
830,1715411344990,2.16,2.98,-0.32,-219.3,282.59,376.46
831,1715411345000,2.109346733668342,3.05035175879397,-0.3720603015075377,-219.3,282.59,376.46
832,1715411345010,1.8,3.48,-0.69,-364.27359712230214,133.70352517985611,490.64309352517984
833,1715411345020,1.8,3.48,-0.69,-366.39,131.53,492.31
834,1715411345030,1.7999999999999998,3.4800000000000004,-0.69,-366.39,131.53,492.30999999999995
835,1715411345040,1.8,3.48,-0.69,-366.39,131.53,492.31
836,1715411345050,2.0654335260115606,4.371098265895954,-0.48144508670520225,-320.5476878612717,102.06838150289019,448.57751445086706
837,1715411345060,2.08,4.42,-0.47,-312.07,96.62,440.49000000000007
838,1715411345070,2.08,4.42,-0.47,-312.07,96.62,440.49
839,1715411345080,2.0444736842105264,4.441315789473684,-0.5060526315789474,-312.07,96.62,440.48999999999995
840,1715411345090,0.73,5.23,-1.84,-284.73488188976376,50.28409448818898,411.7983464566929
841,1715411345100,0.73,5.23,-1.84,-282.65,46.75,409.61
842,1715411345110,0.73,5.23,-1.84,-282.65,46.75,409.61
843,1715411345120,0.73,5.23,-1.84,-282.65,46.75,409.61
844,1715411345130,0.73,5.23,-1.84,-282.65,46.75,409.61000000000007
845,1715411345140,0.73,5.23,-1.84,-282.65,46.75,409.61
846,1715411345150,0.7299999999999999,5.23,-1.84,-282.65,46.75,409.61
847,1715411345160,-1.4291666666666667,6.784583333333333,-3.455833333333333,-134.4175,24.22083333333334,107.57874999999999
848,1715411345170,-2.11,6.9,-3.8999999999999995,-18.19,69.95,-38.64
849,1715411345180,-2.11,6.9,-3.8999999999999995,-18.19,69.95,-38.64
850,1715411345190,-2.11,6.9,-3.8999999999999995,-18.19,69.95,-38.64
851,1715411345200,-2.11,6.9,-3.9,-18.19,69.95,-38.64
852,1715411345210,-2.11,6.9,-3.8999999999999995,-18.19,69.95,-38.64
853,1715411345220,-2.11,6.9,-3.9,-18.19,69.95,-38.64
854,1715411345230,-2.11,6.9,-3.9,-18.19,69.95,-38.64
855,1715411345240,-2.11,6.9,-3.9,-18.19,69.95,-38.64
856,1715411345250,-2.11,6.9,-3.9,-18.19,69.95,-38.64
857,1715411345260,-2.11,6.9,-3.9,-18.19,69.95,-38.64
858,1715411345270,-2.11,6.8999999999999995,-3.9,-18.19,69.95,-38.64
859,1715411345280,-2.11,6.9,-3.8999999999999995,-18.19,69.95,-38.64
860,1715411345290,-2.11,6.900000000000001,-3.9000000000000004,-18.19,69.95,-38.64
861,1715411345300,-2.11,6.9,-3.9,-18.19,69.95,-38.64
862,1715411345310,-2.11,6.9,-3.8999999999999995,-18.19,69.95,-38.64
863,1715411345320,-2.11,6.9,-3.9,-18.19,69.95,-38.64
864,1715411345330,-2.11,6.9,-3.8999999999999995,-18.19,69.95,-38.64
865,1715411345340,-2.11,6.9,-3.9,-18.19,69.95,-38.64
866,1715411345350,-2.11,6.9,-3.9,-18.19,69.95,-38.64
867,1715411345360,1.6390821256038646,3.460144927536232,-1.0503864734299517,180.4410628019324,-131.3783574879227,-511.31144927536235
868,1715411345370,2.07,3.12,-0.81,204.65000000000003,-144.35,-559.75
869,1715411345380,2.1382352941176475,3.0669281045751635,-0.8403267973856209,254.65666666666667,-141.78333333333333,-535.4633333333334
870,1715411345390,2.16,3.05,-0.8499999999999999,279.66,-140.5,-523.32
871,1715411345400,2.16,3.05,-0.85,279.66,-140.5,-523.32
872,1715411345410,2.16,3.05,-0.85,279.66,-140.5,-523.32
873,1715411345420,2.16,3.05,-0.85,279.66,-140.5,-523.32
874,1715411345430,2.139918699186992,3.054634146341463,-0.876260162601626,286.0334959349594,-142.91439024390246,-518.0108130081301
875,1715411345440,2.03,3.0800000000000005,-1.02,320.92,-156.13,-488.95
876,1715411345450,1.9795541401273884,3.090700636942675,-1.0887898089171975,320.92,-156.13,-488.95
877,1715411345460,1.7,3.15,-1.47,350.3663636363636,-165.0951515151515,-408.5686363636364
878,1715411345470,1.7,3.15,-1.47,352.78,-165.83,-401.98
879,1715411345480,1.7,3.15,-1.47,352.78,-165.83,-401.98
880,1715411345490,1.5989361702127658,3.1217021276595744,-1.5144680851063832,335.228085106383,-185.93255319148935,-384.82255319148936
881,1715411345500,1.45,3.08,-1.58,306.95,-218.31999999999996,-357.18
882,1715411345510,1.45,3.08,-1.58,306.95,-218.32,-357.18
883,1715411345520,1.45,3.08,-1.58,306.95,-218.31999999999996,-357.18
884,1715411345530,1.6192452830188677,2.8249056603773584,-1.3518867924528304,294.12660377358486,-236.43537735849054,-349.9932075471698
885,1715411345540,2.14,2.04,-0.65,202.39000000000001,-366.03000000000003,-298.58
886,1715411345550,2.14,2.04,-0.65,202.39,-366.03,-298.58
887,1715411345560,2.14,2.04,-0.65,202.39,-366.03,-298.58
888,1715411345570,2.575397727272727,1.4430113636363637,0.40482954545454547,227.93204545454546,-342.49704545454546,-298.9640909090909
889,1715411345580,3.11,0.71,1.7,271.55,-302.31,-299.62
890,1715411345590,3.11,0.71,1.7,271.55,-302.31,-299.62
891,1715411345600,3.11,0.71,1.6999999999999997,271.55,-302.31,-299.62
892,1715411345610,3.9812000000000003,-1.8964000000000003,4.0904,138.3554,-284.63593333333336,-175.29579999999999
893,1715411345620,4.32,-2.91,5.02,12.080000000000002,-267.88,-57.42999999999999
894,1715411345630,4.32,-2.91,5.02,12.08,-267.88,-57.43
895,1715411345640,4.32,-2.91,5.02,12.08,-267.88,-57.43
896,1715411345650,4.276331360946746,-2.7401775147928995,4.995739644970414,-59.395917159763314,-164.29165680473372,5.506390532544376
897,1715411345660,4.23,-2.56,4.97,-168.21,-6.59,101.32
898,1715411345670,4.23,-2.56,4.97,-168.21,-6.59,101.32
899,1715411345680,4.23,-2.56,4.97,-168.21,-6.59,101.32
900,1715411345690,3.6359310344827587,-1.436965517241379,3.057586206896552,-236.6348275862069,166.98241379310346,157.35089655172413
901,1715411345700,3.5,-1.18,2.62,-263.61,235.41,179.44
902,1715411345710,3.5,-1.18,2.62,-263.61,235.41,179.44
903,1715411345720,3.5,-1.18,2.62,-263.61,235.41,179.44
904,1715411345730,3.2482442748091604,0.7674045801526718,0.650381679389313,-291.34946564885496,318.09847328244274,263.12038167938937
905,1715411345740,3.16,1.45,-0.04,-304.44000000000005,357.12,302.61
906,1715411345750,3.1600000000000006,1.45,-0.04,-304.44,357.12,302.61
907,1715411345760,2.9430882352941174,2.005294117647059,-0.42754901960784314,-294.91843137254904,361.15058823529415,301.30333333333334
908,1715411345770,2.41,3.3699999999999997,-1.38,-183.04000000000002,408.51,285.95
909,1715411345780,2.41,3.37,-1.38,-183.04,408.51,285.95
910,1715411345790,2.41,3.37,-1.38,-183.04,408.51,285.95
911,1715411345800,2.2626785714285713,3.4717857142857143,-1.36125,-194.27214285714285,400.71714285714285,286.90892857142853
912,1715411345810,1.86,3.75,-1.31,-308.84,321.23,296.69
913,1715411345820,1.86,3.75,-1.31,-308.84,321.23,296.69
914,1715411345830,1.86,3.75,-1.31,-308.84,321.23,296.69
915,1715411345840,1.9929145728643214,3.4206030150753772,-0.9748241206030152,-337.7394974874372,278.16567839195983,321.8673869346734
916,1715411345850,2.09,3.18,-0.73,-372.74,226.01,352.36
917,1715411345860,2.09,3.18,-0.73,-372.74,226.01,352.36
918,1715411345870,2.09,3.1799999999999997,-0.73,-372.74,226.01,352.36
919,1715411345880,2.1307142857142853,3.2245918367346937,-0.6602040816326531,-371.0567346938775,221.8842857142857,368.55265306122453
920,1715411345890,2.3,3.41,-0.37,-362.43,200.74,451.54
921,1715411345900,2.3,3.41,-0.37,-362.43,200.74,451.54
922,1715411345910,2.3,3.41,-0.37,-362.43,200.74,451.53999999999996
923,1715411345920,2.1739726027397257,3.328082191780822,-0.3826027397260274,-382.96616438356165,157.93479452054794,465.42506849315066
924,1715411345930,1.9000000000000001,3.15,-0.41,-427.61,64.88,495.60999999999996
925,1715411345940,1.8999999999999997,3.15,-0.41,-427.61,64.88,495.61
926,1715411345950,1.8999999999999997,3.15,-0.41,-427.61,64.88,495.61
927,1715411345960,1.9,3.15,-0.41000000000000003,-427.61000000000007,64.88,495.61000000000007
928,1715411345970,2.049568345323741,3.091726618705036,-0.3847482014388489,-403.603309352518,61.99935251798561,499.4851798561151
929,1715411345980,2.67,2.85,-0.28,-304.02,50.05,515.56
930,1715411345990,2.63825,3.7231250000000005,-0.35143749999999996,-304.02,50.05,515.56
931,1715411346000,2.63,3.95,-0.37,-304.02,50.05,515.56
932,1715411346010,2.63,3.9499999999999997,-0.37,-304.02,50.05,515.56
933,1715411346020,2.63,3.95,-0.37,-304.02,50.05,515.56
934,1715411346030,2.569722222222222,4.200833333333334,-0.3369444444444445,-265.62944444444446,43.841388888888886,545.0713888888889
935,1715411346040,2.32,5.24,-0.2,-273.44,21.48,561.71
936,1715411346050,2.32,5.24,-0.20000000000000004,-273.44,21.48,561.71
937,1715411346060,2.32,5.24,-0.2,-273.44,21.48,561.71
938,1715411346070,2.32,5.24,-0.2,-273.44,21.48,561.71
939,1715411346080,2.32,5.24,-0.2,-273.44,21.48,561.71
940,1715411346090,2.32,5.24,-0.2,-273.44,21.48,561.71
941,1715411346100,2.32,5.24,-0.2,-273.44,21.48,561.71
942,1715411346110,2.32,5.24,-0.2,-273.44,21.48,561.71
943,1715411346120,2.32,5.24,-0.2,-273.44,21.48,561.71
944,1715411346130,2.32,5.24,-0.2,-273.44,21.48,561.71
945,1715411346140,2.32,5.24,-0.2,-273.44,21.48,561.71
946,1715411346150,2.32,5.24,-0.2,-273.44,21.48,561.71
947,1715411346160,2.32,5.24,-0.2,-273.44,21.48,561.71
948,1715411346170,0.31746031746031744,5.751111111111111,-1.2933333333333332,-6.416984126984127,-126.96595238095239,-275.74325396825395
949,1715411346180,0.4,5.64,-1.16,-1.89,-178.59,-379.27
950,1715411346190,0.4,5.64,-1.16,-1.89,-178.59,-379.27
951,1715411346200,0.4,5.64,-1.16,-1.8899999999999997,-178.59,-379.27
952,1715411346210,1.2571612903225808,3.822064516129032,-0.7172903225806451,-28.378774193548388,-79.65477419354839,-475.78458064516127
953,1715411346220,1.31,3.71,-0.69,-32.53,-64.15,-490.91
954,1715411346230,1.31,3.71,-0.69,-32.53,-64.15,-490.91
955,1715411346240,1.31,3.71,-0.69,-32.53,-64.15,-490.91
956,1715411346250,1.31,3.71,-0.69,-32.53,-64.15,-490.9100000000001
957,1715411346260,1.3022068965517242,3.593103448275862,-0.8068965517241379,29.542068965517238,-73.56406896551725,-517.492275862069
958,1715411346270,1.3,3.56,-0.84,47.12,-76.23,-525.02
959,1715411346280,1.5601290322580648,3.590967741935484,-0.8090322580645161,49.27554838709678,-76.69787096774193,-546.8309032258064
960,1715411346290,2.14,3.66,-0.74,56.15,-78.19,-616.39
961,1715411346300,2.14,3.66,-0.74,56.150000000000006,-78.19,-616.39
962,1715411346310,2.14,3.66,-0.74,56.15,-78.19,-616.39
963,1715411346320,2.329312977099237,3.4279389312977098,-0.7644274809160305,107.91671755725191,-63.12801526717558,-627.2162595419848
964,1715411346330,2.45,3.28,-0.78,162.11,-47.36,-638.55
965,1715411346340,2.45,3.28,-0.78,162.11,-47.36,-638.55
966,1715411346350,2.45,3.28,-0.78,162.11,-47.36,-638.55
967,1715411346360,2.2847953216374273,3.445204678362573,-1.0839766081871345,146.16964912280702,-105.5506432748538,-600.9377192982456
968,1715411346370,2.2,3.53,-1.24,137.33,-137.82,-580.08
969,1715411346380,2.2,3.53,-1.24,137.33,-137.82,-580.08
970,1715411346390,2.2,3.53,-1.24,137.33,-137.82,-580.08
971,1715411346400,2.2,3.13,-1.0266666666666668,273.0330718954248,-82.37562091503267,-577.0566013071896
972,1715411346410,2.2,2.93,-0.92,342.9,-53.82999999999999,-575.5
973,1715411346420,2.2,2.93,-0.92,342.9,-53.83,-575.5
974,1715411346430,2.082857142857143,2.895714285714286,-1.122857142857143,340.85785714285714,-61.78214285714286,-549.8007142857142
975,1715411346440,1.79,2.81,-1.63,333.37,-90.94,-455.57
976,1715411346450,1.79,2.81,-1.63,333.37,-90.94,-455.57
977,1715411346460,1.7899999999999998,2.81,-1.63,333.37,-90.94,-455.57
978,1715411346470,1.8285937499999998,2.76546875,-1.475625,326.8009375,-117.3365625,-429.22593750000004
979,1715411346480,1.92,2.66,-1.11,303.34,-211.61,-335.14
980,1715411346490,1.92,2.66,-1.11,303.34,-211.61000000000004,-335.14
981,1715411346500,1.9200000000000002,2.66,-1.11,303.34,-211.61,-335.14
982,1715411346510,2.0330769230769232,2.4096153846153845,-0.8407692307692308,300.09584615384614,-204.75615384615386,-329.81615384615384
983,1715411346520,2.34,1.73,-0.11000000000000001,279.91,-162.11,-296.69
984,1715411346530,2.34,1.73,-0.11,279.91,-162.11,-296.69
985,1715411346540,2.34,1.7300000000000002,-0.11000000000000001,279.91,-162.11,-296.69
986,1715411346550,3.3019161676646704,-0.03287425149700604,1.3922754491017963,219.71922155688623,-248.8047904191617,-252.2760479041916
987,1715411346560,4.85,-2.87,3.8099999999999996,74.77,-457.58,-145.32
988,1715411346570,4.85,-2.87,3.8100000000000005,74.77,-457.5799999999999,-145.32
989,1715411346580,4.85,-2.87,3.81,74.77,-457.58,-145.32
990,1715411346590,4.613521126760563,-2.453591549295775,4.380633802816901,52.89957746478873,-308.75042253521127,-50.31295774647887
991,1715411346600,4.39,-2.06,4.92,23.01,-105.34999999999998,79.53
992,1715411346610,4.39,-2.06,4.92,23.01,-105.35,79.53
993,1715411346620,4.358965517241379,-2.0517241379310347,4.865517241379311,23.01,-105.35,79.53
994,1715411346630,3.94,-1.94,4.13,-135.702,130.338,176.20786666666666
995,1715411346640,3.94,-1.94,4.13,-152.04,154.6,186.16
996,1715411346650,3.94,-1.94,4.13,-152.04,154.6,186.16
997,1715411346660,3.94,-1.9400000000000002,4.13,-152.04,154.6,186.16
998,1715411346670,3.603120567375887,0.07241134751773051,2.0998581560283687,-281.96170212765963,274.51829787234044,279.66042553191494
999,1715411346680,3.5599999999999996,0.33,1.8399999999999999,-321.66,311.16,308.23
1000,1715411346690,3.56,0.33,1.84,-321.66,311.16,308.23
1001,1715411346700,3.5599999999999996,0.33,1.84,-321.66,311.16,308.23
1002,1715411346710,3.248177966101695,3.0513559322033896,-0.9663983050847457,-355.6538983050848,365.1694915254237,385.85101694915255
1003,1715411346720,3.23,3.21,-1.13,-360.23,372.44,396.3
1004,1715411346730,3.23,3.21,-1.13,-360.23,372.44,396.3
1005,1715411346740,3.23,3.21,-1.13,-360.23,372.44,396.3
1006,1715411346750,2.338421052631579,4.470818713450293,-1.5983040935672514,-254.21233918128652,410.44181286549707,362.0339766081872
1007,1715411346760,2.24,4.61,-1.65,-161.01,443.85,331.91
1008,1715411346770,2.24,4.61,-1.65,-161.01,443.85,331.91
1009,1715411346780,2.203181818181818,4.471493506493506,-1.5360389610389609,-174.91285714285712,433.50428571428574,332.4857142857143
1010,1715411346790,2.03,3.82,-1.0,-355.65,299.01,339.97
1011,1715411346800,2.03,3.8199999999999994,-1.0,-355.65,299.01,339.97
1012,1715411346810,2.03,3.8199999999999994,-1.0,-355.65,299.01,339.97
1013,1715411346820,2.0540116279069767,3.641627906976744,-0.8250581395348837,-350.35325581395347,288.5532558139535,355.22953488372093
1014,1715411346830,2.1,3.3,-0.49,-336.67,261.54,394.65
1015,1715411346840,2.1,3.3000000000000003,-0.49,-336.67,261.54,394.65
1016,1715411346850,2.1,3.2999999999999994,-0.49,-336.67,261.54,394.6499999999999
1017,1715411346860,1.9436065573770491,3.3868852459016394,-0.4118032786885246,-317.4329508196721,262.09049180327867,414.3093442622951
1018,1715411346870,1.92,3.4,-0.4,-311.16,262.27,420.7200000000001
1019,1715411346880,1.92,3.4,-0.4,-311.16,262.27,420.72
1020,1715411346890,1.92,3.4,-0.4,-311.16,262.27,420.72
1021,1715411346900,2.016,3.1759999999999997,-0.4426666666666667,-322.8824242424243,223.82551515151513,425.52642424242424
1022,1715411346910,2.1,2.9799999999999995,-0.48000000000000004,-362.06000000000006,95.34,441.59
1023,1715411346920,2.1,2.9799999999999995,-0.48000000000000004,-362.06000000000006,95.34,441.59
1024,1715411346930,2.1,2.98,-0.48,-362.06,95.34,441.59
1025,1715411346940,1.9488188976377954,4.019370078740157,-0.3981102362204724,-376.93858267716536,36.563622047244095,532.0515748031496
1026,1715411346950,1.86,4.63,-0.35,-390.69,-17.76,615.66
1027,1715411346960,1.86,4.63,-0.3499999999999999,-390.69,-17.76,615.66
1028,1715411346970,1.86,4.63,-0.35,-390.69,-17.76,615.66
1029,1715411346980,1.7309219858156029,4.653829787234042,-0.42148936170212764,-334.2928368794326,2.977872340425531,568.510780141844
1030,1715411346990,1.21,4.75,-0.71,-106.69,86.67,378.23
1031,1715411347000,1.21,4.75,-0.71,-106.69,86.67,378.23
1032,1715411347010,1.21,4.75,-0.71,-106.69,86.67,378.23
1033,1715411347020,-0.7014864864864865,6.596216216216217,-3.274189189189189,-325.8285135135135,-42.046216216216216,383.33979729729725
1034,1715411347030,-0.84,6.73,-3.46,-366.15,-65.73,384.28
1035,1715411347040,-0.84,6.73,-3.46,-366.15,-65.73,384.28
1036,1715411347050,-1.052857142857143,6.827142857142858,-3.394285714285714,-345.7522556390977,-57.65977443609023,365.3222556390977
1037,1715411347060,-2.33,7.41,-3.0,86.0,113.16,-35.95
1038,1715411347070,-2.33,7.41,-3.0,86.0,113.16,-35.95
1039,1715411347080,-2.33,7.41,-3.0,86.0,113.15999999999998,-35.95
1040,1715411347090,-2.0918320610687027,7.1596183206106865,-3.0106870229007634,86.47496183206107,81.03389312977099,-65.54167938931299
1041,1715411347100,-0.77,5.77,-3.07,89.66,-134.4,-263.98
1042,1715411347110,-0.77,5.77,-3.07,89.66,-134.4,-263.98
1043,1715411347120,-0.77,5.77,-3.0700000000000003,89.66,-134.4,-263.98
1044,1715411347130,-0.09015037593984963,5.348195488721804,-2.1221804511278197,89.53593984962406,-151.23496240601503,-333.16007518796994
1045,1715411347140,0.6,4.92,-1.16,89.36,-175.11,-431.27
1046,1715411347150,0.6,4.92,-1.16,89.36,-175.11,-431.27
1047,1715411347160,0.6484738955823293,4.838072289156627,-1.1456626506024095,88.81188755020081,-174.52751004016068,-432.62116465863454
1048,1715411347170,1.31,3.7199999999999998,-0.95,55.24,-138.85,-515.38
1049,1715411347180,1.31,3.72,-0.95,55.24,-138.85,-515.38
1050,1715411347190,1.31,3.72,-0.95,55.24,-138.85,-515.38
1051,1715411347200,1.31,3.7200000000000006,-0.9499999999999998,55.24,-138.85,-515.38
1052,1715411347210,1.6246368715083799,3.412513966480447,-0.8069832402234636,59.986368715083806,-131.42206703910614,-536.9826815642458
1053,1715411347220,1.75,3.29,-0.75,64.09,-125.0,-555.66
1054,1715411347230,1.75,3.29,-0.75,64.09,-125.0,-555.66
1055,1715411347240,1.8518775510204084,3.2168571428571426,-0.75,92.01032653061225,-115.63706122448978,-567.918612244898
1056,1715411347250,2.14,3.0100000000000002,-0.75,206.6,-77.21,-618.23
1057,1715411347260,2.14,3.01,-0.75,206.6,-77.21,-618.23
1058,1715411347270,2.14,3.01,-0.75,206.6,-77.21,-618.23
1059,1715411347280,2.14,3.01,-0.75,206.6,-77.21,-618.23
1060,1715411347290,2.112077922077922,3.0435064935064933,-0.75,206.50766233766234,-106.70162337662337,-564.4074025974026
1061,1715411347300,2.09,3.07,-0.75,206.42,-134.7,-513.31
1062,1715411347310,2.09,3.07,-0.75,206.42,-134.7,-513.31
1063,1715411347320,2.033050847457627,3.1020338983050846,-0.7873728813559322,208.26949152542372,-136.04101694915252,-510.454406779661
1064,1715411347330,1.77,3.25,-0.96,233.7,-154.48,-471.19
1065,1715411347340,1.7699999999999998,3.25,-0.96,233.7,-154.48,-471.19
1066,1715411347350,1.77,3.25,-0.9600000000000001,233.70000000000002,-154.48,-471.18999999999994
1067,1715411347360,1.6441040462427745,3.246184971098266,-1.0363005780346821,253.80982658959536,-146.26034682080925,-463.8865317919075
1068,1715411347370,1.44,3.24,-1.16,303.28,-126.04,-445.92
1069,1715411347380,1.44,3.24,-1.16,303.28,-126.04,-445.92
1070,1715411347390,1.44,3.24,-1.16,303.28,-126.04,-445.92
1071,1715411347400,1.465934065934066,2.8963736263736264,-1.2507692307692306,284.43241758241754,-163.83604395604397,-397.7221978021978
1072,1715411347410,1.48,2.71,-1.3,269.65,-193.48,-359.92
1073,1715411347420,1.48,2.71,-1.3,269.65,-193.48,-359.92
1074,1715411347430,1.4868783068783067,2.693068783068783,-1.2878306878306878,269.65,-193.48000000000002,-359.92
1075,1715411347440,1.61,2.39,-1.07,194.85937931034482,-244.0984827586207,-331.18951724137935
1076,1715411347450,1.61,2.39,-1.07,194.34,-244.45,-330.99
1077,1715411347460,1.61,2.39,-1.07,194.34,-244.44999999999996,-330.99
1078,1715411347470,1.61,2.39,-1.07,194.34,-244.45,-330.99
1079,1715411347480,3.133888888888889,1.4583333333333333,0.46111111111111114,237.21492063492065,-279.1065079365079,-337.1004761904762
1080,1715411347490,3.72,1.1,1.05,278.75,-312.68,-343.02
1081,1715411347500,3.7200000000000006,1.1,1.05,278.75,-312.68,-343.02
1082,1715411347510,,,,,,
1083,1715411347520,,,,,,
1084,1715411347530,5.949166666666667,-4.051851851851851,5.983888888888889,-130.81231481481478,-343.2839814814815,-113.71305555555554
1085,1715411347540,5.97,-4.1,6.03,-134.64,-343.57,-111.56999999999998
1086,1715411347550,5.675263157894737,-3.913157894736842,5.627368421052632,-136.66098684210525,-298.00440789473686,-90.70921052631579
1087,1715411347560,4.85,-3.39,4.5,-152.71,63.84,74.95
1088,1715411347570,4.85,-3.39,4.5,-152.71,63.84000000000001,74.95
1089,1715411347580,4.85,-3.3900000000000006,4.5,-152.71,63.839999999999996,74.95
1090,1715411347590,4.09484076433121,-1.4524203821656052,2.433248407643312,-236.82490445859875,308.0305732484077,198.99662420382165
1091,1715411347600,4.09,-1.44,2.42,-241.93999999999997,322.88,206.54
1092,1715411347610,4.09,-1.44,2.42,-241.93999999999997,322.88,206.54
1093,1715411347620,3.9746153846153844,-0.6682051282051281,1.6815384615384614,-280.8811794871795,321.6512307692308,241.61646153846152
1094,1715411347630,3.64,1.57,-0.46,-396.91,317.99,346.13
1095,1715411347640,3.64,1.57,-0.46,-396.91,317.99,346.13
1096,1715411347650,3.6399999999999997,1.57,-0.46,-396.91,317.99,346.13
1097,1715411347660,3.27,2.080344827586207,-0.7483448275862069,-393.69827586206895,318.7157931034483,346.1123448275862
1098,1715411347670,2.19,3.57,-1.59,-164.06,370.61,344.85
1099,1715411347680,2.19,3.5699999999999994,-1.59,-164.06,370.61,344.85
1100,1715411347690,1.9354736842105265,3.6110526315789473,-1.4545263157894737,-185.2425263157895,345.39799999999997,338.4896842105263
1101,1715411347700,1.57,3.67,-1.26,-225.04,298.03,326.54
1102,1715411347710,1.57,3.67,-1.26,-225.04,298.03,326.54
1103,1715411347720,1.57,3.67,-1.26,-225.04,298.03,326.54
1104,1715411347730,1.576631016042781,3.4843315508021395,-0.6764705882352942,-341.4245989304813,185.6246524064171,379.74973262032086
1105,1715411347740,1.58,3.39,-0.38,-430.36,99.73,420.41
1106,1715411347750,1.58,3.39,-0.38,-430.36,99.73,420.41
1107,1715411347760,1.58,3.39,-0.38,-430.36,99.73,420.41
1108,1715411347770,1.938342541436464,3.0850276243093924,0.12320441988950279,-360.96303867403316,109.25038674033149,434.3406077348066
1109,1715411347780,2.05,2.99,0.28,-308.41,116.46000000000001,444.89
1110,1715411347790,2.05,2.99,0.28,-308.41,116.46,444.89
1111,1715411347800,2.05,2.99,0.28,-308.41,116.46,444.89
1112,1715411347810,2.0405911330049262,3.2064039408867,0.1670935960591133,-225.90788177339903,173.6488669950739,449.4016256157635
1113,1715411347820,2.04,3.2200000000000006,0.16,-215.88,180.6,449.94999999999993
1114,1715411347830,2.04,3.2200000000000006,0.16,-215.88,180.6,449.95
1115,1715411347840,2.04,3.22,0.16,-215.88,180.6,449.95
1116,1715411347850,1.9504499999999998,2.91155,0.0207,-243.25799999999998,162.80625,448.468
1117,1715411347860,1.95,2.91,0.02,-243.96000000000004,162.35,448.42999999999995
1118,1715411347870,1.95,2.91,0.02,-243.96,162.35,448.43
1119,1715411347880,1.95,2.91,0.019999999999999997,-243.96,162.35,448.42999999999995
1120,1715411347890,2.7582532751091704,3.942227074235808,-0.3403056768558952,-246.89467248908295,75.33742358078602,517.4179475982532
1121,1715411347900,2.78,3.97,-0.35,-247.13,68.36,522.95
1122,1715411347910,2.78,3.97,-0.35,-247.13,68.36,522.95
1123,1715411347920,2.6263366336633664,4.150594059405941,-0.407029702970297,-247.13000000000002,68.36,522.95
1124,1715411347930,1.81,5.11,-0.71,-278.63147540983607,80.24811475409837,467.5262295081967
1125,1715411347940,1.81,5.11,-0.71,-285.95,83.01,454.65000000000003
1126,1715411347950,1.81,5.11,-0.71,-285.95,83.01,454.65
1127,1715411347960,1.353404255319149,5.751702127659574,-1.4545390070921986,-300.1017730496454,33.7549645390071,474.66843971631204
1128,1715411347970,0.7,6.67,-2.52,-331.3,-74.83,518.8
1129,1715411347980,0.7,6.67,-2.52,-331.3,-74.83,518.8
1130,1715411347990,0.6361650485436893,6.6719417475728156,-2.565388349514563,-331.3,-74.83,518.8
1131,1715411348000,-1.93,6.75,-4.39,-252.36633333333333,-36.64241666666667,377.51275
1132,1715411348010,-1.93,6.75,-4.39,-111.02,31.74,124.51
1133,1715411348020,-1.93,6.75,-4.39,-111.02,31.739999999999995,124.51
1134,1715411348030,-1.880344827586207,6.720574712643679,-4.349540229885057,-111.02,31.739999999999995,124.51
1135,1715411348040,-1.39,6.43,-3.95,-15.127692307692309,-215.17384615384617,-115.32692307692308
1136,1715411348050,-1.39,6.43,-3.95,-2.62,-247.38,-146.61
1137,1715411348060,-1.39,6.43,-3.9499999999999997,-2.62,-247.38,-146.61
1138,1715411348070,-1.39,6.43,-3.95,-2.62,-247.38,-146.61
1139,1715411348080,0.3240425531914894,5.475248226950354,-1.3263120567375888,-26.297446808510635,-341.8214184397163,-236.2146808510638
1140,1715411348090,0.89,5.159999999999999,-0.46,-41.44,-402.21999999999997,-293.52
1141,1715411348100,0.89,5.16,-0.46,-41.44,-402.22,-293.52
1142,1715411348110,0.89,5.16,-0.46,-41.44,-402.22,-293.52
1143,1715411348120,1.2375352112676055,3.4421830985915496,-0.5493661971830986,-4.027887323943661,-197.27098591549296,-430.87774647887323
1144,1715411348130,1.24,3.43,-0.55,7.75,-132.75,-474.12
1145,1715411348140,1.24,3.4300000000000006,-0.55,7.75,-132.75,-474.12
1146,1715411348150,1.3256830601092895,3.3898360655737707,-0.584808743169399,18.210601092896173,-128.92109289617488,-487.76650273224044
1147,1715411348160,1.56,3.28,-0.68,54.44,-115.66,-535.03
1148,1715411348170,1.5600000000000003,3.28,-0.68,54.440000000000005,-115.65999999999998,-535.03
1149,1715411348180,1.56,3.28,-0.68,54.44,-115.66,-535.03
1150,1715411348190,1.8073202614379085,3.215359477124183,-0.6547058823529411,61.07843137254902,-113.89895424836602,-545.9581045751634
1151,1715411348200,2.44,3.05,-0.59,86.18,-107.24,-587.28
1152,1715411348210,2.44,3.05,-0.59,86.18,-107.24,-587.28
1153,1715411348220,2.44,3.05,-0.59,86.18,-107.24,-587.28
1154,1715411348230,2.3097093023255812,3.074127906976744,-0.7009883720930232,112.8093023255814,-98.57627906976744,-583.066976744186
1155,1715411348240,2.17,3.1,-0.82,167.97,-80.63,-574.34
1156,1715411348250,2.17,3.1,-0.82,167.97,-80.63,-574.34
1157,1715411348260,2.17,3.1,-0.82,167.97,-80.63,-574.34
1158,1715411348270,2.1174025974025974,3.105844155844156,-1.0303896103896102,188.05,-88.74499999999999,-557.0649999999999
1159,1715411348280,2.08,3.11,-1.18,208.13,-96.86,-539.79
1160,1715411348290,2.08,3.11,-1.18,208.13,-96.86,-539.79
1161,1715411348300,2.08,3.11,-1.18,208.13,-96.86,-539.79
1162,1715411348310,1.9920603015075378,3.1790954773869347,-1.3684422110552763,224.8873366834171,-93.88130653266332,-536.5081909547738
1163,1715411348320,1.94,3.22,-1.48,323.12,-76.42,-517.27
1164,1715411348330,1.94,3.22,-1.48,323.12,-76.42,-517.27
1165,1715411348340,1.94,3.22,-1.48,323.12,-76.42,-517.27
1166,1715411348350,1.7715094339622643,3.264339622641509,-1.9943396226415095,273.08459119496854,-208.5240251572327,-440.5814465408805
1167,1715411348360,1.75,3.27,-2.06,262.39,-236.76,-424.19
1168,1715411348370,1.75,3.27,-2.06,262.39,-236.76000000000002,-424.19
1169,1715411348380,1.75,3.27,-2.06,262.39,-236.75999999999996,-424.19
1170,1715411348390,1.7845205479452055,3.2206849315068493,-1.9950684931506852,257.0820547945205,-242.86520547945204,-418.81219178082193
1171,1715411348400,2.17,2.67,-1.27,197.81,-311.04,-358.76
1172,1715411348410,2.17,2.6699999999999995,-1.27,197.81,-311.04,-358.75999999999993
1173,1715411348420,2.239830508474576,2.5486440677966105,-1.1445762711864407,197.81,-311.04,-358.76
1174,1715411348430,3.2,0.8799999999999999,0.58,250.31460606060608,-253.53993939393942,-379.3222424242424
1175,1715411348440,3.2,0.88,0.58,252.99000000000004,-250.61,-380.37
1176,1715411348450,3.2000000000000006,0.8800000000000001,0.58,252.98999999999998,-250.61,-380.37
1177,1715411348460,4.891840490797546,-2.015521472392638,3.702883435582822,160.18141104294477,-288.8839263803681,-237.93993865030674
1178,1715411348470,5.73,-3.45,5.25,93.75,-316.28,-135.99
1179,1715411348480,5.73,-3.45,5.25,93.75,-316.28,-135.99
1180,1715411348490,5.73,-3.45,5.25,93.75,-316.28,-135.99
1181,1715411348500,5.352171428571429,-3.2285142857142857,5.0372,12.262799999999999,-218.31165714285711,-56.84794285714286
1182,1715411348510,4.86,-2.94,4.76,-156.43,-15.5,106.99
1183,1715411348520,4.86,-2.94,4.76,-156.43,-15.5,106.99
1184,1715411348530,4.86,-2.94,4.76,-156.43,-15.5,106.99
1185,1715411348540,4.3504000000000005,-2.316,3.6315999999999997,-171.91624000000002,51.41871999999999,145.58151999999998
1186,1715411348550,3.8799999999999994,-1.74,2.59,-215.09,237.97999999999996,253.17000000000002
1187,1715411348560,3.88,-1.74,2.59,-215.09,237.98,253.17000000000002
1188,1715411348570,3.88,-1.7399999999999998,2.59,-215.09000000000003,237.97999999999996,253.16999999999996
1189,1715411348580,3.713777777777778,-0.3320000000000001,1.5046666666666666,-231.83666666666667,271.9948148148148,292.3433333333333
1190,1715411348590,3.54,1.14,0.37,-271.61,352.78,385.38
1191,1715411348600,3.54,1.14,0.37,-271.61,352.78,385.38
1192,1715411348610,3.2323636363636363,3.105454545454545,-1.151090909090909,-247.68400000000003,398.623,407.25500000000005
1193,1715411348620,3.1799999999999997,3.44,-1.41,-237.43000000000004,418.27,416.62999999999994
1194,1715411348630,3.18,3.44,-1.41,-237.42999999999998,418.2699999999999,416.63
1195,1715411348640,3.18,3.44,-1.41,-237.43,418.27,416.63
1196,1715411348650,2.2157142857142857,4.2596428571428575,-1.5305357142857143,-252.00041666666667,346.1616666666667,390.38625
1197,1715411348660,1.98,4.46,-1.56,-258.0,316.47,379.58
1198,1715411348670,1.98,4.46,-1.56,-258.0,316.47,379.58
1199,1715411348680,1.98,4.46,-1.56,-258.0,316.47,379.58
1200,1715411348690,2.0175757575757576,3.464242424242424,-0.6112121212121213,-348.08318181818186,204.44727272727275,385.5545454545454
1201,1715411348700,2.02,3.4,-0.55,-385.86,157.47,388.06
1202,1715411348710,2.04,3.3636363636363638,-0.5318181818181819,-385.86,157.47,388.06
1203,1715411348720,2.3500000000000005,2.8,-0.25,-233.1660550458716,218.21642201834862,360.0583486238532
1204,1715411348730,2.35,2.8,-0.25,-208.8,227.91,355.5899999999999
1205,1715411348740,2.35,2.8,-0.25,-208.8,227.91,355.59
1206,1715411348750,2.338717948717949,2.849230769230769,-0.25,-208.8,227.91,355.59
1207,1715411348760,2.24,3.28,-0.25,-174.5,266.42,389.16
1208,1715411348770,2.24,3.28,-0.25,-174.5,266.42,389.16
1209,1715411348780,2.24,3.28,-0.25,-174.5,266.42,389.16
1210,1715411348790,2.1506617647058826,3.2535294117647062,-0.2797794117647059,-217.025,230.9575,409.76
1211,1715411348800,1.9699999999999998,3.2,-0.34,-344.6,124.57,471.56
1212,1715411348810,1.97,3.2,-0.34,-344.6,124.57,471.55999999999995
1213,1715411348820,1.97,3.2,-0.34,-344.6,124.56999999999998,471.56
1214,1715411348830,2.111732283464567,3.3653543307086613,-0.4533858267716535,-281.96559055118115,150.17700787401574,453.10385826771653
1215,1715411348840,2.27,3.55,-0.58,-159.61,200.2,417.05000000000007
1216,1715411348850,2.27,3.55,-0.58,-159.61,200.2,417.05
1217,1715411348860,2.27,3.55,-0.58,-159.61,200.2,417.05
1218,1715411348870,1.4877777777777779,3.911481481481481,-0.6333333333333333,-271.8385185185185,118.79592592592591,454.1096296296296
1219,1715411348880,0.95,4.16,-0.67,-392.7,31.130000000000003,494.02
1220,1715411348890,0.95,4.16,-0.67,-392.7,31.13,494.02
1221,1715411348900,0.95,4.16,-0.67,-392.7,31.13,494.0199999999999
1222,1715411348910,0.36666666666666664,4.6530555555555555,-2.343611111111111,-248.59799999999998,69.62,386.5
1223,1715411348920,0.11,4.87,-3.08,-152.53,95.28,314.82
1224,1715411348930,0.11,4.87,-3.08,-152.53,95.28,314.82
1225,1715411348940,0.11,4.87,-3.08,-152.53,95.28,314.82
1226,1715411348950,-1.726363636363636,6.297272727272727,-2.7436363636363637,-198.10381818181816,-38.25115151515151,275.00230303030304
1227,1715411348960,-1.91,6.44,-2.71,-219.67,-101.44,256.16
1228,1715411348970,-1.91,6.4399999999999995,-2.71,-219.67000000000002,-101.44,256.16
1229,1715411348980,-1.91,6.44,-2.71,-219.67,-101.44,256.16
1230,1715411348990,-0.9924183006535948,5.922156862745099,-3.309607843137255,173.78098039215686,24.5521568627451,-159.73803921568629
1231,1715411349000,-0.8999999999999999,5.87,-3.37,281.98,59.20000000000001,-274.11
1232,1715411349010,-0.9,5.87,-3.37,281.98,59.2,-274.11
