id,timestamp,acc_x,acc_y,acc_z,gyro_x,gyro_y,gyro_z
0,1715411580430,3.9227272727272724,-0.6845454545454546,0.38242424242424244,-65.98,260.01,-157.29
1,1715411580440,3.63,-1.04,-0.20999999999999996,97.46999999999998,157.84,-306.7
2,1715411580450,3.63,-1.04,-0.21,97.47,157.84,-306.7
3,1715411580460,3.6300000000000003,-1.04,-0.21,97.46999999999998,157.84,-306.7
4,1715411580470,3.5042857142857144,-0.9428571428571428,-0.06142857142857143,97.47,157.84,-306.7
5,1715411580480,2.97,-0.53,0.57,57.400571428571425,150.48185714285717,-363.9552857142857
6,1715411580490,2.9700000000000006,-0.53,0.5699999999999998,49.93,149.10999999999999,-374.63
7,1715411580500,2.97,-0.53,0.57,49.93,149.11,-374.63
8,1715411580510,2.770970873786408,-0.5688349514563107,0.5360194174757281,55.93300970873787,155.68650485436893,-378.84097087378643
9,1715411580520,2.15,-0.69,0.43,106.14,210.69,-414.06
10,1715411580530,2.15,-0.69,0.43,106.14,210.69,-414.06
11,1715411580540,2.122222222222222,-0.6937037037037037,0.4219753086419753,107.00304526748972,210.23592592592593,-414.5507818930041
12,1715411580550,1.7,-0.75,0.3,211.0,155.52,-473.69
13,1715411580560,1.7,-0.75,0.3,211.0,155.52,-473.69
14,1715411580570,1.7,-0.75,0.3,211.0,155.52,-473.69
15,1715411580580,1.7,-0.75,0.3,211.0,155.52,-473.69
16,1715411580590,1.926766917293233,-0.8751127819548872,0.47984962406015036,187.37533834586466,169.53022556390977,-500.5573684210527
17,1715411580600,1.99,-0.91,0.53,167.36,181.40000000000003,-523.32
18,1715411580610,1.9900000000000002,-0.91,0.53,167.36,181.4,-523.32
19,1715411580620,1.998507462686567,-1.085820895522388,0.4732835820895523,168.5898507462687,192.4044776119403,-527.1185074626866
20,1715411580630,2.02,-1.53,0.33,175.6,255.13,-548.77
21,1715411580640,2.02,-1.53,0.33,175.6,255.13,-548.77
22,1715411580650,2.02,-1.53,0.33,175.59999999999997,255.13,-548.77
23,1715411580660,1.9633701657458564,-1.5186740331491713,0.33226519337016575,177.08685082872927,248.10751381215468,-547.1950276243094
24,1715411580670,1.77,-1.48,0.34,184.88,211.3,-538.94
25,1715411580680,1.7700000000000002,-1.48,0.34,184.88,211.3,-538.94
26,1715411580690,1.77,-1.48,0.34,184.88,211.3,-538.94
27,1715411580700,1.6756410256410255,-1.5025641025641026,0.2712820512820513,186.57461538461538,211.5115384615385,-535.5315384615385
28,1715411580710,0.8500000000000001,-1.7000000000000002,-0.33,206.91,214.05000000000004,-494.62999999999994
29,1715411580720,0.85,-1.7,-0.33,206.91,214.05,-494.63
30,1715411580730,0.85,-1.7,-0.33,206.91,214.05,-494.63
31,1715411580740,0.4918543046357616,-1.7878145695364238,-0.4143708609271523,232.21609271523178,178.0976821192053,-478.3188741721854
32,1715411580750,-1.23,-2.21,-0.82,353.88,5.25,-399.9
33,1715411580760,-1.23,-2.21,-0.82,353.88,5.25,-399.9
34,1715411580770,-1.23,-2.21,-0.82,353.88,5.25,-399.9
35,1715411580780,-2.370229885057471,-1.88632183908046,-1.5114942528735633,292.0096551724138,-9.16471264367816,-285.0494252873563
36,1715411580790,-2.78,-1.7700000000000002,-1.76,185.67,-33.94,-87.65
37,1715411580800,-2.78,-1.7699999999999998,-1.76,185.67,-33.94,-87.65
38,1715411580810,-2.78,-1.77,-1.76,185.67,-33.94,-87.65
39,1715411580820,-2.491214953271028,-1.144299065420561,-0.8070093457943927,-29.32327102803738,-6.899065420560747,116.55327102803737
40,1715411580830,-2.48,-1.12,-0.77,-91.49,0.92,175.6
41,1715411580840,-2.48,-1.12,-0.77,-91.49,0.92,175.6
42,1715411580850,-2.2664541832669323,-1.1311553784860557,-0.6887250996015937,-99.18517928286852,-3.1254581673306774,212.08669322709164
43,1715411580860,-1.14,-1.19,-0.26,-150.02,-29.85,453.12
44,1715411580870,-1.14,-1.19,-0.26,-150.02,-29.85,453.11999999999995
45,1715411580880,-1.14,-1.19,-0.26,-150.02,-29.85,453.12
46,1715411580890,-1.14,-1.19,-0.26,-150.02,-29.85,453.12
47,1715411580900,0.6897744360902255,-1.7178195488721804,0.20624060150375942,-199.2276691729323,-70.77894736842106,646.1172180451128
48,1715411580910,0.9400000000000001,-1.7899999999999998,0.27,-213.56,-82.7,702.33
49,1715411580920,0.9400000000000001,-1.79,0.27,-213.56,-82.7,702.33
50,1715411580930,0.94,-1.79,0.27,-213.56,-82.7,702.33
51,1715411580940,1.1689772727272727,-1.90625,0.22244318181818185,-208.64136363636362,-86.73295454545455,709.991590909091
52,1715411580950,2.24,-2.45,-141.42,-141.85,814.7
53,1715411580960,2.24,-2.45,-141.42,-141.85,814.7
54,1715411580970,2.2250000000000005,-2.4,0.011,-132.04466666666664,-144.03866666666667,804.0433333333334
55,1715411580980,2.09,-1.95,0.11,-0.79,-174.68,654.85
56,1715411580990,2.09,-1.95,0.11,-0.79,-174.68,654.85
57,1715411581000,2.09,-1.95,0.11,-0.79,-174.68,654.85
58,1715411581010,2.0572928176795577,-1.9254696132596685,0.1876795580110497,3.9369060773480666,-135.08546961325968,640.8739779005525
59,1715411581020,2.01,-1.89,0.3,14.22,-48.95,610.47
60,1715411581030,2.01,-1.8900000000000001,0.3,14.22,-48.95,610.47
61,1715411581040,2.01,-1.89,0.3,14.219999999999999,-48.95,610.47
62,1715411581050,2.0428571428571427,-1.4902380952380951,-0.08333333333333334,-17.33015873015873,-63.224444444444444,597.5765079365079
63,1715411581060,2.07,-1.16,-0.4,-54.32,-79.96,582.46
64,1715411581070,2.07,-1.16,-0.39999999999999997,-54.31999999999999,-79.96,582.46
65,1715411581080,2.07,-1.16,-0.4,-54.32,-79.96,582.46
66,1715411581090,2.402682926829268,-1.0258536585365854,0.06146341463414634,-71.50451219512195,-65.16792682926828,551.7376829268293
67,1715411581100,2.69,-0.91,0.46,-137.21,-8.61,434.27
68,1715411581110,2.69,-0.91,0.46,-137.21,-8.61,434.27
69,1715411581120,2.69,-0.91,0.46,-137.21,-8.61,434.27
70,1715411581130,3.1262676056338026,0.5097183098591549,0.4378169014084507,-98.41605633802817,11.405070422535212,368.4354225352113
71,1715411581140,3.28,1.01,0.43,-54.99,33.81,294.74
72,1715411581150,3.28,1.01,0.42999999999999994,-54.99000000000001,33.81,294.74
73,1715411581160,3.28,1.01,0.43,-54.99,33.81,294.74
74,1715411581170,3.1394594594594594,-0.36905405405405406,0.24554054054054056,-74.31155405405406,61.21263513513513,257.3960810810811
75,1715411581180,3.12,-0.56,0.22,-179.32,210.14000000000001,54.43999999999999
76,1715411581190,3.12,-0.56,0.22,-179.32,210.14,54.44
77,1715411581200,3.1199999999999997,-0.56,0.22,-179.32,210.14,54.44
78,1715411581210,3.964099378881987,-0.2129813664596273,0.5763975155279503,116.54304347826087,-48.3095652173913,-148.04217391304346
79,1715411581220,4.02,-0.19,0.6,178.83,-102.72,-190.67
80,1715411581230,4.02,-0.19,0.6,178.83,-102.72,-190.67
81,1715411581240,4.058133333333333,-0.4745333333333333,0.5325333333333333,149.20020000000002,-42.501466666666666,-217.07166666666666
82,1715411581250,4.15,-1.16,0.37,35.46,188.66,-318.42
83,1715411581260,4.15,-1.16,0.37,35.46,188.66,-318.42
84,1715411581270,4.15,-1.16,0.37,35.46,188.66,-318.42
85,1715411581280,4.15,-1.16,0.37,35.46,188.66,-318.42
86,1715411581290,4.005263157894737,-1.0744736842105262,0.1726315789473684,51.54526315789474,190.20491228070176,-363.78719298245613
87,1715411581300,3.93,-1.03,0.07,60.239999999999995,191.04000000000002,-388.31000000000006
88,1715411581310,3.9155855855855854,-1.0251351351351352,0.08009009009009009,60.24,191.04,-388.31000000000006
89,1715411581320,3.13,-0.76,0.63,83.43966666666667,156.85933333333332,-449.11366666666663
90,1715411581330,3.13,-0.7599999999999999,0.63,86.67,152.1,-457.58
91,1715411581340,3.13,-0.76,0.63,86.67,152.1,-457.58
92,1715411581350,3.13,-0.76,0.63,86.67,152.1,-457.5799999999999
93,1715411581360,2.3660233918128655,-0.8845614035087719,0.414093567251462,131.40964912280702,171.23169590643278,-491.8922807017544
94,1715411581370,2.21,-0.91,0.37,146.91,177.86,-503.78
95,1715411581380,2.21,-0.91,0.37,146.91,177.86,-503.78
96,1715411581390,2.21,-0.9100000000000001,0.37,146.91,177.86,-503.78
97,1715411581400,1.55,-1.06,0.35,177.92433333333332,174.08811111111112,-527.2597777777778
98,1715411581410,1.55,-1.06,0.35,180.54,173.77,-529.24
99,1715411581420,1.55,-1.06,0.35,180.54,173.77,-529.24
100,1715411581430,1.5329113924050635,-1.0764556962025318,0.3462025316455696,180.54,173.77,-529.24
101,1715411581440,1.28,-1.32,0.29,186.50623529411766,128.17858823529411,-472.32152941176474
102,1715411581450,1.28,-1.32,0.29,186.65,127.08,-470.95
103,1715411581460,1.28,-1.32,0.29,186.65,127.07999999999998,-470.95
104,1715411581470,1.3706802721088436,-1.3024489795918368,0.3982312925170068,201.73367346938778,110.94734693877551,-477.93775510204085
105,1715411581480,1.59,-1.26,0.66,260.56,48.03,-505.19
106,1715411581490,1.59,-1.26,0.66,260.56,48.03,-505.19
107,1715411581500,1.59,-1.26,0.66,260.56,48.03,-505.19
108,1715411581510,1.365,-1.33,0.535,265.5304545454545,34.99636363636364,-497.5972727272727
109,1715411581520,1.14,-1.4,0.41,272.71,16.17,-486.63
110,1715411581530,1.14,-1.4,0.41,272.71,16.17,-486.63
111,1715411581540,1.14,-1.4,0.4099999999999999,272.71,16.17,-486.63
112,1715411581550,0.6692307692307692,-1.5176923076923077,0.16076923076923075,294.97865384615386,-18.651346153846156,-487.1376923076923
113,1715411581560,0.46,-1.57,0.05,307.8,-38.7,-487.43
114,1715411581570,0.46,-1.57,0.05,307.8,-38.7,-487.43
115,1715411581580,0.4600000000000001,-1.57,0.05,307.8,-38.7,-487.43
116,1715411581590,-1.5452307692307694,-2.5726153846153847,-0.43246153846153845,278.064,-8.014153846153848,-368.1306153846154
117,1715411581600,-2.2,-2.9,-0.59,261.78,8.79,-302.8
118,1715411581610,-2.2,-2.9,-0.59,261.78,8.79,-302.8
119,1715411581620,-2.2,-2.9,-0.59,261.78,8.79,-302.8
120,1715411581630,-2.906216216216216,-1.9855405405405406,-1.3686486486486487,70.33891891891892,-4.341486486486486,22.72567567567567
121,1715411581640,-2.98,-1.89,-1.45,29.54,-7.140000000000001,92.1
122,1715411581650,-2.98,-1.89,-1.45,29.54,-7.140000000000001,92.1
123,1715411581660,-2.9424615384615382,-1.8592307692307692,-1.4078461538461537,29.54,-7.14,92.1
124,1715411581670,-1.76,-0.8900000000000001,-0.08,-77.91172413793103,5.443908045977012,280.41896551724136
125,1715411581680,-1.76,-0.89,-0.08,-80.44,5.74,284.85
126,1715411581690,-1.76,-0.8899999999999999,-0.08,-80.44,5.74,284.85
127,1715411581700,-1.3772151898734177,-0.8873417721518987,-0.04810126582278482,-101.99822784810127,25.89113924050633,334.47556962025317
128,1715411581710,-0.32,-0.88,0.04,-202.09,119.45,564.88
129,1715411581720,-0.32,-0.8799999999999999,0.04,-202.09,119.45,564.88
130,1715411581730,-0.32000000000000006,-0.8800000000000001,0.04000000000000001,-202.09000000000003,119.45000000000002,564.88
131,1715411581740,1.2553061224489797,-1.677142857142857,0.258265306122449,-267.7572448979592,-38.11765306122449,728.138163265306
132,1715411581750,1.34,-1.72,0.27,-276.06,-58.04,748.7800000000001
133,1715411581760,1.34,-1.7199999999999998,0.27,-276.06,-58.03999999999999,748.78
134,1715411581770,1.34,-1.72,0.27,-276.06,-58.04,748.78
135,1715411581780,2.0520529801324505,-1.9488741721854306,0.42258278145695366,-276.06,-58.03999999999999,748.78
136,1715411581790,2.46,-2.08,0.51,-142.908,-192.952,742.868
137,1715411581800,2.46,-2.08,0.51,-109.62,-226.67999999999998,741.39
138,1715411581810,2.46,-2.08,0.51,-109.62,-226.68,741.39
139,1715411581820,2.3372847682119207,-1.971721854304636,0.5533112582781456,-5.749139072847686,-160.51973509933774,678.4949668874171
140,1715411581830,2.29,-1.93,0.57,55.47999999999999,-121.52,641.42
141,1715411581840,2.29,-1.9300000000000002,0.57,55.48,-121.52000000000001,641.42
142,1715411581850,2.29,-1.9300000000000002,0.57,55.47999999999999,-121.52000000000001,641.42
143,1715411581860,2.1775590551181105,-1.2834645669291338,0.22330708661417323,81.69984251968503,-23.32031496062992,586.0977952755906
144,1715411581870,2.17,-1.24,0.2,93.32,20.2,561.58
145,1715411581880,2.17,-1.24,0.2,93.32,20.2,561.58
146,1715411581890,2.182165898617512,-1.1791705069124423,0.3013824884792627,35.21308755760368,40.44654377880184,518.8230414746544
147,1715411581900,2.2,-1.09,0.45,-124.08000000000001,95.95,401.61
148,1715411581910,2.2,-1.09,0.45,-124.08,95.95,401.61
149,1715411581920,2.2,-1.09,0.45,-124.08000000000001,95.95,401.61
150,1715411581930,2.146923076923077,-0.9873076923076923,0.45692307692307693,-124.08,95.95,401.61
151,1715411581940,1.7399999999999998,-0.2,0.51,-177.21581250000003,172.61781249999999,398.7579375
152,1715411581950,1.74,-0.2,0.51,-177.55,173.1,398.74
153,1715411581960,1.74,-0.2,0.51,-177.55,173.1,398.74
154,1715411581970,1.8320833333333333,-0.1602777777777778,0.4341666666666667,-177.55,173.1,398.74
155,1715411581980,2.25,0.02,0.09,-159.10526315789474,193.0508187134503,241.88824561403507
156,1715411581990,2.25,0.02,0.09,-158.19999999999996,194.03,234.19
157,1715411582000,2.25,0.02,0.09,-158.2,194.03,234.19
158,1715411582010,2.567556818181818,-0.09505681818181819,0.22346590909090908,-110.73136363636362,94.68045454545454,166.70000000000002
159,1715411582020,2.94,-0.23,0.38,-35.34,-63.11,59.51
160,1715411582030,2.94,-0.23,0.38,-35.34,-63.10999999999999,59.510000000000005
161,1715411582040,2.94,-0.23,0.38,-35.34,-63.11,59.51
162,1715411582050,3.5425477707006365,-0.33407643312101915,0.5991082802547771,-41.312738853503184,-11.798152866242038,10.233821656050957
163,1715411582060,4.04,-0.42,0.78,-49.13,55.36,-54.26
164,1715411582070,4.04,-0.42,0.78,-49.13,55.36,-54.26
165,1715411582080,4.04,-0.42,0.78,-49.13,55.36,-54.26
166,1715411582090,4.039499999999999,-0.44449999999999995,0.758,-49.13,55.36,-54.26
167,1715411582100,4.03,-0.91,0.34,57.49799999999999,130.47133333333335,-205.91413333333333
168,1715411582110,4.03,-0.91,0.34,81.97,147.71,-240.72
169,1715411582120,4.005351351351352,-0.9078378378378379,0.32832432432432435,81.97,147.71,-240.71999999999997
170,1715411582130,3.4600000000000004,-0.86,0.07,79.96,116.21,-335.02
171,1715411582140,3.4600000000000004,-0.86,0.07,79.96,116.21000000000001,-335.02
172,1715411582150,3.4600000000000004,-0.86,0.07,79.96,116.21000000000001,-335.02
173,1715411582160,3.2693617021276595,-0.808936170212766,0.15851063829787235,82.51574468085106,114.92744680851064,-337.7059574468085
174,1715411582170,2.34,-0.56,0.59,109.99,101.14,-366.58
175,1715411582180,2.34,-0.56,0.59,109.99,101.14,-366.58
176,1715411582190,2.34,-0.56,0.59,109.99,101.14,-366.58
177,1715411582200,2.3066666666666666,-0.5533333333333333,0.5666666666666667,110.94958333333334,101.35444444444445,-367.20902777777775
178,1715411582210,1.9400000000000002,-0.48,0.31,179.08,116.58,-411.87
179,1715411582220,1.94,-0.4799999999999999,0.31,179.08,116.58000000000001,-411.87
180,1715411582230,1.94,-0.48,0.31,179.08,116.58000000000001,-411.87
181,1715411582240,1.8780530973451328,-0.5463716814159292,0.32327433628318586,180.66761061946906,113.98752212389381,-421.47796460176994
182,1715411582250,1.66,-0.78,0.37,191.04,97.05,-484.25
183,1715411582260,1.66,-0.7799999999999999,0.37,191.04,97.05,-484.25
184,1715411582270,1.66,-0.78,0.37,191.04,97.05,-484.25
185,1715411582280,1.718627450980392,-0.8205882352941176,0.3835294117647059,198.4305882352941,103.40294117647059,-499.69823529411764
186,1715411582290,1.79,-0.87,0.4,211.98,115.05,-528.02
187,1715411582300,1.7899999999999998,-0.8699999999999999,0.4,211.97999999999996,115.05,-528.02
188,1715411582310,1.79,-0.8699999999999999,0.4,211.98,115.04999999999998,-528.02
189,1715411582320,1.778322147651007,-1.015973154362416,0.42335570469798656,194.44053691275167,111.79946308724831,-538.2677181208054
190,1715411582330,1.7700000000000002,-1.12,0.44,178.04,108.76,-547.85
191,1715411582340,1.77,-1.12,0.44000000000000006,178.03999999999996,108.76,-547.85
192,1715411582350,1.77,-1.12,0.44,178.04,108.76,-547.85
193,1715411582360,1.7200645161290324,-1.1366451612903223,0.46496774193548385,157.00567741935484,130.1556129032258,-538.3697419354838
194,1715411582370,1.71,-1.14,0.47,148.93,138.37,-534.73
195,1715411582380,1.71,-1.14,0.47,148.93,138.37,-534.73
196,1715411582390,1.71,-1.14,0.47000000000000003,148.93,138.37,-534.73
197,1715411582400,1.5165671641791045,-1.191044776119403,0.4216417910447761,150.66350746268657,133.5160447761194,-534.1355970149253
198,1715411582410,0.99,-1.33,0.29,174.74,66.1,-525.88
199,1715411582420,0.99,-1.33,0.29,174.74,66.1,-525.88
200,1715411582430,0.8520359281437125,-1.3407784431137724,0.21562874251497005,177.39053892215568,65.20970059880239,-524.3609580838323
201,1715411582440,-0.29,-1.43,-0.4,285.4,28.93,-462.46
202,1715411582450,-0.29,-1.43,-0.4,285.4,28.929999999999996,-462.46
203,1715411582460,-0.29,-1.43,-0.4,285.4,28.93,-462.46
204,1715411582470,-0.6272571428571428,-1.4240571428571427,-0.5084571428571428,280.5914285714286,12.31662857142857,-440.0714857142857
205,1715411582480,-2.56,-1.39,-1.13,235.9,-142.09,-231.99
206,1715411582490,-2.56,-1.39,-1.13,235.9,-142.09,-231.99
207,1715411582500,-2.56,-1.39,-1.13,235.9,-142.09,-231.98999999999998
208,1715411582510,-2.6484615384615386,-1.4323076923076923,-0.9492307692307691,182.27461538461537,-126.74205128205129,-183.99692307692308
209,1715411582520,-3.02,-1.61,-0.19,-62.87,-56.58,35.4
210,1715411582530,-3.02,-1.6099999999999999,-0.19,-62.87,-56.58,35.4
211,1715411582540,-3.02,-1.61,-0.19,-62.87,-56.58,35.4
212,1715411582550,-2.2150000000000003,-1.3685,-0.08075,-102.78487500000001,14.269625000000001,184.9099375
213,1715411582560,-1.62,-1.19,-145.81,90.64,346.07
214,1715411582570,-1.6200000000000003,-1.19,-145.81,90.63999999999999,346.07
215,1715411582580,-1.62,-1.19,-145.81,90.64,346.07
216,1715411582590,-0.4773426573426574,-1.3295104895104894,0.05314685314685315,-104.25475524475524,40.48055944055944,440.856013986014
217,1715411582600,0.1,-1.4,0.08,-71.53,0.9799999999999999,515.5
218,1715411582610,0.1,-1.4,0.08,-71.53,0.98,515.5
219,1715411582620,0.1,-1.4,0.08,-71.53,0.98,515.5
220,1715411582630,1.0672727272727272,-1.6280000000000001,0.24581818181818182,-59.432181818181824,-1.2999999999999998,657.2330909090908
221,1715411582640,1.5,-1.73,0.32,-54.02,-2.32,720.64
222,1715411582650,1.5,-1.7299999999999998,0.32,-54.019999999999996,-2.32,720.64
223,1715411582660,1.5,-1.73,0.32,-54.02,-2.32,720.64
224,1715411582670,1.5,-1.73,0.32,-54.02,-2.32,720.64
225,1715411582680,1.8832203389830509,-1.5551977401129942,0.1250282485875706,-78.96966101694915,-14.919209039548022,731.1886440677966
226,1715411582690,2.07,-1.4699999999999998,0.03,-91.13,-21.059999999999995,736.3300000000002
227,1715411582700,1.7790322580645161,-1.540967741935484,0.1364516129032258,-112.77851612903227,-34.41329032258064,636.4205806451613
228,1715411582710,1.66,-1.57,0.18,-125.37,-42.18,578.31
229,1715411582720,1.6600000000000001,-1.57,0.18,-125.37,-42.18,578.31
230,1715411582730,1.66,-1.57,0.18,-125.36999999999999,-42.18,578.31
231,1715411582740,1.4319254658385092,-1.4517391304347826,0.2306832298136646,-46.41813664596273,-21.84614906832298,521.0662111801241
232,1715411582750,1.39,-1.43,0.24,-23.68,-15.99,504.58
233,1715411582760,1.39,-1.43,0.24000000000000002,-23.68,-15.99,504.58000000000004
234,1715411582770,1.3866666666666667,-1.3975,0.2175,-23.68,-15.99,504.58
235,1715411582780,1.35,-1.04,-0.03,7.510000000000001,-11.96,441.96
236,1715411582790,1.35,-1.04,-0.029999999999999995,7.509999999999999,-11.96,441.9599999999999
237,1715411582800,1.35,-1.04,-0.030000000000000002,7.51,-11.96,441.96
238,1715411582810,1.35,-1.04,-0.03,7.51,-11.96,441.96
239,1715411582820,1.3570000000000002,-0.984,-0.11399999999999999,-113.14900000000002,-8.803,427.134
240,1715411582830,1.36,-0.96,-0.15,-164.86,-7.450000000000001,420.78
241,1715411582840,1.36,-0.96,-0.15,-164.86,-7.450000000000001,420.78
242,1715411582850,1.6422535211267606,-1.015774647887324,0.09000000000000001,-164.69436619718311,-8.832535211267606,417.2408450704225
243,1715411582860,3.03,-1.29,1.27,-163.88,-15.63,399.84
244,1715411582870,3.03,-1.29,1.27,-163.88,-15.63,399.84
245,1715411582880,3.03,-1.29,1.27,-163.88,-15.63,399.84
246,1715411582890,3.1204444444444444,-1.2845185185185184,0.762962962962963,-215.5066666666667,20.828666666666667,385.53333333333336
247,1715411582900,3.36,-1.27,-0.58,-357.48,121.09,346.19
248,1715411582910,3.36,-1.27,-0.58,-357.48,121.09,346.19
249,1715411582920,3.36,-1.27,-0.58,-357.48,121.09,346.19
250,1715411582930,4.747515527950311,-0.7559006211180125,0.6527329192546584,-165.2191304347826,-10.663105590062115,150.34683229813663
251,1715411582940,5.87,-0.34,1.6500000000000001,55.24000000000001,-161.74,-74.22
252,1715411582950,5.87,-0.34,1.6500000000000001,55.24,-161.74,-74.22
253,1715411582960,5.87,-0.34,1.65,55.24,-161.74,-74.22
254,1715411582970,4.640538922155688,-0.12467065868263473,0.26077844311377246,19.635568862275452,36.39634730538923,-149.40664670658683
255,1715411582980,4.1,-0.03,-0.35,-4.82,172.49,-201.05
256,1715411582990,4.1,-0.03,-0.35,-4.82,172.49,-201.05
257,1715411583000,4.1,-0.03,-0.35,-4.82,172.49,-201.05
258,1715411583010,3.138362068965517,-0.5233620689655173,-0.10749999999999998,20.271379310344827,192.94905172413795,-252.3896551724138
259,1715411583020,2.95,-0.62,-0.06,48.1,215.64,-309.33
260,1715411583030,2.95,-0.62,-0.06,48.1,215.64,-309.33
261,1715411583040,2.8468,-0.5479999999999999,0.02160000000000001,62.5735,201.06449999999998,-320.535
262,1715411583050,2.5199999999999996,-0.32,0.28,144.59,118.47,-384.03
263,1715411583060,2.52,-0.32,0.28,144.59,118.47,-384.03
264,1715411583070,2.52,-0.32,0.28,144.59,118.47,-384.03
265,1715411583080,2.49910447761194,-0.3311940298507463,0.29119402985074627,144.59,118.47,-384.03
266,1715411583090,2.24,-0.47,0.43,135.31727272727272,107.47324675324676,-453.292987012987
267,1715411583100,2.24,-0.47,0.43,135.07,107.18,-455.13999999999993
268,1715411583110,2.24,-0.47000000000000003,0.42999999999999994,135.07,107.18,-455.14
269,1715411583120,2.048888888888889,-0.8362962962962963,0.4937037037037037,140.09666666666666,122.42851851851853,-487.3751851851852
270,1715411583130,2.0,-0.9300000000000002,0.51,145.51,138.85,-522.09
271,1715411583140,2.0,-0.93,0.51,145.51,138.85,-522.09
272,1715411583150,2.0,-0.93,0.51,145.50999999999996,138.85,-522.09
273,1715411583160,2.02832,-1.05272,0.5336000000000001,155.0008,136.5796,-535.33752
274,1715411583170,2.06,-1.19,0.56,181.46,130.25,-572.27
275,1715411583180,2.06,-1.19,0.56,181.46,130.25,-572.27
276,1715411583190,2.06,-1.19,0.56,181.46,130.25,-572.27
277,1715411583200,2.1625742574257427,-1.211980198019802,0.516039603960396,171.59663366336636,136.74029702970296,-589.1151485148515
278,1715411583210,2.2,-1.22,0.5,166.81,139.89,-597.29
279,1715411583220,2.2,-1.22,0.5,166.81,139.89,-597.29
280,1715411583230,2.2,-1.22,0.5,166.81,139.89,-597.29
281,1715411583240,2.346100628930818,-1.2390566037735848,0.6143396226415094,144.1088679245283,158.9141509433962,-615.2205660377358
282,1715411583250,2.43,-1.25,0.68,123.84,175.9,-631.23
283,1715411583260,2.43,-1.25,0.68,123.84,175.9,-631.2300000000001
284,1715411583270,2.43,-1.25,0.68,123.84,175.9,-631.23
285,1715411583280,1.9,-1.38,-0.19,95.19912698412699,217.08055555555555,-606.0315873015874
286,1715411583290,1.9,-1.38,-0.19,94.97,217.41,-605.83
287,1715411583300,1.9,-1.38,-0.19,94.97,217.41,-605.83
288,1715411583310,1.2830569948186528,-1.7024352331606216,-0.2433160621761658,112.87300518134715,207.4540414507772,-609.2854404145078
289,1715411583320,-0.53,-2.65,-0.4,286.93000000000006,110.66,-642.88
290,1715411583330,-0.53,-2.65,-0.4,286.93,110.66,-642.88
291,1715411583340,-0.53,-2.65,-0.4,286.93,110.66,-642.88
292,1715411583350,-0.8827777777777778,-2.6166666666666667,-0.7166666666666667,247.71266666666665,125.788,-582.0493333333334
293,1715411583360,-3.07,-2.41,-2.68,-7.2,224.12,-186.65
294,1715411583370,-3.07,-2.41,-2.68,-7.200000000000001,224.12,-186.65
295,1715411583380,-3.0700000000000003,-2.41,-2.68,-7.2,224.12000000000003,-186.65
296,1715411583390,-2.9590845070422533,-2.305,-2.486267605633803,-22.91408450704225,187.51577464788733,-141.24295774647888
297,1715411583400,-2.32,-1.7,-1.37,-118.77,-35.77,135.74
298,1715411583410,-2.32,-1.7,-1.37,-118.77000000000001,-35.77,135.74
299,1715411583420,-2.32,-1.7,-1.37,-118.77,-35.77,135.74
300,1715411583430,-1.5230065359477123,-1.581764705882353,-0.8620261437908497,-158.77287581699346,-31.94222222222222,227.24640522875816
301,1715411583440,-0.5,-1.43,-0.21,-234.25,-24.72,399.9
302,1715411583450,-0.5,-1.43,-0.21,-234.25,-24.72,399.9
303,1715411583460,-0.5,-1.43,-0.21,-234.25,-24.72,399.9
304,1715411583470,0.21680000000000002,-1.5644,-0.1316,-269.0948,-36.809599999999996,447.73359999999997
305,1715411583480,0.78,-1.6700000000000002,-0.07,-343.14,-62.5,549.38
306,1715411583490,0.78,-1.67,-0.07,-343.14,-62.5,549.38
307,1715411583500,0.7799999999999999,-1.6699999999999997,-0.07,-343.14,-62.5,549.38
308,1715411583510,1.3266666666666667,-2.216666666666667,0.10493333333333334,-321.267,-146.86860000000001,613.7018
309,1715411583520,1.7800000000000002,-2.67,0.25,-295.59,-245.90999999999997,689.21
310,1715411583530,1.78,-2.67,0.25,-295.59,-245.91,689.21
311,1715411583540,1.9296825396825399,-2.6049206349206346,0.236984126984127,-265.93571428571425,-260.52428571428567,695.6714285714286
312,1715411583550,2.47,-2.37,0.19,-88.01,-348.21,734.44
313,1715411583560,2.47,-2.37,0.19,-88.01,-348.21,734.44
314,1715411583570,2.47,-2.37,0.19,-88.01,-348.21,734.44
315,1715411583580,2.47,-2.37,0.19,-88.01,-348.21,734.44
316,1715411583590,2.3527027027027025,-2.0432432432432432,0.41621621621621624,-93.03736486486487,-293.81033783783784,646.1308783783784
317,1715411583600,2.33,-1.98,0.46,-94.47999999999999,-278.2,620.79
318,1715411583610,2.33,-1.98,0.46,-94.48,-278.2,620.79
319,1715411583620,2.33,-1.98,0.46,-94.48,-278.2,620.79
320,1715411583630,2.3574626865671644,-1.8495522388059702,0.44626865671641797,-101.31865671641792,-221.06276119402986,620.4333582089552
321,1715411583640,2.41,-1.6,0.42,-128.42,5.37,619.02
322,1715411583650,2.41,-1.6,0.42,-128.42,5.37,619.02
323,1715411583660,2.540253164556962,-1.3900000000000001,0.4120253164556962,-132.45291139240504,2.188987341772152,613.7953164556963
324,1715411583670,2.9,-0.81,0.39,-255.86,-95.15,453.92
325,1715411583680,2.9,-0.81,0.39,-255.86,-95.15,453.92
326,1715411583690,2.9,-0.81,0.39,-255.85999999999999,-95.15,453.92
327,1715411583700,2.803478260869565,-0.6769565217391305,0.3795652173913044,-244.36065217391308,-81.18442028985508,447.49724637681163
328,1715411583710,2.53,-0.3,0.35,-133.79,53.1,385.74
329,1715411583720,2.53,-0.3,0.35,-133.79,53.1,385.74
330,1715411583730,2.53,-0.3,0.35,-133.79,53.1,385.74
331,1715411583740,3.708157894736842,0.05052631578947368,0.5447368421052632,-65.89999999999999,-40.03460526315789,257.5753947368421
332,1715411583750,4.95,0.42,0.75,32.65,-175.23,71.53
333,1715411583760,4.95,0.42,0.75,32.65,-175.23,71.53
334,1715411583770,4.95,0.42,0.75,32.65,-175.23,71.53
335,1715411583780,4.64625,0.10433823529411765,0.8036029411764706,20.415,0.2750000000000057,-7.659999999999997
336,1715411583790,4.44,-0.11,0.84,8.18,175.78,-86.85
337,1715411583800,4.44,-0.10999999999999999,0.84,8.18,175.78,-86.85
338,1715411583810,4.372160804020101,-0.20045226130653265,0.7872361809045226,8.18,175.78,-86.85
339,1715411583820,3.9,-0.83,0.42000000000000004,115.36476190476192,93.38,-243.75666666666666
340,1715411583830,3.9,-0.83,0.42,148.86,67.63,-292.79
341,1715411583840,3.9,-0.83,0.42,148.86,67.63,-292.79
342,1715411583850,3.8586986301369866,-0.8145890410958904,0.4212328767123288,148.86,67.63,-292.79
343,1715411583860,3.23,-0.58,0.44,62.06094488188976,112.44984251968505,-342.0671653543307
344,1715411583870,3.2300000000000004,-0.58,0.43999999999999995,53.83,116.69999999999999,-346.74
345,1715411583880,3.23,-0.58,0.44,53.83,116.69999999999999,-346.74
346,1715411583890,3.2227388535031847,-0.580764331210191,0.44006369426751596,53.83,116.7,-346.74
347,1715411583900,2.09,-0.7,0.44999999999999996,129.37444444444444,66.00902777777777,-428.45944444444444
348,1715411583910,2.09,-0.7,0.45000000000000007,137.51,60.55,-437.26000000000005
349,1715411583920,2.09,-0.7,0.45,137.51,60.55,-437.26
350,1715411583930,2.09,-0.7,0.45,137.51,60.55,-437.26
351,1715411583940,2.09,-0.7,0.45,137.51,60.54999999999999,-437.26
352,1715411583950,2.09,-0.7,0.45,137.51,60.55,-437.26
353,1715411583960,2.026165803108808,-0.690880829015544,0.4887564766839378,129.96844559585492,67.92512953367876,-441.1698445595855
354,1715411583970,1.467142857142857,-0.9085714285714285,0.38,170.08946428571429,105.6925,-490.82178571428574
355,1715411583980,1.41,-0.95,0.34,189.94,109.55999999999999,-501.83
356,1715411583990,1.41,-0.9499999999999998,0.34,189.94,109.56000000000002,-501.8299999999999
357,1715411584000,1.41,-0.95,0.34,189.94,109.56,-501.83
358,1715411584010,1.5722535211267605,-0.8350704225352112,0.4211267605633803,207.25042253521127,62.29352112676057,-516.0880281690141
359,1715411584020,1.89,-0.61,0.58,241.15,-30.27,-544.01
360,1715411584030,1.8900000000000001,-0.61,0.58,241.15,-30.27,-544.01
361,1715411584040,1.987953216374269,-0.6684795321637427,0.6077777777777778,218.5942105263158,-11.039122807017543,-549.9805263157895
362,1715411584050,2.56,-1.01,0.77,80.44,106.75,-586.55
363,1715411584060,2.56,-1.01,0.77,80.44,106.75,-586.55
364,1715411584070,2.56,-1.01,0.77,80.44,106.75,-586.55
365,1715411584080,2.468740740740741,-1.1142962962962963,0.7080740740740741,85.5325925925926,116.90585185185185,-589.383925925926
366,1715411584090,2.0,-1.65,0.39,111.69,169.07,-603.94
367,1715411584100,2.0,-1.65,0.39,111.69,169.07,-603.94
368,1715411584110,2.0,-1.65,0.39,111.69,169.07,-603.94
369,1715411584120,1.3293567251461988,-1.8039181286549706,-0.0002923976608187111,125.20239766081872,154.9083625730994,-600.4414035087719
370,1715411584130,0.78,-1.9299999999999997,-0.32,200.56,75.93,-580.93
371,1715411584140,0.78,-1.9299999999999997,-0.32,200.56,75.93,-580.93
372,1715411584150,0.78,-1.93,-0.32,200.56,75.93,-580.93
373,1715411584160,-1.2702857142857142,-2.636285714285714,-0.9028571428571428,256.286,5.766500000000003,-499.4585
374,1715411584170,-2.21,-2.96,-1.17,301.88,-51.64,-432.8
375,1715411584180,-2.21,-2.96,-1.17,301.88,-51.64000000000001,-432.8
376,1715411584190,-2.21,-2.96,-1.17,301.88,-51.64,-432.8
377,1715411584200,-2.5870440251572324,-2.4595597484276728,-0.8477987421383647,150.08477987421384,-65.10729559748427,-179.92301886792455
378,1715411584210,-2.76,-2.23,-0.7,55.6,-73.49,-22.52
379,1715411584220,-2.76,-2.23,-0.7,55.6,-73.49,-22.52
380,1715411584230,-2.76,-2.23,-0.7,55.6,-73.49,-22.52
381,1715411584240,-2.044965517241379,-1.0581379310344827,-0.38220689655172413,-123.85537931034482,1.457517241379311,242.2618620689655
382,1715411584250,-2.04,-1.05,-0.38,-149.29,12.08,279.79
383,1715411584260,-2.04,-1.05,-0.38,-149.29,12.08,279.79
384,1715411584270,-1.903,-1.054,-0.33999999999999997,-149.29,12.08,279.79
385,1715411584280,-0.67,-1.09,0.02,-206.3,-3.42,499.56999999999994
386,1715411584290,-0.67,-1.09,0.02,-206.30000000000004,-3.42,499.57
387,1715411584300,-0.67,-1.09,0.02,-206.3,-3.42,499.57
388,1715411584310,-0.043662790697674425,-1.2438372093023256,0.08959302325581396,-214.00058139534883,-14.437441860465116,542.4915116279069
389,1715411584320,1.04,-1.51,0.21,-232.79,-41.32,647.22
390,1715411584330,1.04,-1.51,0.21,-232.79,-41.32,647.22
391,1715411584340,1.04,-1.51,0.20999999999999996,-232.78999999999996,-41.32,647.22
392,1715411584350,1.5814102564102563,-1.6887179487179487,0.29410256410256413,-198.80846153846153,-54.69025641025641,681.9974358974359
393,1715411584360,2.07,-1.8499999999999999,0.37,-149.96,-73.91,731.99
394,1715411584370,2.07,-1.85,0.37,-149.96,-73.91,731.99
395,1715411584380,2.07,-1.8499999999999999,0.37,-149.96,-73.91,731.99
396,1715411584390,2.0365605095541404,-1.582484076433121,0.22955414012738853,-100.595923566879,-73.60171974522292,680.3670700636943
397,1715411584400,2.02,-1.45,0.16,-61.89,-73.36,639.89
398,1715411584410,2.02,-1.45,0.16,-61.89000000000001,-73.36,639.89
399,1715411584420,2.02,-1.45,0.16,-61.89,-73.36,639.89
400,1715411584430,1.750350194552529,-1.4589883268482489,0.02517509727626459,-54.83964980544747,-136.39657587548638,594.1295330739299
401,1715411584440,1.72,-1.4600000000000002,0.01,-52.92,-153.56,581.67
402,1715411584450,1.72,-1.46,0.01,-52.92000000000001,-153.56,581.67
403,1715411584460,1.72,-1.46,0.01,-52.92,-153.56,581.67
404,1715411584470,1.9312,-0.692,0.16360000000000002,14.45944,-194.11672000000002,476.49808
405,1715411584480,1.94,-0.66,0.17,24.35,-200.07,461.06
406,1715411584490,1.9399999999999997,-0.66,0.17,24.35,-200.06999999999996,461.06
407,1715411584500,2.005531914893617,-0.6317021276595745,0.16106382978723405,24.35,-200.07,461.06
408,1715411584510,2.38,-0.47000000000000003,0.11000000000000001,-148.81722972972975,-88.4297972972973,379.61506756756756
409,1715411584520,2.38,-0.47,0.11000000000000001,-152.4,-86.11999999999999,377.93
410,1715411584530,2.38,-0.47,0.11,-152.4,-86.12,377.93
411,1715411584540,2.6452631578947368,0.035263157894736864,-0.13,-152.4,-86.12,377.93
412,1715411584550,2.8,0.33,-0.27,-116.65747826086957,-7.0997391304347826,259.15791304347823
413,1715411584560,2.8,0.33,-0.27,-114.69,-2.75,252.62
414,1715411584570,2.8,0.33,-0.27,-114.69,-2.75,252.62
415,1715411584580,3.4476073619631906,0.47515337423312887,0.07055214723926381,-132.21662576687118,-11.88398773006135,168.41386503067483
416,1715411584590,3.96,0.59,0.34,-152.28,-22.340000000000003,72.02
417,1715411584600,3.96,0.59,0.34,-152.28,-22.34,72.02
418,1715411584610,3.96,0.59,0.34,-152.28,-22.34,72.02
419,1715411584620,4.0657664233576645,0.32306569343065694,0.3198540145985401,-86.91722627737227,55.596058394160586,-3.7567153284671555
420,1715411584630,4.17,0.06,0.3,4.82,164.98,-110.11
421,1715411584640,4.17,0.06,0.3,4.82,164.98,-110.11000000000001
422,1715411584650,4.17,0.05999999999999999,0.3,4.82,164.98,-110.11
423,1715411584660,3.5754032258064514,-0.1517741935483871,-0.15612903225806452,-19.6808064516129,172.52532258064517,-186.67419354838708
424,1715411584670,3.4399999999999995,-0.2,-0.26,-32.23,176.39,-225.89000000000001
425,1715411584680,3.44,-0.2,-0.26,-32.23,176.39,-225.89
426,1715411584690,3.44,-0.2,-0.26,-32.23,176.39,-225.89
427,1715411584700,3.3328571428571427,-0.36964285714285716,0.39178571428571424,60.88314285714285,125.14764285714287,-282.7537142857143
428,1715411584710,3.32,-0.39,0.47,85.21,111.76,-297.61
429,1715411584720,3.32,-0.39,0.47,85.21,111.76000000000002,-297.61
430,1715411584730,3.32,-0.39,0.47000000000000003,85.21,111.75999999999999,-297.61
431,1715411584740,2.4379999999999997,-0.093,0.551,61.04506666666667,120.51839999999999,-331.74713333333335
432,1715411584750,2.34,-0.06,0.56,54.75,122.79999999999998,-340.64
433,1715411584760,2.34,-0.05999999999999999,0.56,54.75,122.80000000000001,-340.64
434,1715411584770,2.205820895522388,-0.09932835820895523,0.6085820895522389,63.08507462686567,124.50820895522386,-344.89597014925374
435,1715411584780,1.7600000000000002,-0.23000000000000004,0.77,129.21,138.06,-378.66
436,1715411584790,1.76,-0.23,0.77,129.21,138.06,-378.66
437,1715411584800,1.76,-0.23,0.77,129.21,138.06,-378.65999999999997
438,1715411584810,1.7266666666666666,-0.19666666666666666,0.65,113.1748,153.196,-387.4312
439,1715411584820,1.66,-0.13,0.41,79.1,185.36,-406.07
440,1715411584830,1.66,-0.13,0.41000000000000003,79.1,185.36,-406.07
441,1715411584840,1.66,-0.13,0.41,79.1,185.36,-406.07
442,1715411584850,1.7537179487179486,-0.46628205128205125,0.5588461538461539,93.03666666666666,187.45666666666668,-407.5333333333333
443,1715411584860,1.83,-0.74,0.68,120.91000000000001,191.65,-410.46
444,1715411584870,1.83,-0.74,0.68,120.91000000000001,191.65,-410.46
445,1715411584880,1.8299999999999998,-0.74,0.68,120.91,191.65,-410.46
446,1715411584890,1.938450704225352,-0.6966197183098591,0.5552816901408452,154.42316901408452,219.42084507042253,-452.5378169014084
447,1715411584900,2.03,-0.66,0.45,186.1,245.66999999999996,-492.31
448,1715411584910,2.03,-0.66,0.45,186.1,245.67,-492.31
449,1715411584920,2.03,-0.66,0.44999999999999996,186.1,245.66999999999996,-492.31
450,1715411584930,1.767248322147651,-1.1271140939597315,0.16973154362416107,194.26644295302015,221.8085234899329,-514.9924161073825
451,1715411584940,1.58,-1.4599999999999997,-0.03,203.0,196.29,-539.25
452,1715411584950,1.58,-1.46,-0.03,203.0,196.29,-539.25
453,1715411584960,1.5646153846153847,-1.4656410256410257,-0.038717948717948716,203.0,196.28999999999996,-539.25
454,1715411584970,1.2800000000000002,-1.57,-0.2,206.6911304347826,140.1731304347826,-508.27956521739134
455,1715411584980,1.28,-1.57,-0.19999999999999998,206.78999999999996,138.67,-507.45
456,1715411584990,1.28,-1.57,-0.2,206.79,138.67,-507.44999999999993
457,1715411585000,1.28,-1.57,-0.19999999999999998,206.79,138.67,-507.45
458,1715411585010,-0.7865806451612903,-2.2654838709677416,-1.2929032258064517,309.037870967742,38.15722580645161,-443.950064516129
459,1715411585020,-0.8,-2.27,-1.3,339.97,7.75,-424.74
460,1715411585030,-0.8,-2.27,-1.3,339.97,7.75,-424.74
461,1715411585040,-0.9603797468354431,-2.2053164556962024,-1.317721518987342,339.97,7.75,-424.74
462,1715411585050,-2.61,-1.54,-1.5,221.23664999999997,-114.98324999999998,-96.191
463,1715411585060,-2.61,-1.54,-1.5,220.64,-115.6,-94.54
464,1715411585070,-2.61,-1.54,-1.5,220.64,-115.6,-94.54
465,1715411585080,-2.6017575757575755,-1.3215757575757576,-1.0631515151515152,154.09575757575757,-94.24848484848485,-57.28121212121213
466,1715411585090,-2.59,-1.01,-0.44,-201.66,19.9,141.91
467,1715411585100,-2.59,-1.01,-0.44,-201.66,19.9,141.91
468,1715411585110,-2.59,-1.01,-0.44,-201.66,19.9,141.91
469,1715411585120,-2.229928057553957,-1.0779856115107913,-0.3543884892086331,-223.90230215827336,14.709856115107913,185.12611510791365
470,1715411585130,-1.16,-1.28,-0.1,-364.38,-18.07,458.07
471,1715411585140,-1.16,-1.28,-0.1,-364.38,-18.07,458.07
472,1715411585150,-1.16,-1.28,-0.1,-364.38,-18.07,458.07
473,1715411585160,-0.1580392156862745,-1.6426143790849672,0.06699346405228758,-364.38,-18.07,458.06999999999994
474,1715411585170,0.94,-2.04,0.25,-360.01969387755105,-117.83627551020408,635.3685204081634
475,1715411585180,0.94,-2.04,0.25,-359.44,-131.1,658.94
476,1715411585190,0.94,-2.04,0.25,-359.44,-131.1,658.94
477,1715411585200,1.6695172413793102,-2.2238620689655173,0.1669655172413793,-259.5139310344827,-177.95462068965517,694.244827586207
478,1715411585210,2.17,-2.35,0.11000000000000001,-158.2,-225.46,730.04
479,1715411585220,2.17,-2.35,0.11,-158.2,-225.46,730.04
480,1715411585230,2.1700000000000004,-2.35,0.11,-158.2,-225.46,730.04
481,1715411585240,2.7755384615384613,-2.179692307692308,0.15730769230769232,43.445615384615394,-278.1122307692308,707.5370769230769
482,1715411585250,2.81,-2.17,0.16,86.79,-289.43,702.7
483,1715411585260,2.81,-2.17,0.16,86.79,-289.43,702.7
484,1715411585270,2.81,-2.17,0.16,86.79,-289.43,702.7
485,1715411585280,2.4052830188679244,-1.1447169811320754,0.2679245283018868,33.21037735849057,-104.37584905660378,546.5126415094339
486,1715411585290,2.36,-1.03,0.28,20.75,-61.34,510.19000000000005
487,1715411585300,2.36,-1.03,0.28,20.75,-61.34000000000001,510.19
488,1715411585310,2.3259354838709676,-1.0681935483870968,0.295483870967742,20.75,-61.34,510.19
489,1715411585320,2.03,-1.4,0.43,8.853280423280422,-26.435661375661375,520.9428042328043
490,1715411585330,2.03,-1.4,0.43,8.79,-26.25,521.0
491,1715411585340,2.03,-1.4,0.43,8.79,-26.25,521.0
492,1715411585350,2.03,-1.4,0.42999999999999994,8.79,-26.25,521.0
493,1715411585360,1.818029197080292,-0.07999999999999999,-0.4467883211678832,46.19321167883212,-64.94430656934306,451.781897810219
494,1715411585370,1.81,-0.03,-0.48,47.61,-66.41,449.1600000000001
495,1715411585380,1.81,-0.03,-0.48,47.61,-66.41,449.16
496,1715411585390,2.246692913385827,0.05141732283464567,-0.017401574803149588,-11.657007874015747,-46.1007874015748,425.5266141732284
497,1715411585400,2.99,0.19000000000000003,0.77,-155.82,3.3,368.04
498,1715411585410,2.99,0.19,0.77,-155.82,3.3,368.04
499,1715411585420,2.99,0.19,0.77,-155.82,3.3,368.04
500,1715411585430,2.665974842767296,-0.13981132075471697,0.26660377358490567,-118.2732075471698,6.688301886792453,252.95251572327047
501,1715411585440,2.43,-0.38,-0.1,-74.04,10.68,117.37
502,1715411585450,2.43,-0.38,-0.10000000000000002,-74.04,10.68,117.37000000000002
503,1715411585460,2.43,-0.38,-0.1,-74.04,10.68,117.37
504,1715411585470,2.6,-0.33803797468354435,-0.012848101265822792,-74.04,10.68,117.36999999999999
505,1715411585480,4.01,0.01,0.71,-77.27777777777777,-63.69314814814814,34.23222222222222
506,1715411585490,4.01,0.01,0.71,-77.76,-74.77,21.85
507,1715411585500,4.01,0.01,0.71,-77.76,-74.77,21.85
508,1715411585510,3.6173825503355705,-0.8459060402684564,0.5058389261744967,-55.43872483221477,109.1921476510067,-141.26328859060402
509,1715411585520,3.51,-1.08,0.45,-45.47,191.35,-214.11
510,1715411585530,3.51,-1.08,0.45,-45.47,191.35,-214.11
511,1715411585540,3.490558659217877,-1.099441340782123,0.39972067039106146,-43.62357541899441,190.4404469273743,-215.21581005586594
512,1715411585550,3.22,-1.37,-0.3,64.7,137.08,-280.09
513,1715411585560,3.22,-1.37,-0.3,64.7,137.08,-280.09
514,1715411585570,3.22,-1.37,-0.3,64.7,137.08,-280.09
515,1715411585580,3.22,-1.37,-0.3,64.7,137.08,-280.09
516,1715411585590,2.616034482758621,-0.8244827586206896,0.1968103448275862,-40.1876724137931,103.24586206896552,-303.1134482758621
517,1715411585600,2.6,-0.81,0.21,-49.01,100.4,-305.05
518,1715411585610,2.6,-0.81,0.21,-49.01,100.4,-305.05
519,1715411585620,2.5194155844155843,-0.7790909090909092,0.22655844155844157,-48.59584415584415,100.50383116883117,-305.1205844155844
520,1715411585630,1.87,-0.53,0.36,14.77,116.39,-315.92
521,1715411585640,1.8700000000000003,-0.53,0.36,14.77,116.38999999999999,-315.92
522,1715411585650,1.87,-0.53,0.36,14.77,116.39,-315.92
523,1715411585660,1.8076335877862597,-0.4610687022900764,0.38297709923664125,21.89671755725191,117.37442748091603,-321.65190839694657
524,1715411585670,1.68,-0.32,0.43,73.12,124.45000000000002,-362.85
525,1715411585680,1.6799999999999997,-0.32,0.42999999999999994,73.12,124.45000000000002,-362.85
526,1715411585690,1.68,-0.32,0.43,73.12,124.45000000000002,-362.85
527,1715411585700,1.6331034482758622,-0.4091034482758621,0.40186206896551724,103.99586206896551,127.94310344827586,-395.81206896551726
528,1715411585710,1.58,-0.51,0.37,162.66,134.58,-458.43999999999994
529,1715411585720,1.5800000000000003,-0.51,0.37000000000000005,162.66,134.58,-458.44
530,1715411585730,1.58,-0.51,0.37,162.66,134.58,-458.44
531,1715411585740,1.6800000000000002,-0.6188235294117647,0.44058823529411767,160.95411764705884,135.4064705882353,-477.5223529411765
532,1715411585750,1.92,-0.8799999999999999,0.61,156.86,137.39,-523.32
533,1715411585760,1.9200000000000002,-0.88,0.61,156.86,137.39,-523.32
534,1715411585770,1.9199999999999997,-0.88,0.61,156.86,137.39,-523.32
535,1715411585780,1.9104285714285714,-1.0331428571428571,0.5095,165.95785714285716,159.43635714285713,-526.7610714285714
536,1715411585790,1.9000000000000001,-1.2,0.4,183.96,203.06,-533.57
537,1715411585800,1.8999999999999997,-1.2,0.4,183.96,203.06,-533.57
538,1715411585810,1.9,-1.2,0.4,183.96,203.06,-533.57
539,1715411585820,2.040406976744186,-1.331046511627907,0.5684883720930232,201.4446511627907,145.13348837209304,-586.6693023255814
540,1715411585830,2.05,-1.34,0.58,204.28,135.74,-595.28
541,1715411585840,2.05,-1.34,0.58,204.28,135.74,-595.28
542,1715411585850,2.040735294117647,-1.3438235294117649,0.5720588235294117,204.28,135.74,-595.28
543,1715411585860,1.42,-1.6,0.04,221.47746031746033,124.16761904761906,-579.8225396825396
544,1715411585870,1.42,-1.6000000000000003,0.04,222.95999999999998,123.17,-578.49
545,1715411585880,1.42,-1.6,0.04,222.96,123.17,-578.49
546,1715411585890,0.2842748091603053,-1.86587786259542,-0.5836641221374046,252.01900763358776,81.40450381679389,-540.8383969465649
547,1715411585900,-2.04,-2.4100000000000006,-1.86,363.95,-79.47,-395.81
548,1715411585910,-2.04,-2.41,-1.86,363.95,-79.47,-395.81
549,1715411585920,-2.04,-2.41,-1.86,363.95,-79.47,-395.81
550,1715411585930,-2.2508527131782947,-2.2673643410852713,-1.3886821705426358,283.03775193798447,-102.49240310077519,-319.91992248062013
551,1715411585940,-2.72,-1.95,-0.34,4.03,-181.88,-58.23
552,1715411585950,-2.72,-1.95,-0.34,4.03,-181.88,-58.230000000000004
553,1715411585960,-2.72,-1.95,-0.34,4.03,-181.88,-58.23
554,1715411585970,-2.5363478260869567,-1.5884347826086958,-0.35147826086956524,-77.44652173913042,-125.95408695652173,89.98878260869566
555,1715411585980,-2.4,-1.32,-0.36,-208.92,-35.71,329.16
556,1715411585990,-2.4,-1.32,-0.36,-208.92,-35.71,329.16
557,1715411586000,-2.4,-1.32,-0.36,-208.92,-35.71,329.16
558,1715411586010,-0.766546762589928,-1.026115107913669,-0.10028776978417266,-189.03712230215828,-88.48820143884892,431.8784892086331
559,1715411586020,-0.01,-0.89,0.02,-174.8,-126.28,505.43
560,1715411586030,-0.01,-0.89,0.02,-174.8,-126.27999999999999,505.42999999999995
561,1715411586040,-0.01,-0.89,0.02,-174.8,-126.28,505.43000000000006
562,1715411586050,-0.01,-0.89,0.02,-174.8,-126.28000000000002,505.43
563,1715411586060,-0.01,-0.89,0.02,-174.8,-126.28,505.43
564,1715411586070,-0.01,-0.8899999999999999,0.02,-174.8,-126.28,505.42999999999995
565,1715411586080,-0.010000000000000002,-0.8900000000000001,0.020000000000000004,-174.8,-126.28,505.43000000000006
566,1715411586090,-0.01,-0.89,0.02,-174.8,-126.28,505.43
567,1715411586100,1.0575471698113208,-1.2488050314465409,-0.1529559748427673,-144.8983647798742,-119.89471698113209,600.2622641509433
568,1715411586110,2.33,-1.54,-0.64,-90.94,-110.78,709.7200000000001
569,1715411586120,2.191372549019608,-1.8469607843137257,0.03333333333333333,-15.638529411764704,-231.68441176470586,604.4332352941177
570,1715411586130,2.19,-1.85,0.04,11.47,-275.21,566.53
571,1715411586140,2.19,-1.85,0.04,11.47,-275.21,566.53
572,1715411586150,2.19,-1.85,0.04,11.47,-275.21,566.53
573,1715411586160,2.19,-1.85,0.04,11.47,-275.21,566.53
574,1715411586170,2.19,-1.85,0.04,11.47,-275.21,566.53
575,1715411586180,,,,,,
576,1715411586190,,,,,,
577,1715411586200,2.19,-1.85,0.04,11.47,-275.21,566.53
578,1715411586210,2.19,-1.85,0.04,11.47,-275.21,566.53
579,1715411586220,2.19,-1.8499999999999999,0.04,11.47,-275.21,566.53
580,1715411586230,2.19,-1.85,0.04,11.47,-275.21,566.53
581,1715411586240,2.19,-1.85,0.04,11.47,-275.21,566.53
582,1715411586250,2.19,-1.85,0.04,11.47,-275.21,566.53
583,1715411586260,2.19,-1.85,0.04,11.47,-275.21,566.53
584,1715411586270,2.19,-1.85,0.04,11.47,-275.21,566.53
585,1715411586280,2.7651339285714287,-1.0502232142857142,0.37424107142857144,26.708125,-208.7131696428571,557.31125
586,1715411586290,3.169315068493151,-0.27616438356164386,0.5386301369863014,-10.647534246575342,-118.28315068493151,531.7515068493151
587,1715411586300,3.126835443037975,0.1511392405063291,0.13373417721518988,-138.36784810126582,-56.5526582278481,333.5453164556962
588,1715411586310,4.4,0.72,0.75,101.44,-215.88,88.44
589,1715411586320,4.4,0.72,0.75,101.44,-215.88,88.44
590,1715411586330,4.4,0.72,0.75,101.44,-215.88,88.44
591,1715411586340,4.4,0.72,0.75,101.44,-215.88,88.44
592,1715411586350,4.4,0.72,0.75,101.43999999999998,-215.87999999999997,88.43999999999998
593,1715411586360,4.203333333333333,0.13936507936507936,0.45031746031746034,6.567142857142856,-22.952142857142853,-15.066428571428567
594,1715411586370,4.09207650273224,-0.045355191256830595,0.3795081967213115,-36.33426229508197,88.52262295081968,-89.23475409836065
595,1715411586380,3.55,-0.85,0.1,73.49,136.6,-275.88
596,1715411586390,3.55,-0.85,0.1,73.49,136.6,-275.88
597,1715411586400,3.55,-0.85,0.1,73.49,136.6,-275.88
598,1715411586410,3.55,-0.85,0.1,73.49,136.6,-275.88
599,1715411586420,3.12,-1.02,-0.38,133.67,103.09,-330.14
600,1715411586430,3.12,-1.02,-0.38,133.67,103.09,-330.14
601,1715411586440,3.12,-1.02,-0.38,133.67,103.09000000000002,-330.14
602,1715411586450,2.9683333333333333,-0.9510606060606062,-0.30712121212121213,124.68090909090907,101.45818181818181,-328.7581818181818
603,1715411586460,2.35,-0.67,-0.01,34.79,85.14,-314.94
604,1715411586470,2.35,-0.67,-0.01,34.79,85.14,-314.94
605,1715411586480,2.35,-0.67,-0.01,34.79,85.14,-314.94
606,1715411586490,2.35,-0.67,-0.01,34.79,85.14,-314.94
607,1715411586500,2.041590909090909,-0.44875000000000004,0.08386363636363636,57.79778409090909,64.81789772727274,-346.6696022727273
608,1715411586510,1.89,-0.34,0.13,69.4,54.57,-362.67
609,1715411586520,1.89,-0.34,0.13,69.4,54.57,-362.67
610,1715411586530,1.816725663716814,-0.3216814159292036,0.25823008849557527,59.43734513274336,79.44327433628318,-393.6871681415929
611,1715411586540,1.7699999999999998,-0.31,0.34,49.99,103.02999999999999,-423.1
612,1715411586550,1.7699999999999998,-0.31,0.34,49.99,103.02999999999999,-423.1
613,1715411586560,1.7474634146341463,-0.34219512195121954,0.31585365853658537,52.37351219512195,105.82024390243903,-428.19541463414635
614,1715411586570,1.63,-0.51,0.18999999999999997,72.2,129.03,-470.58
615,1715411586580,1.63,-0.51,0.19,72.2,129.03,-470.58
616,1715411586590,1.63,-0.51,0.19,72.2,129.03,-470.58
617,1715411586600,1.6532227488151658,-0.5159715639810427,0.2118957345971564,72.18521327014219,125.6832701421801,-476.36715639810427
618,1715411586610,1.98,-0.6,0.52,71.96,74.71,-564.51
619,1715411586620,1.9799999999999998,-0.6,0.52,71.96,74.71,-564.51
620,1715411586630,1.98,-0.6,0.52,71.96,74.71,-564.51
621,1715411586640,1.98,-0.6,0.52,71.96,74.71,-564.51
622,1715411586650,1.797125,-0.39787500000000003,-0.28850000000000003,136.93,6.349999999999998,-608.9150000000001
623,1715411586660,1.79,-0.39,-0.32,201.9,-62.01,-653.32
624,1715411586670,1.79,-0.39,-0.32,201.9,-62.010000000000005,-653.32
625,1715411586680,1.880824175824176,-0.40252747252747256,0.008846153846153835,198.0348351648352,-63.54934065934066,-650.6747252747253
626,1715411586690,2.08,-0.43,0.73,181.21,-70.25,-639.16
627,1715411586700,2.08,-0.43000000000000005,0.73,181.21,-70.25,-639.16
628,1715411586710,2.08,-0.43,0.73,181.21,-70.25,-639.16
629,1715411586720,2.08,-0.43,0.73,181.21,-70.25,-639.16
630,1715411586730,0.07440251572327045,-1.6351572327044026,-0.3222641509433962,192.39138364779873,-90.85339622641509,-570.5355974842768
631,1715411586740,-0.15,-1.7699999999999998,-0.44000000000000006,193.73,-93.32,-562.32
632,1715411586750,-0.15,-1.77,-0.44000000000000006,193.73,-93.32,-562.32
633,1715411586760,-0.6652592592592593,-1.759037037037037,0.34933333333333333,193.73,-93.32,-562.32
634,1715411586770,-1.09,-1.75,1.0,69.55341463414635,-98.69560975609755,-396.6863414634147
635,1715411586780,-1.09,-1.75,1.0,59.75,-99.12,-383.61
636,1715411586790,-1.09,-1.75,1.0,59.75,-99.12,-383.61
637,1715411586800,-1.929090909090909,-2.122272727272727,0.6690909090909092,59.75,-99.12,-383.61
638,1715411586810,-2.51,-2.38,0.43999999999999995,14.722075471698114,149.37547169811322,-80.27905660377358
639,1715411586820,-2.51,-2.38,0.44,7.87,187.19,-34.12
640,1715411586830,-2.4427272727272724,-2.3045454545454547,0.38181818181818183,7.87,187.19,-34.12
641,1715411586840,-1.7700000000000002,-1.55,-0.2,-128.85766355140188,242.117476635514,276.05532710280374
642,1715411586850,-1.7699999999999998,-1.55,-0.19999999999999998,-135.56,244.80999999999997,291.26
643,1715411586860,-1.77,-1.55,-0.2,-135.56,244.81,291.26
644,1715411586870,-1.77,-1.55,-0.2,-135.56,244.81,291.26
645,1715411586880,-0.1559278350515464,-1.5945876288659795,0.308298969072165,-128.32092783505155,117.75659793814434,452.31288659793813
646,1715411586890,0.04,-1.6,0.37,-125.67,71.23,511.29
647,1715411586900,0.04,-1.6,0.37,-125.67000000000002,71.23,511.29
648,1715411586910,0.05061403508771929,-1.600964912280702,0.3705263157894737,-125.67000000000002,71.23,511.29
649,1715411586920,1.25,-1.71,0.43,-169.66600000000003,31.09057142857143,720.0014285714285
650,1715411586930,1.25,-1.71,0.43,-170.96,29.91,726.14
651,1715411586940,1.25,-1.71,0.43,-170.96,29.910000000000004,726.14
652,1715411586950,1.25,-1.71,0.43,-170.96,29.91,726.14
653,1715411586960,1.25,-1.71,0.43,-170.96,29.91,726.14
654,1715411586970,1.25,-1.71,0.43,-170.96,29.909999999999997,726.14
655,1715411586980,1.25,-1.7099999999999997,0.43,-170.96,29.910000000000004,726.14
656,1715411586990,1.25,-1.7099999999999997,0.43,-170.96,29.91,726.14
657,1715411587000,1.5829285714285715,-1.8532857142857142,0.36257142857142854,-150.02342857142858,-14.12507142857143,757.7513571428572
658,1715411587010,2.04,-2.05,0.27,-121.28000000000002,-74.58,801.15
659,1715411587020,2.04,-2.05,0.27,-121.28,-74.58,801.15
660,1715411587030,2.04,-2.05,0.27,-121.28,-74.58,801.15
661,1715411587040,2.04,-2.05,0.27,-121.28,-74.58,801.15
662,1715411587050,1.6892105263157895,-1.4953508771929824,0.21578947368421053,-40.29149122807018,37.54026315789473,621.6137719298246
663,1715411587060,1.4652892561983473,-1.2695867768595042,0.07975206611570249,-14.000495867768594,84.11611570247933,530.2119008264463
664,1715411587070,1.26,-1.3,-0.27,-55.11,70.31,462.4
665,1715411587080,1.26,-1.3,-0.27,-55.11,70.31,462.4
666,1715411587090,1.26,-1.3,-0.27,-55.11,70.31,462.4
667,1715411587100,1.4687692307692308,-1.2455384615384615,-0.29723076923076924,-8.710769230769232,-37.62946153846154,439.07223076923077
668,1715411587110,1.72,-1.18,-0.33,67.99,-216.06,400.51
669,1715411587120,1.7199999999999998,-1.18,-0.33,67.99,-216.06,400.51
670,1715411587130,1.72,-1.18,-0.33,67.99,-216.06,400.51
671,1715411587140,2.1331111111111114,-1.224,-0.14911111111111114,15.168666666666665,-125.4928888888889,407.6732592592593
672,1715411587150,3.41,-1.36,0.41000000000000003,-154.85,166.02,430.73
673,1715411587160,3.4100000000000006,-1.36,0.41,-154.85,166.02,430.7300000000001
674,1715411587170,3.4099999999999997,-1.36,0.41000000000000003,-154.85,166.02,430.72999999999996
675,1715411587180,3.8269064748201442,-1.1888489208633093,-0.10345323741007197,-92.46762589928058,41.43956834532375,376.29956834532373
676,1715411587190,4.36,-0.97,-0.76,-12.7,-117.85999999999999,306.7
677,1715411587200,4.36,-0.97,-0.76,-12.7,-117.85999999999999,306.7
678,1715411587210,4.910632911392405,-0.5294936708860759,0.17240506329113925,-23.05,-80.76158227848101,125.53860759493669
679,1715411587220,5.11,-0.37,0.51,-26.92,-66.89,57.8
680,1715411587230,5.11,-0.37,0.51,-26.92,-66.89,57.8
681,1715411587240,5.11,-0.37,0.51,-26.919999999999998,-66.89,57.800000000000004
682,1715411587250,4.029066666666667,-0.9506666666666667,0.22413333333333332,-32.062666666666665,173.77906666666667,-70.30266666666667
683,1715411587260,3.9,-1.02,0.19,-33.57,244.31999999999996,-107.85
684,1715411587270,3.9,-1.02,0.19,-33.57,244.31999999999996,-107.85
685,1715411587280,3.7763636363636364,-0.9341818181818182,0.07363636363636364,-26.964909090909092,240.57381818181818,-118.61436363636363
686,1715411587290,3.05,-0.43,-0.61,57.25,192.81,-255.85999999999999
687,1715411587300,3.05,-0.43000000000000005,-0.61,57.25,192.81,-255.85999999999999
688,1715411587310,3.05,-0.42999999999999994,-0.61,57.25,192.81,-255.85999999999999
689,1715411587320,2.8501379310344825,-0.42682758620689654,-0.42917241379310345,56.922413793103445,178.22193103448276,-274.3581379310345
690,1715411587330,2.42,-0.42,-0.04,54.75,81.48,-397.0299999999999
691,1715411587340,2.42,-0.41999999999999993,-0.04,54.75,81.48,-397.03
692,1715411587350,2.42,-0.42,-0.04,54.75,81.48,-397.03
693,1715411587360,2.443293172690763,-0.2569477911646586,0.19875502008032128,48.57987951807229,83.94506024096385,-421.37682730923694
694,1715411587370,2.46,-0.14,0.37,42.36,86.43,-445.91999999999996
695,1715411587380,2.46,-0.14,0.37,42.36,86.43,-445.92
696,1715411587390,2.46,-0.14,0.37,42.36,86.43,-445.92
697,1715411587400,2.3370731707317076,-0.43707317073170726,0.3802439024390244,62.36548780487805,123.0818292682927,-483.5663414634147
698,1715411587410,2.22,-0.72,0.38999999999999996,89.23,172.3,-534.12
699,1715411587420,2.22,-0.72,0.39,89.23,172.3,-534.12
700,1715411587430,2.22,-0.72,0.39,89.23,172.3,-534.12
701,1715411587440,2.2431645569620255,-0.8435443037974684,0.28189873417721517,152.45943037974683,130.11512658227846,-578.9861392405063
702,1715411587450,2.25,-0.88,0.25,201.48,97.41,-613.77
703,1715411587460,2.25,-0.88,0.25,201.48,97.41,-613.77
704,1715411587470,2.25,-0.88,0.25,201.48,97.41,-613.77
705,1715411587480,2.4314563106796117,-1.2601941747572816,0.5351456310679611,148.94359223300972,146.67747572815531,-609.8005825242718
706,1715411587490,2.46,-1.32,0.58,118.23,175.48,-607.48
707,1715411587500,2.46,-1.32,0.58,118.23,175.48,-607.48
708,1715411587510,2.46,-1.32,0.58,118.23,175.48,-607.48
709,1715411587520,2.5574576271186444,-1.2712711864406778,0.37533898305084745,100.92483050847457,203.25338983050847,-580.9627966101694
710,1715411587530,2.5599999999999996,-1.27,0.37,93.02,215.94,-568.85
711,1715411587540,2.56,-1.27,0.37,93.02000000000001,215.94,-568.85
712,1715411587550,2.3707017543859648,-1.4410526315789474,0.3950877192982456,117.47263157894736,207.29368421052632,-579.7194736842106
713,1715411587560,1.7299999999999998,-2.02,0.4799999999999999,209.17,174.87,-620.48
714,1715411587570,1.73,-2.02,0.48,209.17,174.87,-620.48
715,1715411587580,1.73,-2.02,0.4799999999999999,209.17000000000002,174.87,-620.48
716,1715411587590,0.68672,-1.9681600000000001,0.16247999999999999,279.89448,162.91423999999998,-580.81312
717,1715411587600,0.12,-1.94,-0.01,359.01,149.54,-536.44
718,1715411587610,0.12000000000000001,-1.9399999999999997,-0.01,359.01,149.54,-536.44
719,1715411587620,0.12,-1.94,-0.01,359.01,149.54,-536.44
720,1715411587630,-0.39532374100719425,-1.9295683453237409,-0.2499280575539568,324.54784172661874,139.93741007194245,-484.629928057554
721,1715411587640,-2.35,-1.89,-1.16,187.93,101.87,-279.24
722,1715411587650,-2.35,-1.8900000000000001,-1.16,187.93,101.87,-279.24
723,1715411587660,-2.35,-1.89,-1.16,187.93,101.87,-279.24
724,1715411587670,-2.7010828025477704,-1.9440127388535031,-1.54484076433121,59.28789808917198,103.27980891719746,-93.72573248407643
725,1715411587680,-2.87,-1.97,-1.7300000000000002,-29.24,104.25,33.94
726,1715411587690,-2.87,-1.9699999999999998,-1.73,-29.239999999999995,104.25,33.94
727,1715411587700,-2.7405527638190956,-1.9346231155778895,-1.6721105527638191,-29.239999999999995,104.25,33.94
728,1715411587710,-1.26,-1.5300000000000002,-1.01,-132.6291304347826,27.644608695652174,220.80547826086956
729,1715411587720,-1.26,-1.53,-1.01,-172.49,-1.89,292.85
730,1715411587730,-1.26,-1.53,-1.01,-172.49,-1.89,292.85
731,1715411587740,-1.250253164556962,-1.5318354430379746,-1.0032278481012658,-172.49,-1.8900000000000001,292.85
732,1715411587750,0.28,-1.8199999999999998,0.06,-274.65409523809524,-106.99180952380952,419.26409523809525
733,1715411587760,0.28,-1.82,0.06,-283.08,-115.66,429.69
734,1715411587770,0.28,-1.82,0.06,-283.08,-115.66,429.69000000000005
735,1715411587780,0.5007913669064749,-1.8913669064748204,0.15589928057553956,-283.08,-115.66,429.69
736,1715411587790,1.27,-2.14,0.48999999999999994,-295.87796178343945,-80.73388535031847,624.4813375796178
737,1715411587800,1.27,-2.14,0.49,-295.96,-80.51,625.73
738,1715411587810,1.27,-2.14,0.49,-295.96,-80.51,625.73
739,1715411587820,1.5204379562043797,-2.205182481751825,0.4145255474452555,-286.64744525547445,-90.69175182481752,647.8888321167883
740,1715411587830,2.0,-2.33,0.27,-246.89,-134.16,742.49
741,1715411587840,2.0,-2.33,0.27,-246.88999999999996,-134.16,742.49
742,1715411587850,2.0,-2.33,0.27,-246.88999999999996,-134.16,742.49
743,1715411587860,1.970503597122302,-2.0055395683453234,0.2523021582733813,-226.98899280575537,-153.77726618705037,730.5630935251799
744,1715411587870,1.95,-1.78,0.24,-165.53,-214.36,693.73
745,1715411587880,1.9499999999999997,-1.78,0.24,-165.53,-214.36,693.73
746,1715411587890,1.95,-1.78,0.24,-165.53,-214.36,693.73
747,1715411587900,1.7025581395348839,-1.6302325581395352,0.27255813953488367,-154.03,-205.76697674418608,636.2067441860465
748,1715411587910,1.57,-1.55,0.29,-145.75,-199.58,594.79
749,1715411587920,1.57,-1.55,0.29,-145.75,-199.58,594.79
750,1715411587930,1.57,-1.55,0.29,-145.75,-199.58,594.79
751,1715411587940,1.8033093525179855,-1.4358273381294966,0.2651798561151079,-106.33935251798562,-162.52733812949643,554.2394964028776
752,1715411587950,2.04,-1.32,0.24,-65.19,-123.84,511.9
753,1715411587960,2.04,-1.32,0.24,-65.19,-123.83999999999999,511.8999999999999
754,1715411587970,2.1508092485549133,-1.3194797687861273,0.27953757225433523,-65.19,-123.84,511.9
755,1715411587980,4.17,-1.31,1.0,-305.21632124352334,115.20062176165804,552.7725388601036
756,1715411587990,4.17,-1.31,1.0,-347.66,157.47,560.0
757,1715411588000,4.17,-1.31,1.0,-347.66,157.47,560.0
758,1715411588010,4.275773195876289,-1.1787628865979383,0.872680412371134,-339.8575257731959,147.8077319587629,543.8993814432989
759,1715411588020,4.71,-0.64,0.35,-158.45,-76.84,169.56
760,1715411588030,4.71,-0.64,0.35,-158.45,-76.84,169.56
761,1715411588040,4.71,-0.64,0.35,-158.45,-76.84,169.56
762,1715411588050,4.835438596491228,-0.64,0.7089473684210525,-137.81935672514618,-72.21619883040937,136.2230994152047
763,1715411588060,5.36,-0.64,2.21,49.07,-30.33,-165.77
764,1715411588070,5.36,-0.64,2.21,49.07,-30.33,-165.77
765,1715411588080,5.36,-0.64,2.21,49.07,-30.330000000000002,-165.77
766,1715411588090,4.483661971830986,-0.7405633802816902,1.118169014084507,50.17896713615024,98.2730985915493,-178.38032863849767
767,1715411588100,3.53,-0.85,-0.07,52.06,316.41,-199.77
768,1715411588110,3.53,-0.85,-0.07,52.06,316.41,-199.77
769,1715411588120,3.479037037037037,-0.8262962962962963,-0.054000000000000006,52.06,316.41,-199.77
770,1715411588130,2.67,-0.45,0.2,68.58100775193799,246.8437209302326,-238.71093023255816
771,1715411588140,2.67,-0.45,0.2,125.55,6.96,-372.99
772,1715411588150,2.67,-0.45,0.2,125.55,6.96,-372.99
773,1715411588160,2.67,-0.45000000000000007,0.2,125.54999999999998,6.959999999999999,-372.99
774,1715411588170,2.4185632183908043,-0.45,0.5448275862068966,114.54005747126438,31.85528735632184,-375.0177011494253
775,1715411588180,2.32,-0.45,0.68,93.08,80.38,-378.97
776,1715411588190,2.32,-0.45,0.68,93.08,80.38,-378.97
777,1715411588200,2.32,-0.45,0.6800000000000002,93.08,80.38,-378.97
778,1715411588210,1.8736301369863015,-0.3771232876712329,0.2427397260273973,134.23616438356163,121.77397260273973,-436.3278082191781
779,1715411588220,1.83,-0.37,0.2,146.73,134.34,-453.74
780,1715411588230,1.83,-0.37,0.2,146.73,134.34,-453.74
781,1715411588240,1.8232894736842105,-0.4303947368421053,0.26934210526315794,146.73,134.34,-453.73999999999995
782,1715411588250,1.8,-0.64,0.51,225.28,43.27,-527.22
783,1715411588260,1.8,-0.64,0.51,225.28000000000003,43.27,-527.22
784,1715411588270,1.8,-0.64,0.51,225.28,43.27,-527.22
785,1715411588280,1.8618556701030928,-0.8410309278350515,0.4636082474226804,191.215206185567,77.0042268041237,-526.1545360824742
786,1715411588290,1.9599999999999997,-1.16,0.39,100.59,166.75,-523.32
787,1715411588300,1.96,-1.16,0.39,100.59,166.75,-523.32
788,1715411588310,1.9600000000000002,-1.16,0.39,100.59000000000002,166.75,-523.32
789,1715411588320,1.9353110047846889,-1.2052631578947368,0.3776555023923445,109.8190909090909,159.15727272727273,-525.9898564593302
790,1715411588330,1.9,-1.27,0.36,127.37999999999998,144.71,-531.07
791,1715411588340,1.9,-1.2700000000000002,0.36,127.38,144.71,-531.07
792,1715411588350,1.9,-1.27,0.36,127.37999999999998,144.71,-531.07
793,1715411588360,1.8370520231213874,-1.2928901734104048,0.14254335260115608,135.21150289017342,147.8608670520231,-545.1164739884393
794,1715411588370,1.7899999999999998,-1.31,-0.02,144.53,151.61,-561.83
795,1715411588380,1.79,-1.31,-0.02,144.53,151.61,-561.83
796,1715411588390,1.79,-1.31,-0.02,144.53,151.61,-561.83
797,1715411588400,0.8624817518248175,-1.6215328467153285,0.12160583941605839,187.40087591240874,107.04226277372264,-559.4118248175182
798,1715411588410,0.48,-1.75,0.18,217.04,76.23,-557.74
799,1715411588420,0.48,-1.75,0.18,217.04,76.23,-557.74
800,1715411588430,0.4364285714285714,-1.7518571428571428,0.15485714285714286,217.04,76.23,-557.74
801,1715411588440,-2.57,-1.8799999999999997,-1.58,203.7949685534591,77.33893081761008,-495.43911949685537
802,1715411588450,-2.5699999999999994,-1.8800000000000001,-1.58,161.62,80.87,-297.06
803,1715411588460,-2.57,-1.88,-1.58,161.62,80.87,-297.06
804,1715411588470,-2.5774251497005984,-1.879760479041916,-1.5651497005988024,161.62,80.87,-297.06
805,1715411588480,-2.88,-1.87,-0.96,46.47548245614035,-65.61359649122807,-59.55820175438597
806,1715411588490,-2.88,-1.87,-0.96,24.17,-93.99,-13.55
807,1715411588500,-2.8799999999999994,-1.87,-0.96,24.17,-93.99,-13.55
808,1715411588510,-2.7444827586206895,-1.8234482758620691,-0.8844827586206897,24.169999999999998,-93.99,-13.55
809,1715411588520,-1.57,-1.42,-0.22999999999999998,-69.76965397923875,-69.69207612456746,314.573598615917
810,1715411588530,-1.57,-1.42,-0.23,-77.51,-67.69,341.61
811,1715411588540,-1.57,-1.4200000000000002,-0.23,-77.51,-67.69,341.61
812,1715411588550,-0.874950495049505,-1.4264356435643564,-0.06910891089108911,-97.12376237623762,-48.96663366336634,403.6986138613861
813,1715411588560,0.59,-1.44,0.27,-163.64,14.529999999999998,614.26
814,1715411588570,0.59,-1.44,0.27,-163.64,14.529999999999998,614.26
815,1715411588580,0.59,-1.44,0.27,-163.64,14.53,614.26
816,1715411588590,1.0447133757961784,-1.6429299363057324,0.1910828025477707,-169.35414012738852,15.166687898089172,654.7351592356688
817,1715411588600,1.8,-1.9800000000000002,0.06,-185.0,16.91,765.56
818,1715411588610,1.8,-1.98,0.060000000000000005,-185.0,16.91,765.5599999999998
819,1715411588620,1.8000000000000003,-1.9799999999999998,0.060000000000000005,-185.0,16.91,765.56
820,1715411588630,2.148224852071006,-2.2522485207100593,-0.022307692307692313,-179.25621301775146,-47.156863905325444,790.3659171597633
821,1715411588640,2.35,-2.41,-0.07,-173.58,-110.47,814.88
822,1715411588650,2.35,-2.41,-0.07,-173.58,-110.47,814.88
823,1715411588660,2.35,-2.41,-0.07,-173.58,-110.46999999999998,814.88
824,1715411588670,1.94,-1.81,0.13,-132.2904375,-136.1385625,685.238
825,1715411588680,1.94,-1.81,0.13,-119.87,-143.86,646.24
826,1715411588690,1.94,-1.81,0.13,-119.87,-143.86,646.24
827,1715411588700,1.8608,-1.7859999999999998,0.11320000000000001,-117.3818,-142.78566666666669,639.3826
828,1715411588710,1.6099999999999999,-1.7100000000000002,0.06,-85.94,-129.21,552.73
829,1715411588720,1.6099999999999999,-1.71,0.06,-85.94,-129.21,552.73
830,1715411588730,1.61,-1.7099999999999997,0.06,-85.94,-129.21,552.73
831,1715411588740,1.6100000000000003,-1.7100000000000002,0.06,-85.94,-129.21,552.73
832,1715411588750,1.601923076923077,-1.6534615384615385,-0.255,-90.22134615384616,-128.39000000000001,515.9167307692309
833,1715411588760,1.6,-1.64,-0.33,-91.37,-128.17,506.03999999999996
834,1715411588770,1.6,-1.64,-0.33,-91.37000000000002,-128.17,506.04
835,1715411588780,1.8753389830508476,-1.6303389830508475,-0.2140677966101695,-91.37,-128.17,506.04
836,1715411588790,3.31,-1.58,0.39,-189.15000000000003,26.430000000000003,546.87
837,1715411588800,3.31,-1.58,0.39,-189.15,26.430000000000003,546.87
838,1715411588810,3.31,-1.58,0.39,-189.15,26.43,546.87
839,1715411588820,3.510989010989011,-1.195054945054945,0.21285714285714286,-163.75071428571428,-2.580000000000001,486.6557142857143
840,1715411588830,3.9,-0.45,-0.13,-70.62,-108.95,265.87
841,1715411588840,3.9,-0.45,-0.13,-70.62,-108.95,265.87
842,1715411588850,3.9,-0.45,-0.13,-70.62,-108.95,265.87
843,1715411588860,4.306066350710901,-0.5336018957345972,0.47312796208530805,-66.48966824644549,-90.1495260663507,128.0960663507109
844,1715411588870,4.58,-0.59,0.88,-62.32,-71.17,-10.99
845,1715411588880,4.58,-0.59,0.88,-62.32,-71.17,-10.99
846,1715411588890,4.58,-0.59,0.88,-62.32,-71.17,-10.990000000000002
847,1715411588900,3.95518018018018,-0.9764864864864865,0.4935135135135135,-36.049819819819824,52.958918918918926,-100.46576576576577
848,1715411588910,3.61,-1.19,0.28,-2.81,210.02,-213.68000000000004
849,1715411588920,3.61,-1.19,0.28,-2.81,210.02,-213.68
850,1715411588930,3.61,-1.19,0.28,-2.81,210.01999999999998,-213.68
851,1715411588940,3.3995588235294116,-1.3692647058823528,-0.515,71.0382843137255,169.11779411764707,-296.0451960784314
852,1715411588950,3.34,-1.42,-0.74,102.54,151.67,-331.18
853,1715411588960,3.34,-1.42,-0.7399999999999999,102.54,151.67,-331.18
854,1715411588970,3.34,-1.42,-0.74,102.54,151.67,-331.18
855,1715411588980,2.8395121951219515,-1.3541463414634147,-0.33829268292682924,69.29707317073172,104.4068292682927,-366.0231707317073
856,1715411588990,2.58,-1.32,-0.13,52.06,79.9,-384.09
857,1715411589000,2.58,-1.32,-0.13,52.06,79.9,-384.09
858,1715411589010,2.4161834319526627,-1.0993491124260357,-0.053106508875739644,61.81544378698224,78.02112426035504,-396.2324852071006
859,1715411589020,2.09,-0.66,0.1,81.23999999999998,74.28,-420.41
860,1715411589030,2.09,-0.66,0.1,81.24,74.28,-420.41
861,1715411589040,2.09,-0.66,0.1,81.24,74.28,-420.41
862,1715411589050,2.09,-0.66,0.1,81.24,74.28,-420.41
863,1715411589060,2.0671874999999997,-0.7664583333333334,0.16843750000000002,115.90833333333335,50.85218749999999,-482.38218750000004
864,1715411589070,2.06,-0.8,0.19,135.8,37.41,-517.94
865,1715411589080,2.06,-0.7999999999999999,0.19,135.8,37.41,-517.94
866,1715411589090,2.1444827586206894,-0.8563218390804598,0.3026436781609196,116.28551724137931,76.4748275862069,-528.3289655172414
867,1715411589100,2.21,-0.9,0.39,65.06,179.02,-555.6
868,1715411589110,2.21,-0.9,0.39,65.06,179.02,-555.6
869,1715411589120,2.21,-0.9000000000000001,0.39,65.06,179.02,-555.6
870,1715411589130,2.1009090909090906,-1.0320574162679426,0.2579425837320574,55.87818181818182,211.0609090909091,-564.0636363636364
871,1715411589140,2.02,-1.13,0.16,44.86,249.51,-574.22
872,1715411589150,2.02,-1.13,0.16,44.86,249.51,-574.22
873,1715411589160,2.02384,-1.1434399999999998,0.16864,45.23352,249.43528,-574.24832
874,1715411589170,2.06,-1.27,0.25,91.55,240.17,-577.76
875,1715411589180,2.06,-1.27,0.25,91.55,240.17,-577.76
876,1715411589190,2.06,-1.2700000000000002,0.25,91.55,240.17,-577.76
877,1715411589200,2.06,-1.27,0.25,91.54999999999998,240.17,-577.76
878,1715411589210,1.894433962264151,-1.168820754716981,0.40636792452830184,235.87943396226416,123.02962264150943,-579.7886792452831
879,1715411589220,1.88,-1.16,0.42,273.68,92.35,-580.32
880,1715411589230,1.88,-1.16,0.41999999999999993,273.68,92.35,-580.32
881,1715411589240,1.725056818181818,-1.2075568181818181,0.36937499999999995,273.68,92.35,-580.32
882,1715411589250,0.87,-1.47,0.09,305.0548344370861,64.89701986754967,-618.9794701986755
883,1715411589260,0.8700000000000001,-1.4700000000000002,0.09,311.28,59.45,-626.65
884,1715411589270,0.87,-1.47,0.09,311.28,59.45,-626.65
885,1715411589280,0.4764971751412429,-1.473954802259887,-0.012824858757062149,303.8117514124293,57.861751412429385,-605.6009604519774
886,1715411589290,-1.12,-1.4900000000000002,-0.43,216.86,39.37,-360.53
887,1715411589300,-1.12,-1.49,-0.43,216.86,39.37,-360.53
888,1715411589310,-1.12,-1.49,-0.43,216.86,39.37,-360.53
889,1715411589320,-2.14,-1.934,-0.808,117.97483870967743,47.086129032258064,-241.39193548387098
890,1715411589330,-2.8199999999999994,-2.23,-1.06,25.27,54.31999999999999,-129.7
891,1715411589340,-2.82,-2.23,-1.06,25.27,54.32,-129.7
892,1715411589350,-2.8200000000000003,-2.23,-1.06,25.27,54.32,-129.7
893,1715411589360,-2.82,-2.23,-1.06,25.27,54.32,-129.7
894,1715411589370,-2.387247706422018,-2.23,-0.7987155963302752,6.775963302752294,-37.32550458715596,183.3187155963303
895,1715411589380,-2.29,-2.23,-0.74,2.62,-57.92,253.66
896,1715411589390,-2.29,-2.23,-0.74,2.62,-57.92,253.65999999999997
897,1715411589400,-0.5702336448598131,-1.9863084112149532,-0.07158878504672897,-48.16327102803738,-60.39177570093458,400.2991588785046
898,1715411589410,0.18,-1.8800000000000001,0.22,-92.71000000000001,-62.56,528.93
899,1715411589420,0.18,-1.88,0.22,-92.71,-62.56,528.93
900,1715411589430,0.18,-1.88,0.22,-92.71,-62.56,528.93
901,1715411589440,1.580228013029316,-2.053941368078176,0.4809120521172639,-160.74257328990228,-3.6753094462540727,634.1229641693811
902,1715411589450,1.79,-2.08,0.52,-181.21,14.04,665.77
903,1715411589460,1.79,-2.08,0.52,-181.21,14.04,665.77
904,1715411589470,1.8978921568627451,-2.121029411764706,0.47441176470588237,-181.7545588235294,14.280882352941175,671.7872549019609
905,1715411589480,2.5,-2.35,0.22,-197.07999999999998,21.06,841.13
906,1715411589490,2.5,-2.35,0.22,-197.08,21.06,841.13
907,1715411589500,2.5,-2.35,0.21999999999999997,-197.08,21.059999999999995,841.1300000000001
908,1715411589510,2.4420960698689957,-2.2186026200873363,0.13537117903930132,-193.49401746724894,5.69943231441048,824.4306113537117
909,1715411589520,2.24,-1.76,-0.16,-170.59,-92.41000000000001,717.77
910,1715411589530,2.24,-1.76,-0.16,-170.59,-92.41,717.77
911,1715411589540,2.24,-1.76,-0.16,-170.59,-92.41,717.77
912,1715411589550,2.1195804195804198,-1.9664335664335664,-0.10265734265734265,-141.19482517482518,-136.64566433566435,689.4711188811189
913,1715411589560,2.03,-2.12,-0.06,-101.68,-196.11,651.43
914,1715411589570,2.03,-2.12,-0.06,-101.68,-196.11,651.43
915,1715411589580,2.03,-2.12,-0.06,-101.68,-196.11,651.43
916,1715411589590,2.184285714285714,-1.8161038961038962,-0.07168831168831168,-87.68441558441559,-171.08298701298702,629.0001298701299
917,1715411589600,2.69,-0.82,-0.11,-41.81,-89.04999999999998,555.48
918,1715411589610,2.69,-0.82,-0.11,-41.81,-89.05,555.48
919,1715411589620,2.69,-0.82,-0.11,-41.81,-89.04999999999998,555.48
920,1715411589630,2.8661290322580646,-0.9709677419354839,0.0703225806451613,-93.20612903225808,-91.5074193548387,502.5490322580645
921,1715411589640,3.11,-1.18,0.32,-164.37,-94.91,429.26000000000005
922,1715411589650,3.11,-1.18,0.32,-164.37,-94.91,429.26
923,1715411589660,3.11,-1.18,0.32,-164.37,-94.91,429.26
924,1715411589670,3.4091489361702125,-0.534468085106383,0.09957446808510638,-203.2109574468085,106.02925531914892,401.175
925,1715411589680,3.68,0.05,-0.1,-253.41999999999996,365.78,364.87
926,1715411589690,3.6800000000000006,0.05,-0.1,-253.41999999999996,365.78,364.87
927,1715411589700,3.68,0.05,-0.1,-253.42,365.78,364.87
928,1715411589710,4.78508875739645,-0.7121301775147929,0.9384023668639053,-19.666153846153843,-130.59822485207098,-1.8092899408284027
929,1715411589720,4.84,-0.75,0.99,24.779999999999998,-224.98,-71.53
930,1715411589730,4.84,-0.75,0.99,24.78,-224.98,-71.53
931,1715411589740,4.668372093023256,-0.8644186046511628,0.8946511627906977,25.629767441860462,-166.57802325581395,-81.0618023255814
932,1715411589750,4.12,-1.23,0.59,31.740000000000002,253.36,-149.6
933,1715411589760,4.12,-1.23,0.59,31.74,253.36,-149.6
934,1715411589770,4.12,-1.23,0.59,31.74,253.36,-149.6
935,1715411589780,3.972571428571429,-1.1802857142857142,0.4391428571428571,54.29828571428572,235.08057142857143,-171.416
936,1715411589790,3.26,-0.94,-0.29,163.33000000000004,146.73,-276.86
937,1715411589800,3.26,-0.94,-0.29,163.33,146.73,-276.86
938,1715411589810,3.26,-0.94,-0.29,163.33,146.73,-276.86
939,1715411589820,2.8645833333333335,-0.8617857142857143,-0.1075,159.3934523809524,133.52797619047618,-301.6515476190477
940,1715411589830,2.35,-0.7599999999999999,0.13,147.95,95.15,-373.72
941,1715411589840,2.35,-0.76,0.13,147.95,95.15,-373.72
942,1715411589850,2.35,-0.76,0.13,147.95,95.15,-373.72
943,1715411589860,2.104124293785311,-0.7238418079096045,0.23124293785310734,158.43225988700564,90.51813559322035,-395.9211299435029
944,1715411589870,1.67,-0.66,0.41,176.94,82.34,-435.12
945,1715411589880,1.67,-0.66,0.4099999999999999,176.94,82.34,-435.12000000000006
946,1715411589890,1.67,-0.66,0.41,176.94,82.34,-435.12
947,1715411589900,1.7053757225433523,-0.5951445086705203,0.3982080924855491,169.46502890173412,97.72208092485548,-460.99173410404626
948,1715411589910,1.73,-0.55,0.39,162.41,112.24,-485.40999999999997
949,1715411589920,1.7299999999999998,-0.55,0.39,162.41,112.24,-485.40999999999997
950,1715411589930,1.7334848484848484,-0.5586363636363637,0.3928787878787879,162.41,112.24,-485.41
951,1715411589940,1.9600000000000002,-1.12,0.58,144.94940594059406,187.0249504950495,-517.0329702970297
952,1715411589950,1.96,-1.1199999999999999,0.58,144.04,190.91999999999996,-518.68
953,1715411589960,1.9599999999999997,-1.12,0.58,144.04,190.92,-518.68
954,1715411589970,1.96,-1.12,0.58,144.04,190.92,-518.68
955,1715411589980,2.0394520547945203,-1.0405479452054796,0.5641095890410959,134.48986301369862,206.94547945205477,-517.1505479452054
956,1715411589990,2.16,-0.92,0.54,120.0,231.26,-514.83
957,1715411590000,2.16,-0.92,0.54,120.0,231.26,-514.83
958,1715411590010,2.5418181818181815,-0.9381818181818182,0.7218181818181818,99.98628787878786,263.66363636363633,-536.6405303030303
959,1715411590020,2.79,-0.95,0.84,80.57,295.1,-557.8
960,1715411590030,2.79,-0.95,0.8400000000000001,80.57,295.1,-557.8
961,1715411590040,2.79,-0.9500000000000001,0.84,80.57,295.1,-557.8
962,1715411590050,2.3423762376237627,-1.2146534653465346,0.5296039603960395,108.40539603960396,280.6042079207921,-564.8734653465345
963,1715411590060,1.42,-1.7599999999999998,-0.10999999999999999,288.82,186.65,-610.72
964,1715411590070,1.42,-1.76,-0.11,288.82,186.65,-610.72
965,1715411590080,1.3345816733067728,-1.7708366533864544,-0.16800796812749005,288.82,186.65,-610.72
966,1715411590090,0.08,-1.9299999999999997,-1.02,221.62000000000003,120.78999999999999,-573.61
967,1715411590100,0.08,-1.93,-1.02,221.62,120.79,-573.61
968,1715411590110,0.08,-1.9300000000000002,-1.02,221.62,120.79000000000002,-573.61
969,1715411590120,0.08,-1.93,-1.02,221.62,120.79,-573.61
970,1715411590130,-2.2563138686131388,-2.4051824817518246,-1.8278102189781023,126.13445255474451,30.391313868613143,-383.2286861313869
971,1715411590140,-2.87,-2.53,-2.04,92.1,-1.83,-315.37
972,1715411590150,-2.8699999999999997,-2.53,-2.04,92.1,-1.83,-315.37
973,1715411590160,-2.87,-2.53,-2.04,92.1,-1.83,-315.37
974,1715411590170,-3.01927536231884,-2.3060869565217392,-1.5250000000000001,-2.8634782608695675,-46.08507246376812,-38.01695652173914
975,1715411590180,-3.07,-2.23,-1.35,-56.82000000000001,-71.23,119.56999999999998
976,1715411590190,-3.0700000000000003,-2.23,-1.35,-56.82,-71.23,119.57
977,1715411590200,-2.7775,-2.1825,-1.23125,-59.79197368421052,-72.00210526315789,126.31348684210525
978,1715411590210,-0.73,-1.8500000000000003,-0.4000000000000001,-207.39999999999998,-110.34999999999998,461.24
979,1715411590220,-0.73,-1.85,-0.4,-207.4,-110.35,461.24
980,1715411590230,-0.73,-1.8499999999999999,-0.4,-207.4,-110.35000000000001,461.24000000000007
981,1715411590240,-0.25522842639593907,-1.9263451776649747,-0.2997969543147208,-204.22477157360404,-122.41700507614212,487.3269035532995
982,1715411590250,1.26,-2.17,0.02,-185.06,-195.25,644.78
983,1715411590260,1.26,-2.17,0.02,-185.05999999999997,-195.25,644.78
984,1715411590270,1.26,-2.17,0.02,-185.06,-195.25,644.78
985,1715411590280,2.2221476510067113,-2.522214765100671,0.011409395973154362,-127.29543624161074,-194.4263758389262,757.2522147651006
986,1715411590290,2.38,-2.58,0.01,-112.12,-194.21,786.8
987,1715411590300,2.38,-2.58,0.01,-112.12,-194.21,786.8
988,1715411590310,2.4078846153846154,-2.5328846153846154,-0.024615384615384615,-112.12,-194.21,786.8
989,1715411590320,2.67,-2.09,-0.35,-122.05391891891891,-232.92959459459462,680.3482432432432
990,1715411590330,2.67,-2.09,-0.35,-122.19,-233.46,678.89
991,1715411590340,2.67,-2.09,-0.35,-122.19,-233.46,678.89
992,1715411590350,2.67,-2.09,-0.35,-122.18999999999998,-233.46,678.89
993,1715411590360,2.4513414634146344,-2.507439024390244,0.12707317073170732,-43.57231707317074,-245.5955487804878,650.325243902439
994,1715411590370,2.45,-2.51,0.13,-43.09,-245.67,650.15
995,1715411590380,2.45,-2.51,0.13,-43.09,-245.67,650.15
996,1715411590390,2.2960759493670886,-1.1084810126582278,-0.5748101265822785,-13.106962025316456,-216.5553164556962,560.6908860759494
997,1715411590400,2.26,-0.78,-0.74,5.25,-198.73,505.9200000000001
998,1715411590410,2.26,-0.78,-0.74,5.25,-198.73,505.9200000000001
999,1715411590420,2.3717431192660547,-0.8657339449541284,-0.5743119266055046,5.038899082568808,-198.82518348623853,505.8964678899083
1000,1715411590430,3.42,-1.67,0.98,-40.77,-219.48,500.79
1001,1715411590440,3.42,-1.67,0.98,-40.77,-219.48,500.79
1002,1715411590450,3.42,-1.67,0.98,-40.77,-219.48,500.79
1003,1715411590460,3.4001020408163263,-1.6011224489795919,0.9343877551020408,-40.77,-219.47999999999996,500.7900000000001
1004,1715411590470,2.77,0.58,-0.51,-154.74745664739885,61.19514450867051,449.02179190751446
1005,1715411590480,2.77,0.58,-0.51,-186.83,140.2,434.45
1006,1715411590490,2.77,0.58,-0.51,-186.83,140.2,434.45
1007,1715411590500,3.1221973094170403,0.3077130044843049,-0.08085201793721976,-177.66183856502244,108.97130044843048,378.6831838565022
1008,1715411590510,3.96,-0.34,0.9400000000000001,-145.94,0.92,185.73
1009,1715411590520,3.9600000000000004,-0.34,0.94,-145.94,0.92,185.73
1010,1715411590530,3.96,-0.34,0.9399999999999998,-145.94,0.9199999999999999,185.73
1011,1715411590540,3.9634782608695653,-0.2391304347826087,0.717391304347826,-105.9791304347826,10.452850241545892,112.66623188405796
1012,1715411590550,3.97,-0.05,0.3,-27.77,29.11,-30.33
1013,1715411590560,3.97,-0.05,0.3,-27.77,29.11,-30.329999999999995
1014,1715411590570,3.97,-0.05,0.3,-27.77,29.109999999999996,-30.33
1015,1715411590580,3.9858940397350993,-0.08867549668874172,0.32225165562913904,-27.769999999999996,29.11,-30.33
1016,1715411590590,4.27,-0.78,0.72,75.43304347826086,103.00498023715414,-224.82541501976286
1017,1715411590600,4.27,-0.78,0.72,77.94,104.8,-229.55
1018,1715411590610,4.27,-0.78,0.72,77.94,104.8,-229.55
1019,1715411590620,4.27,-0.78,0.72,77.94,104.8,-229.55
1020,1715411590630,3.37,-0.7599999999999999,-0.17,42.6,190.55,-297.36
1021,1715411590640,3.3700000000000006,-0.76,-0.17,42.6,190.55,-297.36
1022,1715411590650,3.37,-0.76,-0.17,42.6,190.55,-297.36
1023,1715411590660,3.162413793103448,-0.7105747126436782,0.1314942528735632,67.36379310344829,160.63850574712646,-328.0543103448276
1024,1715411590670,2.95,-0.66,0.43999999999999995,123.89999999999999,92.35,-398.13
1025,1715411590680,2.9499999999999997,-0.66,0.44,123.89999999999999,92.35000000000001,-398.13
1026,1715411590690,2.95,-0.66,0.44,123.90000000000002,92.35,-398.13
1027,1715411590700,2.636861313868613,-0.5973722627737227,0.40014598540145985,95.71978102189782,142.18744525547444,-416.9375912408759
1028,1715411590710,2.4,-0.55,0.37,60.60999999999999,204.28,-440.37000000000006
1029,1715411590720,2.4,-0.55,0.36999999999999994,60.60999999999999,204.28,-440.37000000000006
1030,1715411590730,2.4,-0.55,0.37,60.61,204.28,-440.37
1031,1715411590740,2.1026086956521737,-0.7340993788819876,0.3275155279503105,135.5539751552795,168.20049689440992,-486.7795652173913
1032,1715411590750,1.98,-0.8100000000000002,0.31,174.44,149.48,-510.86
1033,1715411590760,1.9800000000000002,-0.81,0.31,174.44,149.48,-510.85999999999996
1034,1715411590770,1.98,-0.81,0.31,174.44,149.48,-510.86000000000007
1035,1715411590780,1.9967567567567566,-1.0278378378378379,0.31,173.72023166023166,150.78803088803087,-511.34436293436295
1036,1715411590790,2.0,-1.07,0.31,160.1,175.54,-520.51
1037,1715411590800,2.0,-1.07,0.31,160.1,175.54,-520.51
1038,1715411590810,2.00336,-1.0740800000000001,0.31312,160.1,175.54,-520.51
1039,1715411590820,2.14,-1.24,0.44,110.03625925925927,191.3485925925926,-541.7575925925926
1040,1715411590830,2.14,-1.24,0.44,107.91,192.02,-542.66
1041,1715411590840,2.14,-1.24,0.44,107.91,192.02,-542.66
1042,1715411590850,2.3094262295081966,-1.1618032786885246,0.5877049180327869,115.95229508196722,189.96581967213118,-542.2130327868852
1043,1715411590860,2.53,-1.06,0.78,159.55,178.83,-539.79
1044,1715411590870,2.53,-1.06,0.78,159.55,178.83,-539.79
1045,1715411590880,2.53,-1.06,0.78,159.55,178.83,-539.79
1046,1715411590890,2.344,-1.264,0.591,159.55,178.83,-539.79
1047,1715411590900,1.9100000000000001,-1.74,0.15,158.9481707317073,185.655,-564.4906097560975
1048,1715411590910,1.91,-1.74,0.15,158.14,194.82,-597.66
1049,1715411590920,1.9099999999999997,-1.74,0.15,158.14,194.82,-597.66
1050,1715411590930,0.6554545454545454,-2.196783216783217,-0.4032867132867132,240.1774825174825,159.8227972027972,-588.0882517482518
1051,1715411590940,-0.04,-2.45,-0.71,312.5,128.97,-579.65
1052,1715411590950,-0.04,-2.45,-0.71,312.5,128.97,-579.65
1053,1715411590960,-0.04,-2.45,-0.71,312.5,128.97,-579.65
1054,1715411590970,-1.524513274336283,-2.742035398230089,-1.5276991150442478,242.46725663716813,53.456017699115044,-439.1830973451327
1055,1715411590980,-3.09,-3.05,-2.39,165.95,-29.05,-285.71
1056,1715411590990,-3.09,-3.05,-2.39,165.95,-29.050000000000004,-285.71
1057,1715411591000,-3.09,-3.05,-2.39,165.95,-29.05,-285.71
1058,1715411591010,-2.6801503759398493,-2.328308270676692,-1.169360902255639,-46.081428571428575,-121.9642857142857,63.66142857142858
1059,1715411591020,-2.63,-2.24,-1.02,-81.42,-137.45,121.89
1060,1715411591030,-2.63,-2.24,-1.02,-81.42,-137.45,121.89
1061,1715411591040,-2.6300000000000003,-2.24,-1.02,-81.42,-137.45,121.89
1062,1715411591050,-1.3611377245508982,-1.944191616766467,-0.327185628742515,-194.50119760479043,-94.49646706586826,356.1789221556886
1063,1715411591060,-1.0,-1.8599999999999999,-0.13,-248.53999999999996,-73.97,468.13999999999993
1064,1715411591070,-1.0,-1.86,-0.13,-248.54,-73.97,468.14
1065,1715411591080,-1.0,-1.86,-0.13,-248.54,-73.97,468.14000000000004
1066,1715411591090,0.9913333333333334,-2.237,0.15033333333333335,-195.25306666666668,-150.16386666666665,658.0005333333332
1067,1715411591100,1.06,-2.25,0.16,-184.08,-166.14,697.81
1068,1715411591110,1.06,-2.25,0.16,-184.08,-166.14,697.81
1069,1715411591120,1.448711656441718,-2.3206748466257667,0.13791411042944784,-184.08,-166.14,697.81
1070,1715411591130,2.82,-2.57,0.06,-51.27,-180.85,814.64
1071,1715411591140,2.82,-2.57,0.060000000000000005,-51.27,-180.85,814.64
1072,1715411591150,2.82,-2.57,0.06,-51.27,-180.85,814.64
1073,1715411591160,2.7984615384615386,-2.3884615384615384,0.013846153846153845,-41.540769230769236,-188.53,768.796923076923
1074,1715411591170,2.75,-1.98,-0.09,-19.65,-205.81,665.65
1075,1715411591180,2.75,-1.98,-0.09,-19.65,-205.81,665.65
1076,1715411591190,2.75,-1.98,-0.09,-19.65,-205.81,665.65
1077,1715411591200,2.678181818181818,-2.0853333333333337,0.0296969696969697,-4.307575757575756,-205.31460606060608,691.1258181818182
1078,1715411591210,2.6,-2.2,0.16,21.85,-204.47,734.56
1079,1715411591220,2.6,-2.2,0.16,21.85,-204.47,734.56
1080,1715411591230,2.6000000000000005,-2.2,0.16,21.85,-204.47,734.5599999999998
1081,1715411591240,3.2064864864864866,-1.2764864864864867,-0.07432432432432433,59.25945945945946,-150.58513513513512,700.8724324324324
1082,1715411591250,3.48,-0.86,-0.18,80.75,-119.63,681.52
1083,1715411591260,3.48,-0.86,-0.18,80.75,-119.63,681.52
1084,1715411591270,3.4799999999999995,-0.8599999999999999,-0.18,80.75,-119.63000000000001,681.52
1085,1715411591280,2.249189189189189,-0.5121621621621621,0.15891891891891893,-108.71317567567569,-0.8802702702702703,421.7151351351351
1086,1715411591290,2.1,-0.47,0.2,-133.3,14.529999999999998,388.0
1087,1715411591300,2.191707317073171,-0.5002439024390244,0.2351219512195122,-133.3,14.530000000000001,388.0
1088,1715411591310,3.04,-0.78,0.56,-154.8343347639485,100.10725321888413,435.7424892703863
1089,1715411591320,3.0399999999999996,-0.78,0.56,-166.75,147.46,462.16
1090,1715411591330,3.04,-0.78,0.56,-166.75,147.46,462.16
1091,1715411591340,2.9416101694915255,-0.45050847457627125,0.4021186440677966,-155.71661016949153,124.34220338983052,410.4405084745763
1092,1715411591350,2.61,0.66,-0.13,-94.42,-4.09,123.11000000000001
1093,1715411591360,2.61,0.66,-0.13,-94.42,-4.09,123.11
1094,1715411591370,2.61,0.66,-0.13,-94.42000000000002,-4.09,123.10999999999999
1095,1715411591380,3.11281045751634,0.29490196078431374,0.1934640522875817,-91.33830065359477,-3.093267973856209,108.78810457516342
1096,1715411591390,4.18,-0.48,0.88,-75.56,2.01,35.46
1097,1715411591400,4.18,-0.48,0.88,-75.56,2.01,35.46
1098,1715411591410,4.18,-0.4799999999999999,0.88,-75.56,2.01,35.46
1099,1715411591420,4.1397560975609755,-0.41628048780487803,0.6485975609756098,-64.0569512195122,63.76762195121951,-30.409207317073168
1100,1715411591430,4.06,-0.29,0.18999999999999997,-41.26,186.16,-160.95
1101,1715411591440,4.06,-0.29,0.19,-41.260000000000005,186.16,-160.95
1102,1715411591450,4.06,-0.29,0.19,-41.26,186.16,-160.95
1103,1715411591460,3.8990052356020946,-0.8502617801047119,0.09340314136125655,26.08293193717277,159.95397905759162,-249.66675392670157
1104,1715411591470,3.81,-1.16,0.04,81.24,138.49,-322.33
1105,1715411591480,3.81,-1.16,0.04,81.24,138.49,-322.33
1106,1715411591490,3.81,-1.16,0.04,81.24,138.49,-322.33
1107,1715411591500,3.1658441558441557,-0.7574025974025974,0.16883116883116883,49.01422077922078,144.27974025974024,-352.6942857142857
1108,1715411591510,3.01,-0.66,0.2,35.71,146.67,-365.23
1109,1715411591520,3.01,-0.66,0.20000000000000004,35.71,146.67,-365.23
1110,1715411591530,2.9234210526315785,-0.6544736842105263,0.26447368421052636,45.2725,133.54421052631577,-376.36157894736846
1111,1715411591540,2.54,-0.63,0.55,116.46,35.83,-459.23
1112,1715411591550,2.54,-0.63,0.55,116.46,35.83,-459.23
1113,1715411591560,2.54,-0.63,0.55,116.46,35.83,-459.22999999999996
1114,1715411591570,2.54,-0.63,0.55,116.46,35.83,-459.23
1115,1715411591580,2.1356275303643724,-0.6483805668016195,0.6327125506072875,177.59376518218622,78.79457489878541,-522.2202024291498
1116,1715411591590,2.1,-0.65,0.64,182.98,82.58,-527.77
1117,1715411591600,2.1,-0.65,0.64,182.98,82.58,-527.77
1118,1715411591610,2.1,-0.65,0.64,182.98,82.58,-527.77
1119,1715411591620,1.9487958115183244,-1.0001570680628273,0.48879581151832463,168.9883769633508,89.44408376963351,-572.5787958115184
1120,1715411591630,1.91,-1.09,0.45,163.33,92.22,-590.7
1121,1715411591640,1.91,-1.09,0.45,163.33,92.22,-590.7
1122,1715411591650,2.0568852459016393,-1.1313114754098361,0.5463934426229509,152.59688524590166,102.99377049180328,-587.247650273224
1123,1715411591660,2.23,-1.18,0.66,131.65,124.02000000000001,-580.51
1124,1715411591670,2.23,-1.18,0.66,131.65,124.02000000000001,-580.51
1125,1715411591680,2.2289583333333334,-1.1810937499999998,0.6583854166666667,131.65,124.02,-580.51
1126,1715411591690,2.03,-1.39,0.35,107.42263157894737,147.70701754385965,-595.6201754385964
1127,1715411591700,2.03,-1.39,0.35,106.99,148.13,-595.89
1128,1715411591710,2.03,-1.39,0.35,106.99,148.13,-595.89
1129,1715411591720,2.03,-1.39,0.35,106.99,148.13,-595.89
1130,1715411591730,1.8764900662251658,-1.4627152317880796,0.2772847682119205,115.77940397350993,148.9366225165563,-594.318476821192
1131,1715411591740,1.84,-1.48,0.26,119.63000000000001,149.29,-593.63
1132,1715411591750,1.84,-1.48,0.26,119.62999999999998,149.29,-593.63
1133,1715411591760,1.84,-1.48,0.26,119.63,149.29,-593.63
1134,1715411591770,-0.1075147928994083,-2.213846153846154,-0.5020710059171598,160.75958579881657,99.64881656804732,-562.0371005917159
1135,1715411591780,-0.23,-2.26,-0.55,168.58,90.21,-556.03
1136,1715411591790,-0.23,-2.26,-0.55,168.58,90.21,-556.03
1137,1715411591800,-0.23,-2.26,-0.55,168.58,90.21,-556.03
1138,1715411591810,-3.0664963503649636,-2.993576642335766,-1.997591240875912,127.73620437956205,41.5092700729927,-233.0197810218978
1139,1715411591820,-3.13,-3.01,-2.03,121.95,34.61,-187.26
1140,1715411591830,-3.13,-3.01,-2.03,121.95,34.61,-187.26
1141,1715411591840,-3.13,-3.01,-2.03,121.95000000000002,34.61,-187.26
1142,1715411591850,-2.4840880503144653,-2.2150314465408805,-0.559308176100629,-22.984716981132074,-41.14245283018868,115.96679245283019
1143,1715411591860,-2.48,-2.21,-0.55,-45.04,-52.67,162.11
1144,1715411591870,-2.48,-2.21,-0.55,-45.04,-52.67,162.11
1145,1715411591880,-2.48,-2.21,-0.55,-45.04,-52.67,162.11
1146,1715411591890,,,,,,
1147,1715411591900,,,,,,
1148,1715411591910,-0.75,-1.9,0.08,-35.11385714285714,-20.368142857142857,474.3547142857143
1149,1715411591920,0.1290322580645161,-1.8475806451612902,0.17274193548387098,-86.38532258064515,9.091935483870968,591.5009677419355
1150,1715411591930,1.43,-1.77,0.31,-162.48,52.0,758.18
1151,1715411591940,1.43,-1.77,0.31,-162.48,52.0,758.18
1152,1715411591950,1.55,-1.7864102564102564,0.3233333333333333,-162.48,52.0,758.18
1153,1715411591960,2.6,-1.93,0.44,-305.46809160305344,-54.01526717557252,791.7451908396946
1154,1715411591970,2.6,-1.93,0.44,-313.54,-60.0,793.64
1155,1715411591980,2.6,-1.9299999999999997,0.44,-313.54,-60.0,793.64
1156,1715411591990,2.5870646766169156,-2.0076119402985073,0.42059701492537316,-303.16228855721397,-64.0326368159204,790.1414925373134
1157,1715411592000,2.5,-2.53,0.29,-183.17,-110.66000000000001,749.69
1158,1715411592010,2.5,-2.53,0.29,-183.17,-110.66,749.69
1159,1715411592020,2.5,-2.53,0.29,-183.17,-110.66,749.69
1160,1715411592030,2.5,-2.53,0.29,-183.17,-110.66,749.69
1161,1715411592040,2.445432098765432,-1.8024279835390946,-0.11925925925925926,29.330534979423867,-322.36925925925925,491.5190946502058
1162,1715411592050,2.44,-1.73,-0.16,63.9,-356.81,449.52
1163,1715411592060,2.44,-1.73,-0.16,63.9,-356.81,449.52
1164,1715411592070,2.44,-1.73,-0.16,63.9,-356.81,449.52
1165,1715411592080,3.0976000000000004,-1.4103333333333332,1.0364666666666666,-57.50833333333333,-91.00166666666667,519.0033333333333
1166,1715411592090,3.16,-1.38,1.15,-81.79,-37.84,532.9
1167,1715411592100,3.16,-1.38,1.15,-81.79,-37.84,532.9
1168,1715411592110,2.9792592592592593,-1.2422222222222221,0.9455555555555555,-88.44079365079365,-28.32650793650794,525.9920634920635
1169,1715411592120,1.94,-0.45,-0.23,-165.59000000000003,82.03,445.86
1170,1715411592130,1.94,-0.45000000000000007,-0.23000000000000004,-165.59,82.03,445.86
1171,1715411592140,1.94,-0.44999999999999996,-0.23,-165.59,82.03,445.86
1172,1715411592150,2.1460240963855424,-0.3325301204819277,-0.04927710843373495,-165.41361445783133,74.35289156626506,432.706265060241
1173,1715411592160,3.08,0.2,0.77,-163.76,2.38,309.39
1174,1715411592170,3.08,0.2,0.77,-163.76,2.38,309.39
1175,1715411592180,3.08,0.2,0.77,-163.76,2.38,309.39
1176,1715411592190,3.002052401746725,0.2962882096069869,0.7012227074235808,-127.23925764192138,44.49921397379912,218.65899563318774
1177,1715411592200,2.91,0.41,0.62,-84.11,94.24,111.51
1178,1715411592210,2.91,0.41,0.62,-84.11,94.24,111.51
1179,1715411592220,3.1339495798319326,0.27907563025210086,0.633781512605042,-79.5627731092437,86.54252100840336,93.7755462184874
1180,1715411592230,3.56,0.030000000000000002,0.66,-50.29,36.99,-20.39
1181,1715411592240,3.56,0.03,0.66,-50.29,36.99,-20.39
1182,1715411592250,3.56,0.03,0.66,-50.29,36.99,-20.39
1183,1715411592260,3.7079646017699117,-0.017079646017699117,0.6129203539823009,-1.2723008849557509,95.99884955752212,-79.9121238938053
1184,1715411592270,3.78,-0.04,0.59,60.49,170.35,-154.91
1185,1715411592280,3.78,-0.04,0.59,60.49,170.35,-154.91
1186,1715411592290,3.7800000000000002,-0.04,0.59,60.49,170.35,-154.91
1187,1715411592300,3.720508474576271,-0.5886440677966102,0.27271186440677964,134.52745762711865,97.81991525423729,-230.4613559322034
1188,1715411592310,3.69,-0.87,0.11,173.95,59.199999999999996,-270.69
1189,1715411592320,3.69,-0.87,0.11,173.95,59.2,-270.69
1190,1715411592330,3.6633684210526316,-0.846842105263158,0.13199999999999998,173.95,59.2,-270.69
1191,1715411592340,3.23,-0.47,0.49,62.74624060150376,126.9172932330827,-302.3103007518797
1192,1715411592350,3.23,-0.47,0.49,60.18,128.48,-303.04
1193,1715411592360,3.2299999999999995,-0.47,0.49000000000000005,60.17999999999999,128.48,-303.04
1194,1715411592370,3.112089552238806,-0.4759701492537314,0.481044776119403,60.18,128.48,-303.04
1195,1715411592380,2.44,-0.51,0.43,135.51825,113.66,-389.62975
1196,1715411592390,2.44,-0.51,0.43,137.45,113.28,-391.85
1197,1715411592400,2.44,-0.51,0.43,137.45,113.28,-391.85
1198,1715411592410,2.433333333333333,-0.5106060606060606,0.4306060606060606,137.45,113.28,-391.85
1199,1715411592420,1.89,-0.56,0.48,176.5675572519084,84.77580152671756,-433.8557251908397
1200,1715411592430,1.89,-0.56,0.48,182.01,80.81,-439.69999999999993
1201,1715411592440,1.8899999999999997,-0.56,0.48,182.01,80.81,-439.7
1202,1715411592450,1.9026315789473685,-0.5978947368421053,0.48505263157894735,175.01842105263157,92.87526315789474,-447.46
1203,1715411592460,1.94,-0.71,0.5,148.8,138.12,-476.56000000000006
1204,1715411592470,1.94,-0.71,0.5,148.8,138.12,-476.55999999999995
1205,1715411592480,1.94,-0.71,0.5,148.8,138.12,-476.55999999999995
1206,1715411592490,1.881578947368421,-0.8212781954887218,0.438796992481203,156.32616541353383,131.10676691729324,-483.43248120300757
1207,1715411592500,1.73,-1.11,0.28,204.41,86.3,-527.34
1208,1715411592510,1.7299999999999998,-1.11,0.28,204.41,86.3,-527.34
1209,1715411592520,1.73,-1.11,0.28,204.41,86.3,-527.34
1210,1715411592530,1.8698260869565217,-1.0807826086956522,0.3676521739130435,186.04060869565217,97.34417391304348,-532.1817391304348
1211,1715411592540,2.4,-0.97,0.7,116.39,139.22,-550.54
1212,1715411592550,2.4,-0.97,0.7,116.39000000000001,139.22,-550.54
1213,1715411592560,2.4,-0.97,0.7,116.39,139.22,-550.54
1214,1715411592570,2.162941176470588,-1.2496078431372548,0.4750980392156863,81.82019607843137,199.9886274509804,-562.173725490196
1215,1715411592580,2.01,-1.43,0.33,48.58,258.42,-573.36
1216,1715411592590,2.01,-1.43,0.33,48.58,258.42,-573.36
1217,1715411592600,2.01,-1.43,0.33,48.58,258.42,-573.36
1218,1715411592610,1.4168918918918918,-1.7149999999999999,0.06040540540540541,83.70797297297297,311.5909459459459,-535.1651351351352
1219,1715411592620,1.24,-1.8,-0.02,99.55,335.57,-517.94
1220,1715411592630,1.24,-1.8,-0.02,99.55,335.57,-517.94
1221,1715411592640,1.24,-1.8,-0.02,99.55,335.57,-517.94
1222,1715411592650,-2.19,-2.42,-2.31,339.26450617283956,138.29376543209878,-405.90296296296293
1223,1715411592660,-2.19,-2.42,-2.31,410.22,79.9,-372.74
1224,1715411592670,-2.19,-2.42,-2.31,410.22,79.9,-372.74
1225,1715411592680,-2.242409638554217,-2.3576506024096386,-2.2386144578313254,410.22,79.9,-372.74
1226,1715411592690,-2.77,-1.73,-1.52,78.58488888888888,-97.42666666666666,-64.79807407407407
1227,1715411592700,-2.77,-1.7299999999999998,-1.52,76.11,-98.75,-62.5
1228,1715411592710,-2.77,-1.73,-1.52,76.11,-98.75,-62.5
1229,1715411592720,-2.77,-1.73,-1.52,76.11,-98.75,-62.5
1230,1715411592730,-2.1946215139442233,-1.6704780876494023,-0.7759760956175299,-266.77589641434264,25.313505976095616,261.497609561753
1231,1715411592740,-2.19,-1.67,-0.77,-269.53,26.31,264.1
1232,1715411592750,-2.19,-1.67,-0.77,-269.53,26.31,264.1
1233,1715411592760,-1.4558252427184466,-1.8101941747572814,-0.5449514563106796,-283.44126213592233,-3.3366019417475723,319.4801941747573
1234,1715411592770,-0.2,-2.05,-0.16,-334.66,-112.49,523.38
1235,1715411592780,-0.2,-2.05,-0.16,-334.66,-112.49,523.38
1236,1715411592790,-0.2,-2.05,-0.16,-334.66,-112.49,523.38
1237,1715411592800,0.9997744360902255,-2.531127819548872,0.08360902255639097,-311.32082706766914,-168.69443609022557,646.2116541353384
1238,1715411592810,1.77,-2.84,0.24,-288.33,-224.06,767.21
1239,1715411592820,1.77,-2.84,0.24,-288.33,-224.06,767.21
1240,1715411592830,1.7699999999999998,-2.84,0.23999999999999996,-288.33,-224.05999999999997,767.2100000000002
1241,1715411592840,2.2908450704225354,-2.84,-0.02042253521126761,-189.1838028169014,-267.0635211267605,806.5691549295775
1242,1715411592850,2.63,-2.84,-0.19,-84.29,-312.56,848.21
1243,1715411592860,2.63,-2.84,-0.19,-84.29,-312.56,848.21
1244,1715411592870,2.63,-2.84,-0.19,-84.29,-312.56,848.2099999999999
1245,1715411592880,2.5986549707602338,-2.369824561403509,0.09994152046783626,-20.300233918128658,-282.72052631578947,749.8143859649123
1246,1715411592890,2.59,-2.24,0.18,10.86,-268.19,701.9
1247,1715411592900,2.59,-2.24,0.18,10.86,-268.19,701.8999999999999
1248,1715411592910,2.5627659574468082,-2.2354609929078015,0.16184397163120567,10.86,-268.19,701.9
1249,1715411592920,2.11,-2.16,-0.14,-85.58444444444444,-114.5075,658.8616666666666
1250,1715411592930,2.11,-2.16,-0.14,-101.14,-89.72,651.92
1251,1715411592940,2.11,-2.16,-0.14,-101.14,-89.72,651.92
1252,1715411592950,2.1941618497109827,-2.006705202312139,-0.10092485549132948,-89.35271676300579,-98.85387283236994,643.695260115607
1253,1715411592960,2.67,-1.14,0.12,26.31,-188.48,562.99
1254,1715411592970,2.67,-1.14,0.12,26.309999999999995,-188.47999999999996,562.99
1255,1715411592980,2.6699999999999995,-1.14,0.12,26.309999999999995,-188.47999999999996,562.99
1256,1715411592990,2.9316184971098265,-0.8998843930635837,0.06624277456647398,-60.92121387283236,-68.50890173410404,540.0391329479769
1257,1715411593000,3.4,-0.47,-0.03,-275.51,226.62,483.58
1258,1715411593010,3.4,-0.47,-0.03,-275.51,226.61999999999998,483.58000000000004
1259,1715411593020,3.4,-0.4699999999999999,-0.030000000000000002,-275.51,226.62,483.58
1260,1715411593030,3.4,-0.47000000000000003,-0.03,-275.51,226.61999999999998,483.58
1261,1715411593040,3.8210526315789473,-0.06868421052631578,0.48973684210526314,-176.04947368421054,9.948947368421054,253.0536842105263
1262,1715411593050,4.04,0.14,0.76,-124.33000000000001,-102.72,133.18
1263,1715411593060,4.04,0.14,0.76,-124.33,-102.72,133.18
1264,1715411593070,4.062232142857143,-0.47508928571428566,0.8118749999999999,-109.83749999999999,22.752142857142854,9.887500000000003
1265,1715411593080,4.07,-0.69,0.83,-100.46,103.93999999999998,-69.89
1266,1715411593090,4.07,-0.69,0.83,-100.46,103.94,-69.89
1267,1715411593100,4.07,-0.69,0.8299999999999998,-100.46,103.94,-69.89
1268,1715411593110,3.898,-0.63,0.582,-100.46,103.94,-69.89
1269,1715411593120,3.64,-0.54,0.21,-100.46,103.94,-69.89
1270,1715411593130,3.64,-0.54,0.21,-100.46,103.94000000000001,-69.89
1271,1715411593140,3.64,-0.54,0.21,-100.46,103.93999999999998,-69.89
1272,1715411593150,3.817551020408163,-0.9779591836734693,-0.034625850340136044,-29.853877551020403,132.19034013605443,-175.10278911564626
1273,1715411593160,4.09,-1.65,-0.41,78.49,175.54,-336.55
1274,1715411593170,4.09,-1.65,-0.41,78.49,175.54,-336.55
1275,1715411593180,3.727,-1.4409999999999998,-0.256,30.685249999999996,180.25016666666667,-354.6433333333334
1276,1715411593190,3.43,-1.27,-0.13,-18.74,185.12,-373.35
1277,1715411593200,3.43,-1.27,-0.13,-18.74,185.12,-373.35
1278,1715411593210,3.43,-1.27,-0.13,-18.74,185.12,-373.35
1279,1715411593220,3.43,-1.27,-0.13,-18.74,185.12,-373.35
1280,1715411593230,3.43,-1.27,-0.13,-18.74,185.12,-373.35
1281,1715411593240,3.4300000000000006,-1.27,-0.13,-18.74,185.12,-373.35
1282,1715411593250,3.43,-1.27,-0.13,-18.74,185.12,-373.35
1283,1715411593260,3.43,-1.27,-0.13,-18.74,185.12,-373.35
1284,1715411593270,3.43,-1.27,-0.13,-18.74,185.12,-373.35
1285,1715411593280,3.43,-1.27,-0.13,-18.74,185.12,-373.35
1286,1715411593290,3.43,-1.27,-0.13,-18.74,185.12,-373.35
1287,1715411593300,2.5638129496402877,-1.228705035971223,0.01302158273381295,102.92302158273382,142.57208633093526,-455.3436690647482
1288,1715411593310,1.58,-1.24,0.11,238.4,85.75,-546.26
1289,1715411593320,1.58,-1.24,0.11,238.4,85.75,-546.26
1290,1715411593330,1.58,-1.24,0.11,238.39999999999998,85.75,-546.26
1291,1715411593340,1.6268852459016394,-1.2237704918032786,0.18754098360655738,235.70409836065573,75.06377049180328,-547.2409836065574
1292,1715411593350,1.84,-1.15,0.54,223.45,26.49,-551.7
1293,1715411593360,1.8400000000000003,-1.15,0.54,223.45,26.49,-551.7
