id,timestamp,acc_x,acc_y,acc_z,gyro_x,gyro_y,gyro_z
0,1715411565880,1.18,-0.9700000000000001,-0.13,-69.52,-88.75,378.78
1,1715411565890,1.18,-0.97,-0.13,-69.52,-88.75,378.78
2,1715411565900,1.0499999999999998,-1.1481481481481481,-0.09148148148148148,-88.28666666666666,-72.2,381.27444444444444
3,1715411565910,0.9100000000000001,-1.34,-0.05,-137.08,-29.17,387.76
4,1715411565920,0.91,-1.34,-0.05,-137.08,-29.17,387.76
5,1715411565930,0.9089285714285714,-1.3358333333333332,-0.05261904761904763,-137.08,-29.17,387.76
6,1715411565940,0.82,-0.99,-0.27,-42.13070866141732,-120.00448818897638,387.14236220472435
7,1715411565950,0.82,-0.99,-0.27,-23.32,-138.0,387.02
8,1715411565960,0.82,-0.99,-0.27,-23.32,-138.0,387.02
9,1715411565970,0.82,-0.99,-0.27,-23.32,-138.0,387.02
10,1715411565980,1.4527777777777777,-0.9713888888888889,0.2045833333333333,-21.983194444444443,-124.20486111111111,374.8359722222222
11,1715411565990,1.5,-0.9699999999999999,0.24,-19.47,-98.27,351.93
12,1715411566000,1.5,-0.97,0.24,-19.47,-98.27,351.93
13,1715411566010,1.5,-0.97,0.24000000000000002,-19.47,-98.27,351.93
14,1715411566020,2.52,-1.5682692307692307,-0.33865384615384614,-51.584711538461534,-35.412499999999994,377.9714423076923
15,1715411566030,2.54,-1.58,-0.35,-57.86,-23.13,383.06
16,1715411566040,2.54,-1.58,-0.35,-57.86,-23.13,383.06
17,1715411566050,2.54,-1.58,-0.35,-57.86,-23.13,383.06
18,1715411566060,4.781909090909091,-0.8106363636363636,0.0801818181818182,-5.881363636363636,-108.99304545454544,213.00886363636363
19,1715411566070,5.25,-0.65,0.17,8.24,-132.32,166.81
20,1715411566080,5.25,-0.65,0.17,8.24,-132.32,166.81
21,1715411566090,5.25,-0.65,0.17,8.24,-132.32,166.81
22,1715411566100,4.5884873949579825,-0.8516806722689076,0.1861344537815126,-11.509075630252102,-72.8979831932773,110.76142857142858
23,1715411566110,4.429999999999999,-0.9,0.19,-82.15,139.65,-89.72
24,1715411566120,4.43,-0.9000000000000001,0.19,-82.15,139.65,-89.72
25,1715411566130,4.43,-0.9,0.19,-82.15,139.65,-89.72
26,1715411566140,3.118095238095238,-1.1170068027210887,-0.2736054421768708,-66.29857142857142,209.2287755102041,-198.58612244897958
27,1715411566150,3.1,-1.12,-0.28,-61.71000000000001,229.37,-230.1
28,1715411566160,3.1,-1.12,-0.28,-61.71,229.37,-230.1
29,1715411566170,3.1,-1.12,-0.28,-61.71,229.37,-230.1
30,1715411566180,2.5829714285714287,-0.7322285714285713,-0.03142857142857143,14.663714285714287,123.834,-350.76114285714283
31,1715411566190,2.58,-0.73,-0.03,16.91,120.73,-354.31
32,1715411566200,2.58,-0.73,-0.03,16.91,120.73,-354.31
33,1715411566210,2.5515447154471547,-0.7218699186991869,0.024878048780487806,22.16487804878049,123.63243902439025,-366.78439024390246
34,1715411566220,2.44,-0.69,0.24,60.0,144.53,-456.6
35,1715411566230,2.44,-0.69,0.24,60.0,144.53,-456.59999999999997
36,1715411566240,2.44,-0.69,0.24,60.0,144.53,-456.6
37,1715411566250,2.142156862745098,-0.8821568627450981,-0.029019607843137254,152.98313725490198,102.20098039215686,-547.8243137254902
38,1715411566260,,,,,,
39,1715411566270,2.13,-0.89,-0.04,163.09,97.6,-557.74
40,1715411566280,2.13,-0.89,-0.04,163.09,97.6,-557.74
41,1715411566290,2.1372222222222224,-1.0007407407407407,0.03222222222222222,163.09,97.6,-557.74
42,1715411566300,2.16,-1.35,0.26,129.73570815450645,130.7783261802575,-572.2395708154506
43,1715411566310,2.16,-1.35,0.26,125.18,135.31,-574.22
44,1715411566320,2.16,-1.3500000000000003,0.26,125.17999999999999,135.31,-574.22
45,1715411566330,2.097915057915058,-1.5828185328185327,0.011660231660231665,109.96378378378378,157.37756756756758,-570.2199999999999
46,1715411566340,2.08,-1.65,-0.06,102.66,167.97,-568.3
47,1715411566350,2.08,-1.65,-0.06,102.66,167.97,-568.3
48,1715411566360,2.08,-1.65,-0.06,102.66,167.97,-568.3
49,1715411566370,1.6561904761904762,-1.9212380952380952,0.10952380952380954,160.62266666666667,85.66561904761905,-552.3038095238095
50,1715411566380,1.58,-1.97,0.14,182.74,54.26,-546.2
51,1715411566390,1.58,-1.9699999999999998,0.14,182.74,54.26,-546.2
52,1715411566400,1.4460233918128655,-1.9089473684210527,0.08742690058479533,184.61643274853802,49.27783625730994,-544.9514035087719
53,1715411566410,0.79,-1.61,-0.17,211.91,-23.19,-526.79
54,1715411566420,0.7900000000000001,-1.61,-0.17,211.91,-23.19,-526.79
55,1715411566430,0.79,-1.61,-0.17,211.91,-23.19,-526.79
56,1715411566440,0.03678111587982836,-1.6535193133047212,-0.15995708154506438,187.53309012875536,-45.863905579399145,-491.4819313304721
57,1715411566450,-1.46,-1.74,-0.14,120.3,-108.4,-394.1
58,1715411566460,-1.46,-1.74,-0.14,120.3,-108.4,-394.1
59,1715411566470,-1.46,-1.74,-0.14,120.3,-108.4,-394.1
60,1715411566480,-1.7491428571428569,-1.5916571428571429,-0.19782857142857146,116.66914285714284,-103.29028571428572,-374.956
61,1715411566490,-2.61,-1.15,-0.37,56.76,-18.98,-59.08
62,1715411566500,-2.61,-1.15,-0.37,56.76,-18.98,-59.08
63,1715411566510,-2.61,-1.15,-0.37,56.76,-18.98,-59.08
64,1715411566520,-2.490735930735931,-0.8173160173160172,-0.24445887445887446,5.476666666666667,4.758181818181819,77.03333333333332
65,1715411566530,-2.42,-0.62,-0.17,-42.79,27.1,205.14
66,1715411566540,-2.42,-0.62,-0.17,-42.79,27.1,205.14
67,1715411566550,-2.42,-0.62,-0.17,-42.79,27.1,205.14
68,1715411566560,-1.0614035087719298,-0.635438596491228,-0.386140350877193,-71.59649122807018,66.68175438596491,368.04210526315785
69,1715411566570,-0.66,-0.64,-0.45,-98.45,103.58,519.9
70,1715411566580,-0.66,-0.64,-0.45000000000000007,-98.45000000000002,103.57999999999998,519.9
71,1715411566590,-0.66,-0.64,-0.45,-98.45,103.58,519.9
72,1715411566600,0.5933333333333334,-1.4044444444444446,-0.18333333333333332,-50.301587301587304,-45.10785714285714,561.3615873015873
73,1715411566610,0.75,-1.5,-0.15,-39.55,-78.31,570.62
74,1715411566620,0.75,-1.5,-0.15,-39.55,-78.31,570.62
75,1715411566630,0.75,-1.5,-0.15,-39.55,-78.31,570.62
76,1715411566640,1.6534375,-1.775625,-0.1959375,16.590416666666666,-73.326875,632.8532291666667
77,1715411566650,1.93,-1.86,-0.21,40.89,-71.17,659.79
78,1715411566660,1.93,-1.86,-0.21,40.89,-71.17,659.7899999999998
79,1715411566670,1.93,-1.8599999999999999,-0.21,40.89,-71.17,659.79
80,1715411566680,1.7487557603686636,-1.3258064516129031,0.009400921658986176,-39.60829493087557,34.12460829493087,560.67
81,1715411566690,1.74,-1.3,0.02,-57.8,57.92,538.27
82,1715411566700,1.74,-1.3,0.02,-57.8,57.92,538.27
83,1715411566710,1.591010101010101,-1.3732323232323234,0.06292929292929293,-62.4560606060606,60.75484848484849,536.2306060606061
84,1715411566720,1.15,-1.59,0.19,-119.26,95.34,511.35
85,1715411566730,1.15,-1.59,0.19,-119.26,95.34,511.35
86,1715411566740,1.15,-1.59,0.19,-119.26,95.34,511.35
87,1715411566750,1.15,-1.4860000000000002,0.09,-116.37728571428572,83.0065,507.8674285714286
88,1715411566760,1.15,-1.07,-0.31,-95.52,-6.23,482.66999999999996
89,1715411566770,1.15,-1.07,-0.31,-95.52,-6.23,482.67
90,1715411566780,1.15,-1.07,-0.31,-95.52,-6.23,482.66999999999996
91,1715411566790,1.4910526315789474,-1.2486466165413532,-0.01766917293233082,-106.44857142857143,-56.75834586466165,449.45864661654133
92,1715411566800,1.78,-1.4,0.23000000000000004,-124.02000000000001,-138.0,396.06
93,1715411566810,1.7799999999999998,-1.3999999999999997,0.23,-124.02,-138.0,396.06
94,1715411566820,1.78,-1.4,0.23,-124.02,-138.0,396.06
95,1715411566830,2.5770666666666666,-0.616,0.15813333333333332,-72.833,-90.26966666666667,372.43566666666663
96,1715411566840,3.0,-0.2,0.12,-33.69,-53.77,354.37
97,1715411566850,3.0,-0.2,0.12,-33.69,-53.77,354.37
98,1715411566860,3.0787368421052634,-0.23705263157894738,0.07484210526315789,-33.69,-53.77,354.37
99,1715411566870,3.68,-0.52,-0.27,-39.153225806451616,-39.16215053763441,157.70172043010754
100,1715411566880,3.68,-0.52,-0.27,-40.65,-35.16,103.82
101,1715411566890,3.68,-0.52,-0.27,-40.65,-35.16,103.82
102,1715411566900,3.762232558139535,-0.4931162790697674,-0.17353488372093023,-41.37837209302326,-29.198372093023256,89.92511627906975
103,1715411566910,4.2,-0.35,0.34,-51.09,50.29,-95.34
104,1715411566920,4.2,-0.3499999999999999,0.34,-51.09,50.29,-95.34
105,1715411566930,4.2,-0.35,0.34,-51.09,50.29,-95.34
106,1715411566940,4.2,-0.35,0.34,-51.09,50.29,-95.34
107,1715411566950,3.7027932960893857,-1.3643016759776536,-0.3163128491620112,-30.173128491620115,183.82631284916198,-251.8546368715084
108,1715411566960,3.7,-1.37,-0.32,-28.26,196.04,-266.17
109,1715411566970,3.7,-1.37,-0.32,-28.26,196.04,-266.17
110,1715411566980,3.624615384615385,-1.3376923076923077,-0.33974358974358976,-25.494102564102565,196.8073076923077,-272.4475641025641
111,1715411566990,3.28,-1.19,-0.43,2.56,204.59,-336.12
112,1715411567000,3.28,-1.19,-0.43,2.56,204.59,-336.12
113,1715411567010,3.28,-1.19,-0.42999999999999994,2.5600000000000005,204.59000000000003,-336.12
114,1715411567020,3.233165467625899,-1.1748920863309353,-0.4023021582733813,2.5323741007194243,204.74805755395684,-336.2407913669065
115,1715411567030,2.35,-0.89,0.12,-1.28,226.56,-352.9100000000001
116,1715411567040,2.35,-0.89,0.12,-1.28,226.56,-352.91
117,1715411567050,2.35,-0.89,0.11999999999999998,-1.28,226.56,-352.91
118,1715411567060,2.1923417721518987,-0.7977848101265823,0.10215189873417722,39.48240506329113,201.77240506329113,-369.11481012658226
119,1715411567070,1.82,-0.58,0.06,138.73,141.42,-408.57
120,1715411567080,1.8200000000000003,-0.58,0.06,138.73,141.42,-408.56999999999994
121,1715411567090,1.82,-0.58,0.06,138.73,141.42,-408.57
122,1715411567100,1.8092105263157894,-0.7580263157894737,0.27578947368421053,158.96381578947367,128.67315789473685,-458.77736842105264
123,1715411567110,1.8,-0.91,0.46,178.16,116.58,-506.41
124,1715411567120,1.8,-0.91,0.4600000000000001,178.16,116.58,-506.40999999999997
125,1715411567130,1.8,-0.91,0.46,178.16,116.58,-506.4100000000001
126,1715411567140,1.771782945736434,-0.9447286821705426,0.4263565891472868,178.16,116.58,-506.41
127,1715411567150,1.54,-1.23,0.15,162.5442105263158,222.38864661654134,-496.64796992481206
128,1715411567160,1.54,-1.23,0.15,160.1,238.94999999999996,-495.12
129,1715411567170,1.54,-1.23,0.15,160.1,238.95000000000002,-495.12
130,1715411567180,1.4416447368421053,-1.2526973684210525,0.15,207.7157894736842,175.22802631578946,-492.2730921052631
131,1715411567190,1.41,-1.26,0.15,226.5,150.09,-491.15
132,1715411567200,1.41,-1.26,0.15,226.5,150.09,-491.15
133,1715411567210,1.3900000000000001,-1.27,0.15714285714285717,226.5,150.09,-491.15
134,1715411567220,1.27,-1.33,0.2,203.98,101.56,-502.26
135,1715411567230,1.27,-1.33,0.2,203.98,101.56,-502.26
136,1715411567240,1.27,-1.33,0.2,203.98,101.56,-502.26
137,1715411567250,0.6863636363636364,-1.1281818181818182,0.05818181818181819,226.74434343434342,54.22616161616162,-498.1974747474747
138,1715411567260,0.2,-0.9600000000000001,-0.060000000000000005,264.89,-25.09,-491.38999999999993
139,1715411567270,0.2,-0.96,-0.06,264.89,-25.09,-491.39
140,1715411567280,0.10134529147982065,-0.9811659192825112,-0.09121076233183857,264.89,-25.09,-491.39
141,1715411567290,-2.55,-1.55,-0.93,184.2599212598425,-108.11992125984251,-398.75299212598424
142,1715411567300,-2.55,-1.55,-0.93,160.4,-132.69,-371.34
143,1715411567310,-2.55,-1.55,-0.93,160.4,-132.69,-371.34
144,1715411567320,-2.55,-1.55,-0.93,160.4,-132.69,-371.34
145,1715411567330,-2.9801886792452827,-1.951509433962264,-1.159433962264151,180.64603773584906,-273.45,-163.74113207547168
146,1715411567340,-3.15,-2.11,-1.25,191.96,-352.11,-47.730000000000004
147,1715411567350,-3.15,-2.11,-1.25,191.96,-352.11,-47.73
148,1715411567360,-3.15,-2.11,-1.25,191.96,-352.11,-47.73
149,1715411567370,-1.5777542372881357,-1.6421610169491525,-0.18394067796610167,138.5986440677966,-260.25813559322035,206.14220338983048
150,1715411567380,-1.1,-1.5,0.14,117.0,-223.08,308.9
151,1715411567390,-1.1,-1.5,0.14,117.0,-223.08000000000004,308.9
152,1715411567400,-1.1,-1.5,0.14,117.0,-223.08,308.9
153,1715411567410,1.0397959183673469,-1.3478367346938778,-0.05971428571428572,103.18591836734696,22.02489795918367,558.1279999999999
154,1715411567420,1.15,-1.34,-0.07,100.65,67.02,603.88
155,1715411567430,1.15,-1.34,-0.07,100.65,67.02,603.88
156,1715411567440,1.15,-1.34,-0.07,100.65,67.02,603.88
157,1715411567450,1.54017094017094,-1.307094017094017,-0.25803418803418804,103.65384615384616,63.443076923076916,603.1992307692308
158,1715411567460,1.98,-1.27,-0.47,124.08,39.12,598.57
159,1715411567470,1.98,-1.27,-0.47,124.08,39.12,598.57
160,1715411567480,2.1538636363636363,-1.27,-0.41590909090909095,120.48886363636365,43.835454545454546,603.4184090909092
161,1715411567490,2.88,-1.27,-0.19,71.41,108.28,669.68
162,1715411567500,2.88,-1.27,-0.19,71.41,108.28,669.68
163,1715411567510,2.88,-1.27,-0.19,71.41,108.28,669.68
164,1715411567520,2.526989247311828,-1.1979569892473119,-0.21161290322580645,26.548924731182794,119.45505376344086,641.612258064516
165,1715411567530,1.9,-1.07,-0.25,-118.23,155.52,551.03
166,1715411567540,1.9,-1.07,-0.25,-118.23,155.52,551.03
167,1715411567550,1.9,-1.07,-0.25,-118.22999999999999,155.52,551.03
168,1715411567560,2.032063492063492,-1.378148148148148,-0.11793650793650794,-28.8225925925926,9.594338624338635,535.5995767195767
169,1715411567570,2.14,-1.63,-0.01,80.57,-168.95,516.72
170,1715411567580,2.14,-1.63,-0.01,80.57,-168.95,516.72
171,1715411567590,2.14,-1.63,-0.01,80.57,-168.95,516.72
172,1715411567600,2.123235294117647,-0.5458823529411765,0.27499999999999997,94.98720588235292,-95.97852941176471,488.58441176470586
173,1715411567610,2.11,0.31,0.5,116.88000000000001,14.83,445.86
174,1715411567620,2.11,0.31,0.5,116.88,14.83,445.86
175,1715411567630,2.11,0.31,0.5,116.88,14.83,445.86
176,1715411567640,1.9219502074688797,-0.3396265560165975,0.15809128630705394,-51.5296265560166,125.45904564315352,310.16572614107884
177,1715411567650,1.89,-0.45,0.10000000000000002,-103.7,159.73,268.13
178,1715411567660,1.8900000000000001,-0.45,0.1,-103.7,159.73,268.13
179,1715411567670,1.8900000000000001,-0.45,0.09999999999999999,-103.7,159.73,268.13
180,1715411567680,2.66187969924812,0.14443609022556392,-0.3524812030075188,-49.90766917293233,157.12789473684208,221.95037593984964
181,1715411567690,2.76,0.22,-0.41,-34.24,156.37,208.5
182,1715411567700,2.76,0.22,-0.41,-34.24,156.37,208.5
183,1715411567710,2.7696202531645566,0.21955696202531644,-0.40873417721518984,-34.24,156.37,208.5
184,1715411567720,4.28,0.15,-0.21,-32.8072972972973,-88.47135135135136,24.30135135135135
185,1715411567730,4.28,0.15,-0.21,-32.53,-135.86,-11.35
186,1715411567740,4.28,0.15,-0.21,-32.53,-135.86,-11.35
187,1715411567750,4.28,0.15,-0.21,-32.53,-135.86,-11.35
188,1715411567760,4.371228070175439,-0.23201754385964915,0.11499999999999999,-22.124298245614035,41.65842105263157,-109.9048245614035
189,1715411567770,4.44,-0.52,0.36,-14.280000000000001,175.48,-184.2
190,1715411567780,4.44,-0.52,0.36,-14.28,175.48,-184.2
191,1715411567790,4.09562874251497,-0.5830538922155689,0.10778443113772455,18.515209580838324,151.45365269461078,-229.5868263473054
192,1715411567800,3.73,-0.65,-0.16,63.96,118.16,-292.48
193,1715411567810,3.73,-0.65,-0.16,63.96,118.16,-292.48
194,1715411567820,3.73,-0.65,-0.16,63.96,118.16,-292.48
195,1715411567830,3.2513114754098362,-0.5975409836065574,0.21377049180327867,83.01546448087431,123.56655737704918,-356.924043715847
196,1715411567840,3.0,-0.57,0.41,99.91,128.36,-414.05999999999995
197,1715411567850,3.0,-0.57,0.41,99.91,128.36,-414.06
198,1715411567860,3.0,-0.57,0.41,99.91,128.36,-414.06
199,1715411567870,2.574351145038168,-0.501145038167939,0.1846564885496183,88.8863358778626,163.80885496183205,-446.70885496183206
200,1715411567880,2.32,-0.45999999999999996,0.05,79.28,194.7,-475.16
201,1715411567890,2.32,-0.46,0.05,79.28,194.7,-475.16
202,1715411567900,2.32,-0.46,0.05,79.28,194.7,-475.16
203,1715411567910,1.7484536082474227,-0.9449484536082474,0.14525773195876288,118.020206185567,163.1041237113402,-506.30432989690723
204,1715411567920,1.66,-1.02,0.16,141.91,143.62,-525.51
205,1715411567930,1.66,-1.02,0.16,141.91,143.62,-525.51
206,1715411567940,1.6656976744186047,-1.0171511627906975,0.1616279069767442,141.91,143.62,-525.51
207,1715411567950,1.8,-0.95,0.2,87.6744094488189,158.6631496062992,-518.4183464566929
208,1715411567960,1.7999999999999998,-0.9499999999999998,0.2,75.68,161.99,-516.85
209,1715411567970,1.8,-0.9499999999999998,0.2,75.68,161.99,-516.85
210,1715411567980,1.803101851851852,-1.1919444444444443,0.22481481481481483,76.90708333333333,161.00833333333335,-518.0842592592593
211,1715411567990,1.81,-1.7299999999999998,0.28,84.23,155.15,-525.45
212,1715411568000,1.81,-1.73,0.28,84.23,155.15,-525.45
213,1715411568010,1.81,-1.73,0.28,84.23,155.15,-525.45
214,1715411568020,1.6366666666666667,-1.63,0.10666666666666667,120.19746666666666,149.03453333333334,-521.3292
215,1715411568030,1.55,-1.58,0.02,163.57,141.66,-516.36
216,1715411568040,1.55,-1.58,0.02,163.57,141.66,-516.36
217,1715411568050,1.55,-1.5799999999999998,0.02,163.57,141.66,-516.36
218,1715411568060,1.55,-1.58,0.02,163.57,141.66,-516.36
219,1715411568070,0.9538333333333333,-1.5065,0.14250000000000002,222.78041666666664,43.188833333333335,-512.8518333333334
220,1715411568080,0.82,-1.49,0.17,236.81999999999996,19.84,-512.02
221,1715411568090,0.3828629032258064,-1.5780241935483872,0.022298387096774213,235.12745967741935,12.511370967741936,-500.090564516129
222,1715411568100,-2.11,-2.08,-0.82,220.03,-52.86,-393.68
223,1715411568110,-2.11,-2.08,-0.82,220.03,-52.86,-393.68
224,1715411568120,-2.11,-2.08,-0.82,220.03,-52.86,-393.68
225,1715411568130,-2.11,-2.08,-0.82,220.03,-52.86,-393.68
226,1715411568140,-2.790904761904762,-1.855904761904762,-0.6562380952380953,131.88833333333332,-89.52666666666666,-115.96333333333332
227,1715411568150,-2.9,-1.82,-0.63,114.26,-96.86,-60.42
228,1715411568160,-2.9,-1.8199999999999998,-0.63,114.26,-96.86,-60.419999999999995
229,1715411568170,-2.9,-1.82,-0.63,114.26,-96.86,-60.42000000000001
230,1715411568180,-2.187832167832168,-1.2296503496503497,-0.5456643356643357,12.462447552447554,-39.53167832167832,219.91678321678322
231,1715411568190,-2.14,-1.19,-0.54,-4.09,-30.21,265.5
232,1715411568200,-2.14,-1.19,-0.54,-4.09,-30.21,265.5
233,1715411568210,-1.8270796460176992,-1.174424778761062,-0.44796460176991154,-4.09,-30.21,265.5
234,1715411568220,0.07,-1.08,0.11,-14.65,-38.57,511.84
235,1715411568230,0.07,-1.08,0.11,-14.65,-38.57,511.84
236,1715411568240,0.07,-1.08,0.11,-14.65,-38.57,511.84
237,1715411568250,1.2627272727272727,-1.1309090909090909,-0.30454545454545456,-45.994,1.8579999999999992,619.87
238,1715411568260,1.71,-1.15,-0.46,-66.89,28.81,691.89
239,1715411568270,1.71,-1.15,-0.46,-66.89,28.81,691.89
240,1715411568280,1.71,-1.15,-0.46,-66.89,28.81,691.89
241,1715411568290,2.099830508474576,-1.725,0.12474576271186441,-20.421525423728813,-7.17627118644068,683.8588983050848
242,1715411568300,2.11,-1.74,0.14,-7.93,-16.85,681.7
243,1715411568310,2.11,-1.74,0.14,-7.929999999999999,-16.85,681.7
244,1715411568320,2.11,-1.74,0.14,-7.93,-16.85,681.7
245,1715411568330,2.365081081081081,-0.5728108108108108,-0.3005945945945946,-20.273783783783784,43.7927027027027,623.4178378378379
246,1715411568340,2.44,-0.23,-0.43,-28.69,85.14,583.68
247,1715411568350,2.4400000000000004,-0.23,-0.43000000000000005,-28.69,85.14,583.68
248,1715411568360,2.44,-0.23,-0.43,-28.69,85.14,583.68
249,1715411568370,2.269230769230769,-0.43461538461538457,-0.4223076923076923,-31.954743589743593,79.94032051282052,578.5466666666666
250,1715411568380,1.33,-1.5599999999999998,-0.38,-130.55,-77.09,423.52
251,1715411568390,1.33,-1.56,-0.38,-130.55,-77.09,423.52
252,1715411568400,1.5875916230366494,-1.435497382198953,-0.15890052356020942,-123.101832460733,-78.11094240837697,429.92916230366495
253,1715411568410,2.53,-0.9799999999999999,0.65,-35.71,-90.09,505.13000000000005
254,1715411568420,2.5300000000000002,-0.98,0.6500000000000001,-35.71,-90.09,505.13
255,1715411568430,2.53,-0.98,0.65,-35.71,-90.09,505.13000000000005
256,1715411568440,2.4500819672131144,-0.8361475409836066,0.5807377049180329,-35.71,-90.09,505.13
257,1715411568450,1.78,0.37,-48.16809128630705,-60.124854771784236,361.67771784232366
258,1715411568460,1.78,0.37,-48.22,-60.0,361.08
259,1715411568470,1.78,0.37,-48.22,-60.0,361.08
260,1715411568480,2.0727659574468085,0.22361702127659575,0.31319148936170216,-62.52553191489362,-24.73531914893617,344.4536170212766
261,1715411568490,2.64,-0.06,0.92,-104.25,78.12,295.96
262,1715411568500,2.64,-0.06,0.92,-104.25,78.12,295.96
263,1715411568510,2.64,-0.06,0.92,-104.25,78.12,295.96
264,1715411568520,3.0227848101265824,0.23164556962025318,-0.1736708860759494,-51.64493670886076,23.857974683544306,167.24607594936708
265,1715411568530,3.06,0.26,-0.28,-28.69,0.18,111.08
266,1715411568540,3.06,0.26,-0.28,-28.69,0.18,111.08
267,1715411568550,3.1493333333333333,0.2346666666666667,-0.19133333333333336,-28.64046153846154,0.24635897435897436,108.93846153846154
268,1715411568560,4.4,-0.12,1.05,-23.86,6.650000000000001,-97.72
269,1715411568570,4.4,-0.12,1.05,-23.860000000000003,6.650000000000001,-97.72
270,1715411568580,4.4,-0.12,1.05,-23.86,6.65,-97.72
271,1715411568590,4.4,-0.12,1.05,-23.86,6.65,-97.72
272,1715411568600,3.9571641791044776,-0.6077611940298507,0.35044776119402987,28.85119402985075,132.57701492537313,-138.7734328358209
273,1715411568610,3.71,-0.8800000000000001,-0.04,71.59,234.68,-172.06
274,1715411568620,3.71,-0.88,-0.04,71.59,234.68,-172.06
275,1715411568630,3.7100000000000004,-0.88,-0.04,71.59,234.68,-172.06
276,1715411568640,3.3694594594594593,-0.6172972972972973,0.2227027027027027,70.96851351351351,96.25027027027026,-274.9968918918919
277,1715411568650,3.36,-0.61,0.23,70.86,72.08,-292.97
278,1715411568660,3.36,-0.61,0.23,70.86,72.08,-292.97
279,1715411568670,3.36,-0.61,0.23,70.86,72.08,-292.97
280,1715411568680,2.8040769230769227,-0.5313846153846153,0.3591538461538462,57.89923076923077,115.29892307692307,-314.2649230769231
281,1715411568690,2.37,-0.47,0.46,41.81,168.95,-340.7
282,1715411568700,2.37,-0.47,0.46,41.81,168.95,-340.7
283,1715411568710,2.076831683168317,-0.4095049504950495,0.2831683168316832,55.24445544554456,159.8458415841584,-352.5015841584158
284,1715411568720,1.74,-0.34,0.08,138.73,103.27,-425.84
285,1715411568730,1.74,-0.34,0.08,138.73,103.27,-425.84
286,1715411568740,1.74,-0.34,0.08,138.73,103.27,-425.84
287,1715411568750,1.6268571428571428,-0.5662857142857143,0.3,159.89285714285714,83.36285714285714,-462.69714285714286
288,1715411568760,1.56,-0.7,0.43000000000000005,188.10999999999999,56.82,-511.84
289,1715411568770,1.56,-0.7,0.43,188.11,56.82,-511.84
290,1715411568780,1.56,-0.7,0.43,188.11,56.81999999999999,-511.84
291,1715411568790,1.5744,-0.79792,0.36376,166.96504000000002,93.59472,-507.32127999999994
292,1715411568800,1.61,-1.04,0.2,114.69,184.51,-496.15
293,1715411568810,1.61,-1.04,0.2,114.69,184.51,-496.15
294,1715411568820,1.61,-1.04,0.2,114.69,184.51,-496.15
295,1715411568830,1.4449999999999998,-1.2835714285714286,0.2392857142857143,129.1172268907563,186.30621848739494,-486.5510084033613
296,1715411568840,1.4,-1.35,0.25,134.77,187.01,-482.79
297,1715411568850,1.4,-1.35,0.25,134.77,187.01,-482.79
298,1715411568860,1.4,-1.35,0.25,134.77,187.01,-482.79
299,1715411568870,1.3046666666666666,-1.168,0.18066666666666667,114.76981818181818,180.85454545454544,-453.59363636363634
300,1715411568880,1.29,-1.14,0.17,105.04,177.86,-439.38999999999993
301,1715411568890,1.29,-1.14,0.17,105.04,177.86,-439.39
302,1715411568900,1.2485000000000002,-1.1344999999999998,0.15750000000000003,105.04,177.86,-439.39
303,1715411568910,0.46,-1.03,-0.08,189.2118253968254,80.32055555555557,-426.905873015873
304,1715411568920,0.46,-1.03,-0.08,192.69,76.29,-426.39000000000004
305,1715411568930,0.46,-1.03,-0.08,192.69,76.29,-426.39
306,1715411568940,-0.15122302158273382,-0.9643884892086332,-0.259568345323741,202.26741007194244,68.5205035971223,-418.5459712230216
307,1715411568950,-1.31,-0.84,-0.6,287.78,-0.85,-348.51
308,1715411568960,-1.31,-0.84,-0.6,287.78,-0.85,-348.51
309,1715411568970,-1.31,-0.84,-0.6,287.78,-0.85,-348.51
310,1715411568980,-1.3255113636363638,-0.8408522727272726,-0.598125,287.78,-0.85,-348.51
311,1715411568990,-2.22,-0.89,-0.49,206.74038461538458,-113.7003846153846,-193.71115384615385
312,1715411569000,-2.2200000000000006,-0.89,-0.49,196.16999999999996,-128.42,-173.52
313,1715411569010,-2.22,-0.89,-0.49,196.17000000000002,-128.42,-173.52
314,1715411569020,-2.422780269058296,-0.6454708520179372,-0.5734977578475337,59.17035874439461,-34.600448430493266,-22.902062780269063
315,1715411569030,-2.56,-0.48,-0.63,-67.2,51.94,116.03
316,1715411569040,-2.56,-0.4799999999999999,-0.63,-67.2,51.94,116.03
317,1715411569050,-2.56,-0.4799999999999999,-0.63,-67.2,51.93999999999999,116.03
318,1715411569060,-1.4474766355140187,-0.47102803738317756,-0.441588785046729,-65.15158878504673,7.582056074766355,260.31542056074767
319,1715411569070,-1.32,-0.47,-0.42,-64.39,-8.91,313.96
320,1715411569080,-1.32,-0.47000000000000003,-0.41999999999999993,-64.39,-8.91,313.96
321,1715411569090,-1.32,-0.47,-0.42,-64.39,-8.91,313.96
322,1715411569100,0.03960474308300394,-0.8214624505928854,-0.14252964426877468,-60.77822134387352,-22.43513833992095,469.9262450592886
323,1715411569110,0.15,-0.85,-0.12,-60.12,-24.9,498.35
324,1715411569120,0.15,-0.85,-0.12,-60.12,-24.9,498.35
325,1715411569130,0.2875,-0.86875,-0.13499999999999998,-60.11999999999999,-24.9,498.35
326,1715411569140,1.25,-1.0,-0.24,-47.697913043478266,-35.06008695652174,539.4896521739131
327,1715411569150,1.25,-1.0,-0.24,-43.7,-38.33,552.73
328,1715411569160,1.25,-1.0,-0.24,-43.7,-38.33,552.73
329,1715411569170,1.271496062992126,-1.0181889763779528,-0.21905511811023623,-44.74283464566929,-35.84031496062992,554.3179527559056
330,1715411569180,1.64,-1.33,0.14,-62.62,6.84,581.54
331,1715411569190,1.64,-1.3300000000000003,0.14,-62.62,6.84,581.5399999999998
332,1715411569200,1.64,-1.33,0.14,-62.61999999999999,6.84,581.54
333,1715411569210,1.6070748299319726,-1.1085034013605444,0.09210884353741497,-69.84068027210884,22.25986394557823,570.0214965986394
334,1715411569220,1.53,-0.59,-0.02,-96.86,79.96,526.92
335,1715411569230,1.53,-0.59,-0.02,-96.86,79.96,526.92
336,1715411569240,1.53,-0.59,-0.02,-96.86,79.96,526.92
337,1715411569250,0.9272413793103449,-0.7406896551724138,-0.15482758620689657,-129.47094827586207,17.80543103448276,406.97258620689655
338,1715411569260,0.77,-0.78,-0.19,-138.43,0.73,374.02
339,1715411569270,0.77,-0.78,-0.19,-138.43,0.73,374.02000000000004
340,1715411569280,0.77,-0.78,-0.19,-138.43,0.73,374.02000000000004
341,1715411569290,1.09,-0.92,0.26,-138.43,0.73,374.0199999999999
342,1715411569300,1.09,-0.92,0.26,-36.943072289156625,-121.17228915662649,355.4019277108434
343,1715411569310,1.09,-0.9200000000000002,0.26,-28.32,-131.53,353.82
344,1715411569320,1.09,-0.9199999999999999,0.26,-28.319999999999997,-131.53,353.82
345,1715411569330,1.604851485148515,-0.15762376237623762,0.26,-86.76222772277228,-68.93856435643565,313.0164356435643
346,1715411569340,1.61,-0.15,0.26,-92.83,-62.43999999999999,308.78
347,1715411569350,1.61,-0.15,0.26,-92.83,-62.44,308.78
348,1715411569360,1.7964864864864865,-0.13581081081081078,0.34716216216216217,-92.83,-62.43999999999999,308.78
349,1715411569370,3.45,-0.01,1.12,-194.52929411764708,147.52047058823533,331.5192941176471
350,1715411569380,3.45,-0.01,1.12,-195.74,150.02,331.79
351,1715411569390,3.45,-0.01,1.12,-195.74,150.02,331.79
352,1715411569400,3.5620454545454545,0.00030303030303030373,1.0684848484848486,-194.82454545454544,147.25878787878787,324.70606060606065
353,1715411569410,4.32,0.07,0.72,-165.53,58.9,98.02
354,1715411569420,4.32,0.07,0.72,-165.53,58.89999999999999,98.02
355,1715411569430,4.32,0.07,0.7200000000000001,-165.53,58.9,98.01999999999998
356,1715411569440,4.605714285714286,-0.1242857142857143,1.1428571428571428,-87.86428571428571,65.44,-8.312857142857146
357,1715411569450,4.82,-0.27,1.46,15.69,74.16,-150.09
358,1715411569460,4.82,-0.27,1.46,15.69,74.16,-150.09
359,1715411569470,4.82,-0.27,1.4599999999999997,15.69,74.16,-150.09
360,1715411569480,4.061610169491526,-0.2893220338983051,0.9189830508474576,22.397457627118644,108.33855932203389,-185.26432203389834
361,1715411569490,3.25,-0.31,0.34,32.53,159.97,-238.39999999999998
362,1715411569500,3.25,-0.31,0.34,32.53,159.97,-238.4
363,1715411569510,3.25,-0.31,0.34,32.53,159.97,-238.4
364,1715411569520,2.8926666666666665,-0.26037037037037036,0.5385185185185185,67.06792592592592,129.05385185185185,-292.7094814814815
365,1715411569530,2.53,-0.21,0.74,112.92,88.01,-364.81
366,1715411569540,2.53,-0.21,0.74,112.92,88.01,-364.81
367,1715411569550,2.53,-0.21,0.74,112.92,88.01,-364.81
368,1715411569560,2.1092156862745095,-0.13745098039215686,0.5876470588235294,92.7335294117647,150.04039215686277,-376.23745098039217
369,1715411569570,1.95,-0.11,0.53,79.71,190.06,-383.61
370,1715411569580,1.95,-0.11,0.53,79.71,190.06,-383.61
371,1715411569590,1.95,-0.11,0.53,79.71,190.06,-383.61
372,1715411569600,1.4579577464788733,-0.7853521126760564,0.30809859154929575,189.0012676056338,160.32521126760562,-479.5292957746479
373,1715411569610,1.44,-0.81,0.3,192.99,159.24,-483.03
374,1715411569620,1.4399999999999997,-0.81,0.3,192.99,159.24,-483.03
375,1715411569630,1.4071875,-0.8551171875000001,0.2958984375,204.21687500000002,158.738125,-474.5771875
376,1715411569640,1.36,-0.92,0.29,225.65,157.78,-458.44
377,1715411569650,1.36,-0.92,0.29,225.65,157.78,-458.44
378,1715411569660,1.36,-0.92,0.29,225.65,157.78,-458.44
379,1715411569670,1.3610852713178296,-0.9224806201550387,0.2903100775193798,225.65,157.78,-458.44
380,1715411569680,1.43,-1.08,0.31,162.0196017699115,171.92008849557524,-477.94862831858404
381,1715411569690,1.43,-1.08,0.31,160.58,172.24,-478.39000000000004
382,1715411569700,1.43,-1.08,0.31,160.57999999999998,172.23999999999998,-478.39
383,1715411569710,1.384296875,-1.101328125,0.27953125,154.71312500000002,176.26609375,-471.75203125
384,1715411569720,1.28,-1.15,0.21,124.82,196.78,-437.93
385,1715411569730,1.28,-1.15,0.21,124.82,196.78,-437.93
386,1715411569740,1.28,-1.15,0.21,124.82,196.78,-437.93
387,1715411569750,0.7265,-1.123,-0.006000000000000003,166.402,144.8195,-445.478
388,1715411569760,0.46,-1.11,-0.11,222.66,74.52,-455.69
389,1715411569770,0.46,-1.11,-0.11000000000000001,222.65999999999997,74.52,-455.68999999999994
390,1715411569780,0.46,-1.11,-0.10999999999999999,222.66000000000003,74.52,-455.69000000000005
391,1715411569790,-0.9345217391304348,-1.041304347826087,-0.5908695652173913,251.2260869565217,47.14086956521739,-409.5082608695652
392,1715411569800,-1.57,-1.01,-0.81,269.59,29.54,-379.82
393,1715411569810,-1.5700000000000003,-1.01,-0.8099999999999999,269.59,29.54,-379.82000000000005
394,1715411569820,-1.57,-1.01,-0.81,269.59,29.54,-379.82
395,1715411569830,-2.36625,-0.8962500000000001,-1.175625,162.67392045454542,-148.1941477272727,-212.1493181818182
396,1715411569840,-2.55,-0.87,-1.26,123.71999999999998,-212.95,-151.06
397,1715411569850,-2.55,-0.8699999999999999,-1.26,123.72,-212.95000000000002,-151.06
398,1715411569860,-2.53468085106383,-0.8487234042553191,-1.1953191489361703,123.72,-212.95,-151.06
399,1715411569870,-2.37,-0.62,-0.5,-70.31,-41.5,120.61
400,1715411569880,-2.37,-0.62,-0.5,-70.31,-41.5,120.61
401,1715411569890,-2.37,-0.62,-0.5,-70.31,-41.5,120.61
402,1715411569900,-2.298979591836735,-0.6160816326530613,-0.4789387755102041,-69.21579591836735,-39.68873469387755,133.40787755102042
403,1715411569910,-0.92,-0.54,-0.07,-47.97,-4.52,381.9
404,1715411569920,-0.92,-0.54,-0.07,-47.970000000000006,-4.52,381.9
405,1715411569930,-0.9199999999999999,-0.54,-0.07,-47.97,-4.52,381.9
406,1715411569940,-0.7933766233766234,-0.5711688311688312,-0.0777922077922078,-47.97,-4.52,381.9
407,1715411569950,0.38,-0.86,-0.15,-34.78253968253968,-33.94277777777778,527.7389682539682
408,1715411569960,0.38,-0.86,-0.14999999999999997,-34.73,-34.06,528.32
409,1715411569970,0.38000000000000006,-0.86,-0.15,-34.73,-34.06,528.32
410,1715411569980,0.7291379310344828,-1.0306896551724138,-0.08793103448275862,-30.206551724137928,-30.56844827586207,541.5717241379311
411,1715411569990,1.28,-1.3,0.01,2.75,-5.13,638.12
412,1715411570000,1.28,-1.3,0.01,2.75,-5.13,638.12
413,1715411570010,1.28,-1.3,0.01,2.75,-5.13,638.12
414,1715411570020,1.506417910447761,-0.9695522388059703,-0.16746268656716418,-6.267910447761194,2.036119402985075,614.5628358208955
415,1715411570030,1.65,-0.76,-0.28,-29.05,20.14,555.05
416,1715411570040,1.6500000000000001,-0.76,-0.28,-29.05,20.14,555.05
417,1715411570050,1.65,-0.76,-0.28,-29.05,20.14,555.05
418,1715411570060,1.2221830985915492,-1.054718309859155,0.11929577464788733,-172.99281690140845,8.498450704225352,461.0842253521127
419,1715411570070,1.2,-1.07,0.14,-196.59,6.59,445.68
420,1715411570080,1.2,-1.07,0.14,-196.59,6.59,445.67999999999995
421,1715411570090,1.1380104712041883,-1.0968062827225131,0.13162303664921465,-196.59,6.59,445.68
422,1715411570100,0.83,-1.23,0.09,-178.3068181818182,17.817272727272726,444.78181818181815
423,1715411570110,0.83,-1.23,0.09,-175.42,19.589999999999996,444.64
424,1715411570120,0.83,-1.23,0.09,-175.42,19.59,444.64
425,1715411570130,0.8621787709497206,-1.176368715083799,0.07659217877094972,-173.30240223463684,16.162122905027932,443.78592178770947
426,1715411570140,1.19,-0.63,-0.06,-49.07,-184.94,393.68
427,1715411570150,1.19,-0.63,-0.06,-49.07,-184.94,393.68
428,1715411570160,1.19,-0.63,-0.06,-49.07,-184.94,393.68
429,1715411570170,1.4606077348066298,-0.6967955801104972,0.01878453038674034,-71.07486187845305,-164.44060773480663,402.8583977900552
430,1715411570180,2.77,-1.02,0.39999999999999997,-177.55,-65.25,447.27
431,1715411570190,2.77,-1.02,0.4,-177.55,-65.25,447.27
432,1715411570200,2.77,-1.02,0.4,-177.55,-65.25,447.27
433,1715411570210,3.279763779527559,-0.29220472440944883,0.40307086614173226,-137.10767716535435,-98.2240157480315,371.01055118110236
434,1715411570220,4.43,1.35,0.41,9.22,-217.53,95.09
435,1715411570230,4.43,1.35,0.4099999999999999,9.22,-217.53,95.08999999999999
436,1715411570240,4.43,1.35,0.41,9.22,-217.53,95.09
437,1715411570250,4.577796610169491,0.2415254237288136,0.3176271186440678,-125.60745762711865,112.74615819209042,89.30129943502824
438,1715411570260,4.67,-0.45000000000000007,0.26,-209.72,318.79,85.69
439,1715411570270,4.67,-0.45,0.26,-209.72,318.79,85.69
440,1715411570280,4.67,-0.45,0.26,-209.72,318.79,85.69
441,1715411570290,3.957758620689655,0.010862068965517231,0.16224137931034482,-32.76422413793104,121.40051724137932,-89.91905172413793
442,1715411570300,3.65,0.21,0.12,71.47,5.13,-193.36
443,1715411570310,3.65,0.21,0.12,71.47,5.13,-193.36
444,1715411570320,3.6499999999999995,0.21,0.12,71.47,5.13,-193.36
445,1715411570330,3.213464566929134,-0.0677952755905512,0.5466141732283465,-15.133149606299215,101.06897637795275,-216.56826771653544
446,1715411570340,3.21,-0.07,0.55,-24.17,111.08,-218.99000000000004
447,1715411570350,3.21,-0.07,0.55,-24.17,111.08,-218.99
448,1715411570360,3.128181818181818,-0.05099173553719009,0.5260330578512398,-24.17,111.08,-218.99
449,1715411570370,2.22,0.16,0.26,-14.796762589928058,185.42992805755395,-270.591726618705
450,1715411570380,2.22,0.16,0.26,-14.59,187.07,-271.73
451,1715411570390,2.22,0.16,0.26,-14.59,187.06999999999996,-271.73
452,1715411570400,2.174228855721393,0.14054726368159204,0.28860696517412937,-8.854676616915423,183.84333333333333,-277.5621890547264
453,1715411570410,1.82,-0.01,0.51,90.21,128.11,-378.3
454,1715411570420,1.82,-0.01,0.51,90.21,128.11,-378.3
455,1715411570430,1.8199999999999998,-0.01,0.51,90.21,128.11,-378.3
456,1715411570440,1.7401869158878507,-0.18102803738317758,0.46439252336448594,98.65331775700933,142.36420560747663,-400.1545327102804
457,1715411570450,1.54,-0.6099999999999999,0.35,134.28,202.51,-492.37
458,1715411570460,1.54,-0.61,0.35,134.28,202.51,-492.37
459,1715411570470,1.54,-0.61,0.35,134.28,202.51000000000002,-492.37
460,1715411570480,1.6508988764044945,-0.8159550561797754,0.38168539325842693,159.7761797752809,177.0191011235955,-528.8240449438202
461,1715411570490,1.75,-1.0,0.41000000000000003,182.56,154.24,-561.4
462,1715411570500,1.75,-1.0,0.41,182.56,154.24,-561.4
463,1715411570510,1.75,-1.0,0.41,182.56,154.24,-561.4
464,1715411570520,1.7790612244897959,-1.1235102040816327,0.3882040816326531,177.8223673469388,199.44326530612244,-563.1312653061225
465,1715411570530,1.83,-1.34,0.35,169.37,280.09,-566.22
466,1715411570540,1.83,-1.34,0.35,169.37000000000003,280.09,-566.22
467,1715411570550,1.83,-1.34,0.35,169.37,280.09,-566.22
468,1715411570560,1.4746153846153847,-1.3738461538461537,0.06230769230769231,162.60897435897436,279.78641025641025,-533.9246153846154
469,1715411570570,1.41,-1.38,0.01,161.13,279.72,-526.86
470,1715411570580,1.41,-1.3800000000000001,0.01,161.13,279.72,-526.86
471,1715411570590,1.41,-1.38,0.01,161.13,279.72,-526.86
472,1715411570600,0.509074074074074,-1.3714197530864198,-0.16160493827160494,223.92592592592592,208.37185185185183,-520.0994444444444
473,1715411570610,0.36,-1.37,-0.19,239.98999999999998,190.12,-518.37
474,1715411570620,0.36,-1.37,-0.19,239.99,190.12,-518.37
475,1715411570630,0.027589285714285695,-1.4170535714285715,-0.34482142857142856,241.3107142857143,180.10642857142858,-503.8957142857143
476,1715411570640,-1.83,-1.68,-1.21,258.48,49.93,-315.73
477,1715411570650,-1.83,-1.68,-1.21,258.48,49.93,-315.73
478,1715411570660,-1.83,-1.68,-1.21,258.48,49.93,-315.73
479,1715411570670,-1.9850000000000003,-1.575505617977528,-1.311011235955056,233.67101123595506,52.261685393258425,-287.0477528089888
480,1715411570680,-2.72,-1.08,-1.79,-17.52,75.87,3.36
481,1715411570690,-2.72,-1.08,-1.79,-17.52,75.87,3.36
482,1715411570700,-2.72,-1.08,-1.79,-17.52,75.87,3.36
483,1715411570710,-2.1323711340206186,-0.8155670103092784,-1.1788659793814433,-37.03876288659794,14.324432989690724,107.59463917525774
484,1715411570720,-1.72,-0.63,-0.75,-60.55,-59.81,233.15
485,1715411570730,-1.72,-0.63,-0.75,-60.55,-59.81,233.15
486,1715411570740,-1.7200000000000002,-0.63,-0.75,-60.55,-59.81,233.15
487,1715411570750,-0.67008547008547,-0.8073504273504273,-0.31017094017094016,-171.89948717948718,0.9727350427350425,402.9054700854701
488,1715411570760,-0.24,-0.88,-0.13,-225.46,30.21,484.56
489,1715411570770,-0.24,-0.8799999999999999,-0.13,-225.46,30.21,484.55999999999995
490,1715411570780,-0.18149999999999997,-0.9165,-0.151,-225.46,30.21,484.56
491,1715411570790,0.93,-1.61,-0.55,-283.59247999999997,-80.09656,653.37536
492,1715411570800,0.93,-1.61,-0.55,-290.34,-92.9,672.97
493,1715411570810,0.93,-1.61,-0.55,-290.34,-92.9,672.97
494,1715411570820,1.452837837837838,-1.915810810810811,-0.3625675675675676,-290.34,-92.9,672.97
495,1715411570830,1.99,-2.23,-0.17,-171.21339366515835,-205.6964705882353,654.022036199095
496,1715411570840,1.99,-2.23,-0.17,-93.87,-278.93,641.72
497,1715411570850,1.9900000000000002,-2.23,-0.17,-93.87,-278.93,641.72
498,1715411570860,2.297575757575758,-1.896060606060606,0.1287878787878788,-4.8167532467532475,-240.93,692.1728138528138
499,1715411570870,2.34,-1.85,0.17,14.4,-232.73,703.06
500,1715411570880,2.3399999999999994,-1.85,0.17,14.4,-232.73,703.06
501,1715411570890,2.34,-1.85,0.17000000000000004,14.4,-232.73,703.06
502,1715411570900,1.9951079136690646,-1.1088489208633092,0.19935251798561152,-22.839136690647482,-115.01949640287769,592.8984892086331
503,1715411570910,1.87,-0.84,0.21,-43.76,-48.89,531.01
504,1715411570920,1.87,-0.84,0.21,-43.76,-48.89,531.01
505,1715411570930,1.7915384615384617,-0.901360946745562,0.17579881656804733,-43.76,-48.89,531.01
506,1715411570940,1.09,-1.45,-0.13,-150.17293233082708,17.39406015037594,465.8615789473684
507,1715411570950,1.09,-1.45,-0.13,-163.7,25.82,457.58
508,1715411570960,1.09,-1.45,-0.13,-163.69999999999996,25.82,457.58000000000004
509,1715411570970,1.3622222222222222,-1.4861111111111112,-0.08555555555555555,-150.99438888888886,8.901222222222223,462.05855555555553
510,1715411570980,2.07,-1.58,0.03,-29.169999999999998,-153.32,505.0
511,1715411570990,2.07,-1.58,0.03,-29.17,-153.32,505.0
512,1715411571000,2.07,-1.5800000000000003,0.029999999999999995,-29.17,-153.32,505.0
513,1715411571010,2.3782666666666668,-1.1674666666666667,0.19546666666666668,-29.17,-153.32,505.0
514,1715411571020,3.4300000000000006,0.24000000000000002,0.76,-38.248145695364244,-81.13960264900662,460.0418543046357
515,1715411571030,3.43,0.24,0.76,-44.07,-34.85,431.21
516,1715411571040,3.451977186311787,0.17536121673003802,0.6792015209125475,-43.684752851711025,-33.385209125475285,427.98794676806085
517,1715411571050,3.77,-0.76,-0.49,-18.74,61.46,219.36
518,1715411571060,3.77,-0.7600000000000001,-0.49,-18.74,61.46,219.36
519,1715411571070,3.77,-0.76,-0.49,-18.74,61.46,219.36
520,1715411571080,3.77,-0.76,-0.49,-18.74,61.46,219.36
521,1715411571090,4.5205882352941185,-0.10323529411764706,0.5249999999999999,-13.741764705882353,-57.491176470588236,-32.13823529411764
522,1715411571100,4.65,0.01,0.7,-12.88,-78.0,-75.5
523,1715411571110,4.65,0.01,0.7,-12.88,-78.0,-75.5
524,1715411571120,4.65,0.01,0.7,-12.88,-78.0,-75.5
525,1715411571130,3.860359712230216,-0.7655395683453238,0.2910791366906475,-28.845323741007196,69.31719424460432,-129.4169784172662
526,1715411571140,3.53,-1.09,0.12,-49.26,257.69,-198.36
527,1715411571150,3.53,-1.09,0.12,-49.26,257.69,-198.36
528,1715411571160,3.53,-1.09,0.12,-49.26,257.69,-198.36
529,1715411571170,2.97,-0.8099999999999999,-0.0776470588235294,25.04647058823529,189.77647058823527,-272.06235294117647
530,1715411571180,2.85,-0.75,-0.12000000000000001,47.91,168.88,-294.74
531,1715411571190,2.85,-0.75,-0.12,47.91,168.88,-294.74
532,1715411571200,2.85,-0.75,-0.12,47.91,168.88,-294.74
533,1715411571210,2.318709677419355,-0.5496774193548387,0.3329032258064516,70.77967741935484,118.51096774193547,-399.9683870967742
534,1715411571220,2.24,-0.52,0.4,77.45,103.82,-430.66
535,1715411571230,2.24,-0.52,0.4000000000000001,77.45,103.82,-430.66
536,1715411571240,2.066666666666667,-0.5733333333333334,0.4033333333333334,77.45,103.82000000000001,-430.65999999999997
537,1715411571250,1.72,-0.68,0.41,92.49285714285715,130.1075,-426.2457142857143
538,1715411571260,1.72,-0.6800000000000002,0.4099999999999999,105.53,152.89,-422.42
539,1715411571270,1.72,-0.68,0.41,105.53,152.89,-422.42
540,1715411571280,1.5815909090909093,-0.6931818181818182,0.43636363636363634,133.13,166.9618181818182,-449.95727272727277
541,1715411571290,1.51,-0.7,0.45,158.33,179.81,-475.09999999999997
542,1715411571300,1.51,-0.7,0.45,158.33,179.81,-475.1
543,1715411571310,1.5074789915966387,-0.7050420168067226,0.44596638655462184,158.33,179.81,-475.1
544,1715411571320,1.36,-1.0,0.21,170.05872340425532,201.72755319148936,-457.66648936170213
545,1715411571330,1.36,-1.0,0.21,173.03,207.28000000000003,-453.25
546,1715411571340,1.36,-1.0,0.20999999999999996,173.03,207.28,-453.25
547,1715411571350,1.369074074074074,-1.0017283950617284,0.22037037037037036,172.8429012345679,206.8129012345679,-454.41537037037034
548,1715411571360,1.57,-1.04,0.45,168.7,196.47,-480.2200000000001
549,1715411571370,1.57,-1.04,0.45,168.7,196.47000000000003,-480.22
550,1715411571380,1.57,-1.04,0.45,168.7,196.47,-480.22
551,1715411571390,1.5151923076923077,-1.1005769230769231,0.37788461538461543,175.81677884615385,189.9704326923077,-484.89384615384614
552,1715411571400,1.3800000000000001,-1.25,0.20000000000000004,198.91,168.88,-500.06
553,1715411571410,1.38,-1.25,0.2,198.90999999999997,168.88,-500.06000000000006
554,1715411571420,1.38,-1.25,0.2,198.91,168.87999999999997,-500.06
555,1715411571430,1.3512315270935962,-1.235615763546798,0.33665024630541873,228.71285714285713,150.98857142857142,-526.6542857142857
556,1715411571440,1.3,-1.2099999999999997,0.58,303.21999999999997,106.26,-593.14
557,1715411571450,1.3,-1.21,0.58,303.22,106.26,-593.14
558,1715411571460,1.3,-1.21,0.58,303.22,106.26000000000002,-593.14
559,1715411571470,0.47568181818181815,-1.1538636363636363,0.07772727272727266,259.9825,123.93613636363638,-548.1229545454545
560,1715411571480,-1.49,-1.02,-1.12,49.56,209.96,-329.04
561,1715411571490,-1.4900000000000002,-1.02,-1.12,49.559999999999995,209.96,-329.04
562,1715411571500,-1.49,-1.02,-1.12,49.56,209.96,-329.04
563,1715411571510,-1.8215000000000001,-1.0341666666666667,-1.3041666666666667,45.3085,182.94766666666666,-289.50600000000003
564,1715411571520,-2.66,-1.07,-1.77,26.37,62.62,-113.4
565,1715411571530,-2.66,-1.07,-1.77,26.37,62.62,-113.4
566,1715411571540,-2.66,-1.07,-1.7699999999999998,26.37,62.62,-113.4
567,1715411571550,-2.2365079365079366,-0.8996825396825396,-1.5858730158730159,-17.836666666666662,-2.0704761904761897,12.560952380952374
568,1715411571560,-1.74,-0.7,-1.3699999999999999,-71.35,-80.38,165.04
569,1715411571570,-1.74,-0.7,-1.37,-71.35,-80.37999999999998,165.04
570,1715411571580,-1.74,-0.7,-1.37,-71.35,-80.38,165.04
571,1715411571590,-0.36828282828282827,-0.797979797979798,-0.4587878787878788,-161.05909090909088,-105.99454545454545,312.27636363636367
572,1715411571600,-0.34,-0.8,-0.44,-194.7,-115.6,367.49
573,1715411571610,-0.34,-0.7999999999999999,-0.44,-194.70000000000002,-115.60000000000001,367.49000000000007
574,1715411571620,-0.34,-0.8,-0.44,-194.7,-115.6,367.49
575,1715411571630,0.7793069306930692,-1.1386138613861385,-0.41178217821782176,-223.5938613861386,-193.850099009901,486.51693069306936
576,1715411571640,0.85,-1.16,-0.41,-229.86,-210.82,512.33
577,1715411571650,0.85,-1.16,-0.41,-229.86,-210.82,512.33
578,1715411571660,1.0116666666666667,-1.2633333333333334,-0.33999999999999997,-227.93055555555554,-216.13333333333333,519.6644444444445
579,1715411571670,1.82,-1.78,0.01,-195.13,-306.46,644.35
580,1715411571680,1.82,-1.78,0.01,-195.13,-306.46,644.35
581,1715411571690,1.8199999999999998,-1.78,0.01,-195.13000000000002,-306.46,644.35
582,1715411571700,2.092429906542056,-1.6363551401869159,-0.0494392523364486,-181.07850467289717,-280.4033644859813,652.1828971962617
583,1715411571710,2.37,-1.49,-0.11,-129.76,-185.24,680.79
584,1715411571720,2.3700000000000006,-1.49,-0.11,-129.76,-185.24,680.79
585,1715411571730,2.3699999999999997,-1.49,-0.11,-129.76,-185.24,680.79
586,1715411571740,2.37,-1.49,-0.11,-129.76,-185.24,680.79
587,1715411571750,2.37,-1.49,-0.11,-129.76,-185.24,680.79
588,1715411571760,2.37,-1.4899999999999998,-0.11000000000000001,-129.76,-185.24,680.79
589,1715411571770,2.37,-1.4899999999999998,-0.11000000000000001,-129.76,-185.23999999999998,680.7900000000001
590,1715411571780,2.3699999999999997,-1.49,-0.11,-129.76,-185.24,680.79
591,1715411571790,1.500253164556962,-1.0746835443037974,0.005189873417721525,-143.0118987341772,-108.96189873417721,470.46696202531643
592,1715411571800,0.88,-1.24,-0.16,-101.62,-83.07,374.33
593,1715411571810,0.9435294117647058,-1.1764705882352942,-0.15647058823529414,-93.38323529411765,-92.7935294117647,370.805
594,1715411571820,1.42,-0.7,-0.13,85.08,-303.47,294.43
595,1715411571830,1.42,-0.7,-0.13,85.08,-303.47,294.43
596,1715411571840,1.42,-0.7,-0.13,85.08,-303.47,294.43
597,1715411571850,1.42,-0.7,-0.13,85.08,-303.47,294.43
598,1715411571860,2.4833333333333334,-0.6171428571428571,0.38785714285714284,-119.52190476190476,-54.318571428571445,348.9638095238096
599,1715411571870,2.96,-0.58,0.62,-211.24,57.37,373.41
600,1715411571880,2.96,-0.58,0.62,-211.24,57.37,373.41
601,1715411571890,3.3542857142857145,-0.4084126984126984,0.5396825396825397,-177.61312169312168,27.248783068783066,322.5014285714286
602,1715411571900,4.04,-0.10999999999999999,0.4,-103.52,-39.12,210.33
603,1715411571910,4.04,-0.11,0.4,-103.52,-39.12,210.33
604,1715411571920,4.04,-0.11,0.4,-103.52,-39.12,210.33
605,1715411571930,4.04,-0.11,0.4,-103.52,-39.12,210.33
606,1715411571940,4.04,-0.11,0.4,-103.52,-39.12,210.33
607,1715411571950,4.04,-0.11,0.4,-103.52,-39.12,210.33
608,1715411571960,4.04,-0.11000000000000001,0.4,-103.52,-39.12,210.33
609,1715411571970,4.04,-0.11,0.4,-103.52,-39.12,210.33
610,1715411571980,4.04,-0.11,0.4,-103.52,-39.12,210.32999999999998
611,1715411571990,4.04,-0.11,0.4,-103.52,-39.12,210.33
612,1715411572000,4.04,-0.11,0.4,-103.52,-39.12,210.33
613,1715411572010,4.04,-0.11,0.4,-103.52,-39.12,210.33
614,1715411572020,4.04,-0.11,0.4,-103.52,-39.12,210.33
615,1715411572030,3.2064999999999997,-0.5568333333333334,0.2810833333333333,53.057249999999996,104.69941666666666,-184.99325000000002
616,1715411572040,2.92,-0.65,0.21,89.05,132.63,-279.36
617,1715411572050,2.92,-0.65,0.21,89.05,132.63,-279.36
618,1715411572060,2.92,-0.65,0.21,89.05,132.63,-279.36
619,1715411572070,2.767462686567164,-0.5601492537313433,0.21,84.67156716417911,128.58402985074625,-292.8136567164179
620,1715411572080,1.8881659388646288,-0.2451528384279476,0.4447598253275109,115.9671615720524,90.67489082969432,-401.92213973799124
621,1715411572090,1.83,-0.25,0.49,129.21,84.72,-417.11
622,1715411572100,1.83,-0.25,0.49,129.21,84.72,-417.11
623,1715411572110,1.83,-0.25,0.49,129.21,84.72,-417.11
624,1715411572120,1.8011857707509882,-0.5285375494071146,0.3363241106719368,115.85545454545455,165.67802371541504,-446.82944664031623
625,1715411572130,1.7999999999999998,-0.54,0.33,114.26000000000002,175.35,-450.38
626,1715411572140,1.8000000000000003,-0.54,0.33,114.26,175.34999999999997,-450.38
627,1715411572150,1.8,-0.601025641025641,0.3347863247863248,114.26,175.35,-450.38
628,1715411572160,1.8,-1.05,0.37,125.41869565217391,168.2913043478261,-467.1386956521739
629,1715411572170,1.8,-1.05,0.37,165.59,142.88,-527.47
630,1715411572180,1.8,-1.05,0.37000000000000005,165.59,142.88,-527.47
631,1715411572190,1.9402247191011237,-1.1362921348314605,0.5317977528089888,186.60348314606742,157.69460674157304,-550.3340449438202
632,1715411572200,2.06,-1.2099999999999997,0.67,207.15,172.18,-572.69
633,1715411572210,2.06,-1.21,0.6700000000000002,207.15,172.18,-572.69
634,1715411572220,2.06,-1.21,0.67,207.15,172.18,-572.69
635,1715411572230,1.6676923076923078,-1.4023076923076923,0.29307692307692307,186.8392307692308,182.72846153846154,-564.0476923076923
636,1715411572240,1.55,-1.46,0.18,169.43,191.77,-556.64
637,1715411572250,1.55,-1.46,0.18,169.43,191.77,-556.64
638,1715411572260,1.5004712041884818,-1.4427225130890053,0.17942408376963348,169.43,191.77,-556.64
639,1715411572270,0.69,-1.16,0.17,243.54969696969698,71.06696969696968,-526.3460606060605
640,1715411572280,0.69,-1.16,0.17,244.69,69.21,-525.88
641,1715411572290,0.6900000000000001,-1.16,0.17,244.68999999999997,69.21,-525.88
642,1715411572300,0.34021834061135364,-1.1462445414847162,0.03637554585152839,249.12711790393013,62.00606986899563,-511.4878602620087
643,1715411572310,-1.09,-1.09,-0.51,278.56,14.22,-416.02
644,1715411572320,-1.09,-1.09,-0.51,278.56,14.22,-416.02
645,1715411572330,-1.09,-1.09,-0.51,278.56,14.22,-416.02
646,1715411572340,-1.4528571428571428,-1.1042857142857143,-0.6071428571428571,234.6167741935484,18.27013824884793,-368.88709677419354
647,1715411572350,-2.36,-1.14,-0.85,79.9,32.53,-202.93999999999997
648,1715411572360,-2.36,-1.14,-0.85,79.9,32.53,-202.94
649,1715411572370,-2.36,-1.14,-0.85,79.9,32.53,-202.94
650,1715411572380,-2.36,-1.14,-0.85,79.9,32.53,-202.94
651,1715411572390,-2.8199999999999994,-1.49,-1.3,-63.69457013574661,83.92425339366515,105.32049773755656
652,1715411572400,-2.8199999999999994,-1.49,-1.3,-70.5,86.36,119.93
653,1715411572410,-2.82,-1.49,-1.3,-70.5,86.36,119.93
654,1715411572420,-2.73,-1.4913636363636364,-1.2550000000000001,-73.84,79.89863636363637,132.99727272727273
655,1715411572430,-0.84,-1.52,-0.30999999999999994,-143.98,-55.79,407.41
656,1715411572440,-0.84,-1.52,-0.31,-143.98,-55.79,407.41
657,1715411572450,-0.84,-1.52,-0.31,-143.98,-55.79,407.41
658,1715411572460,0.11662921348314603,-1.708426966292135,-0.08775280898876404,-123.85595505617978,-69.04303370786516,499.3614606741573
659,1715411572470,1.14,-1.91,0.15,-88.01,-92.65,663.15
660,1715411572480,1.14,-1.91,0.15,-88.01,-92.65,663.15
661,1715411572490,1.14,-1.91,0.15,-88.01,-92.65,663.15
662,1715411572500,1.7201801801801802,-1.91,0.09324324324324323,-53.5054954954955,-90.12297297297299,696.9923423423423
663,1715411572510,2.06,-1.91,0.06,-11.41,-87.04,738.28
664,1715411572520,2.06,-1.91,0.06,-11.41,-87.04,738.28
665,1715411572530,2.06,-1.9100000000000001,0.06,-11.41,-87.04,738.28
666,1715411572540,2.2304123711340207,-1.6229896907216494,-0.01175257731958763,-2.2971134020618558,-63.44896907216495,708.4380412371135
667,1715411572550,2.25,-1.59,-0.02,1.04,-54.81,697.5099999999999
668,1715411572560,2.25,-1.59,-0.02,1.04,-54.81,697.51
669,1715411572570,2.158867924528302,-1.5186792452830191,0.019622641509433967,1.04,-54.81,697.51
670,1715411572580,1.56,-1.05,0.28,-94.23169642857144,54.25741071428571,502.1301785714286
671,1715411572590,1.56,-1.05,0.28,-95.09,55.24,500.36999999999995
672,1715411572600,1.56,-1.05,0.28,-95.09,55.24,500.37
673,1715411572610,1.56,-1.05,0.28,-95.09,55.24,500.37
674,1715411572620,1.2922448979591836,-1.2785714285714285,0.03836734693877552,-95.09,55.24,500.37
675,1715411572630,1.15,-1.4,-0.09,-124.58386503067486,66.46699386503067,474.6951533742331
676,1715411572640,1.15,-1.4,-0.09,-127.14,67.44,472.46999999999997
677,1715411572650,1.1987261146496815,-1.3552866242038215,-0.09573248407643312,-127.14,67.44,472.47
678,1715411572660,2.0,-0.62,-0.19,-74.62426829268293,-131.83268292682928,452.19012195121957
679,1715411572670,,,,,,
680,1715411572680,,,,,,
681,1715411572690,2.683333333333333,-0.6000000000000001,0.16,-106.46333333333332,-99.18,451.56
682,1715411572700,4.05,-0.56,0.8600000000000001,-174.13,-18.74,451.84
683,1715411572710,4.05,-0.56,0.86,-174.13,-18.74,451.84
684,1715411572720,4.05,-0.56,0.86,-174.13,-18.74,451.84
685,1715411572730,3.8002189781021896,-0.34467153284671537,0.44226277372262773,-172.00591240875914,27.665839416058397,378.62467153284666
686,1715411572740,3.4700000000000006,-0.06,-0.11,-164.43,193.18,117.49
687,1715411572750,3.47,-0.06,-0.11,-164.43,193.18,117.49
688,1715411572760,3.47,-0.06,-0.11,-164.43,193.18,117.49
689,1715411572770,4.160967741935484,-0.2293548387096774,0.5470967741935484,-99.00064516129032,86.50058064516129,6.538580645161291
690,1715411572780,4.49,-0.31,0.86,-50.48,7.39,-75.74
691,1715411572790,4.49,-0.31,0.86,-50.48,7.39,-75.74
692,1715411572800,4.49,-0.31,0.86,-50.48,7.39,-75.74
693,1715411572810,4.49,-0.31,0.86,-50.48,7.39,-75.74
694,1715411572820,4.49,-0.31,0.86,-50.47999999999999,7.39,-75.74
695,1715411572830,4.49,-0.31,0.8600000000000001,-50.48,7.39,-75.74
696,1715411572840,4.49,-0.31,0.86,-50.48,7.390000000000001,-75.74
697,1715411572850,4.49,-0.31,0.86,-50.48,7.39,-75.74
698,1715411572860,4.49,-0.31,0.86,-50.48,7.39,-75.74
699,1715411572870,4.49,-0.31,0.86,-50.48,7.39,-75.74
700,1715411572880,4.301792452830189,-0.5576415094339623,0.6883018867924527,-30.48707547169811,86.50981132075471,-125.94188679245283
701,1715411572890,3.92,-1.06,0.34,10.07,247.01,-227.78
702,1715411572900,3.92,-1.06,0.34,10.07,247.01,-227.78
703,1715411572910,3.9199999999999995,-1.06,0.34,10.070000000000002,247.01,-227.78
704,1715411572920,3.92,-1.06,0.34,10.07,247.01,-227.78
705,1715411572930,3.1652027027027025,-0.7487837837837839,0.38391891891891894,64.14229729729729,171.9122972972973,-307.5697972972973
706,1715411572940,2.2102564102564104,-0.24897435897435896,0.698034188034188,107.0445299145299,134.1308547008547,-438.51230769230773
707,1715411572950,2.128358208955224,-0.2948507462686567,0.6685820895522387,108.61582089552238,137.69119402985078,-443.010671641791
708,1715411572960,1.56,-0.73,0.34,159.85,189.58,-496.95
709,1715411572970,1.56,-0.7299999999999999,0.34,159.85,189.58,-496.95
710,1715411572980,1.56,-0.73,0.34,159.85,189.58,-496.95
711,1715411572990,1.6272033898305085,-0.9109322033898306,0.3916949152542373,166.18338983050847,190.88550847457628,-502.5268644067796
712,1715411573000,1.69,-1.08,0.44,178.77,193.48,-513.61
713,1715411573010,1.69,-1.08,0.44,178.77,193.48,-513.61
714,1715411573020,1.69,-1.08,0.44,178.77,193.48,-513.61
715,1715411573030,1.7296992481203008,-1.20406015037594,0.44,182.48909774436092,213.23263157894735,-526.0746616541353
716,1715411573040,1.77,-1.33,0.44,187.93,242.13,-544.31
717,1715411573050,1.7699999999999998,-1.33,0.44,187.93,242.13,-544.31
718,1715411573060,1.77,-1.33,0.44000000000000006,187.93,242.13,-544.31
719,1715411573070,1.4834328358208957,-1.6165671641791046,0.26487562189054725,176.6613930348259,233.80592039800993,-534.01407960199
720,1715411573080,1.41,-1.69,0.22,170.9,229.55,-528.75
721,1715411573090,1.41,-1.69,0.22,170.9,229.55,-528.75
722,1715411573100,1.4099999999999997,-1.69,0.22,170.9,229.55000000000004,-528.75
723,1715411573110,0.9393577981651376,-1.7147706422018347,0.05486238532110092,203.43522935779816,205.6006422018349,-485.9077064220183
724,1715411573120,0.84,-1.72,0.02,219.48,193.79,-464.78
725,1715411573130,0.84,-1.72,0.02,219.48,193.79,-464.78
726,1715411573140,0.7746428571428571,-1.7281428571428572,-0.016642857142857143,219.48,193.79,-464.78
727,1715411573150,-2.21,-2.1,-1.69,359.13707964601775,3.177079646017699,-345.80557522123894
728,1715411573160,-2.21,-2.1,-1.69,375.73,-19.47,-331.67
729,1715411573170,-2.3604950495049506,-1.8855445544554454,-1.6034653465346533,341.9171287128713,-53.89554455445544,-277.47673267326735
730,1715411573180,-2.61,-1.53,-1.46,244.38,-153.2,-121.15
731,1715411573190,-2.61,-1.5299999999999998,-1.46,244.38,-153.2,-121.15
732,1715411573200,-2.61,-1.53,-1.46,244.38,-153.2,-121.15
733,1715411573210,-2.48,-1.2249999999999999,-0.97,79.72420454545454,-85.47011363636364,23.017272727272715
734,1715411573220,-2.35,-0.92,-0.48,-92.59000000000002,-14.59,173.89
735,1715411573230,-2.35,-0.92,-0.48,-92.59,-14.59,173.89
736,1715411573240,-2.35,-0.92,-0.48,-92.59,-14.59,173.89
737,1715411573250,-1.2095505617977529,-0.668314606741573,-0.527191011235955,-114.34775280898877,15.829325842696628,303.61089887640446
738,1715411573260,-0.9,-0.6,-0.54,-136.6,46.94,436.28
739,1715411573270,-0.9,-0.6,-0.54,-136.6,46.94,436.28
740,1715411573280,-0.9000000000000001,-0.5999999999999999,-0.54,-136.6,46.94,436.28
741,1715411573290,0.618,-1.1703999999999999,0.0212,-169.933,-92.4518,552.843
742,1715411573300,0.75,-1.22,0.07,-177.25,-123.05,578.43
743,1715411573310,0.75,-1.22,0.07,-177.25,-123.05,578.43
744,1715411573320,0.75,-1.22,0.07,-177.25,-123.05,578.43
745,1715411573330,1.5855102040816327,-1.7104081632653059,0.2031972789115646,-181.30721088435374,-104.7404081632653,695.274693877551
746,1715411573340,2.13,-2.03,0.29,-185.42,-86.18,813.72
747,1715411573350,2.13,-2.03,0.29,-185.42,-86.18,813.72
748,1715411573360,2.13,-2.03,0.29,-185.42,-86.18,813.72
749,1715411573370,2.146681034482759,-1.3015948275862068,-0.010258620689655181,-115.98797413793103,-119.10280172413792,674.4722844827586
750,1715411573380,2.16,-0.72,-0.25,-60.54999999999999,-145.39,563.29
751,1715411573390,2.16,-0.72,-0.25,-60.54999999999999,-145.39,563.29
752,1715411573400,2.16,-0.72,-0.25,-60.54999999999999,-145.39,563.29
753,1715411573410,1.784367816091954,-1.6285057471264368,0.17804597701149424,-40.9153448275862,-117.19810344827584,427.52482758620687
754,1715411573420,1.73,-1.76,0.24,-36.32,-110.6,395.75
755,1715411573430,1.73,-1.76,0.24,-36.32,-110.6,395.75
756,1715411573440,1.7266896551724138,-1.6913103448275864,0.19944827586206895,-30.13213793103448,-105.97296551724138,404.6002068965517
757,1715411573450,1.69,-0.9300000000000002,-0.25,38.45,-54.69,502.68999999999994
758,1715411573460,1.69,-0.93,-0.25,38.45,-54.69,502.68999999999994
759,1715411573470,1.69,-0.93,-0.25,38.45,-54.69,502.69000000000005
760,1715411573480,1.69,-0.93,-0.25,38.45,-54.68999999999999,502.69
761,1715411573490,1.731269841269841,-0.8859788359788361,-0.1984126984126984,34.85264550264551,-58.99719576719576,490.94322751322755
762,1715411573500,2.29,-0.29,0.5,-13.85,-117.31,331.91
763,1715411573510,2.285729537366548,-0.2686476868327402,0.4750889679715303,-13.85,-117.31,331.91
764,1715411573520,2.23,0.01,0.15,-152.0207142857143,59.37642857142857,422.3228571428571
765,1715411573530,2.23,0.01,0.15,-217.47,143.07,465.15
766,1715411573540,2.23,0.01,0.15,-217.47,143.07,465.1499999999999
767,1715411573550,2.23,0.01,0.15,-217.47,143.07,465.15000000000003
768,1715411573560,2.994720812182741,0.3135532994923858,0.5060913705583756,-173.0043654822335,97.97375634517766,288.5076649746193
769,1715411573570,3.5399999999999996,0.53,0.7599999999999999,-130.74,55.11000000000001,120.61
770,1715411573580,3.54,0.53,0.76,-130.74,55.11,120.61
771,1715411573590,3.5399999999999996,0.53,0.76,-130.74,55.11000000000001,120.60999999999999
772,1715411573600,3.686688963210702,0.04678929765886288,0.6133110367892977,-103.10387959866222,75.88324414715719,33.55180602006689
773,1715411573610,3.71,-0.03,0.59,-96.31,80.99,12.15
774,1715411573620,3.7099999999999995,-0.03,0.59,-96.31,80.99,12.15
775,1715411573630,3.71,-0.03,0.59,-96.31,80.99,12.15
776,1715411573640,3.885401069518717,-0.5562032085561498,0.59,18.30363636363636,80.14807486631015,-140.24502673796792
777,1715411573650,3.9099999999999997,-0.63,0.59,77.94,79.71,-219.54
778,1715411573660,3.91,-0.63,0.59,77.94,79.71,-219.54000000000002
779,1715411573670,3.89152,-0.6409199999999999,0.5429599999999999,76.97544,80.95656,-220.10616000000002
780,1715411573680,3.69,-0.76,0.03,-2.44,183.59,-266.72
781,1715411573690,3.6900000000000004,-0.76,0.03,-2.44,183.59,-266.72
782,1715411573700,3.69,-0.76,0.03,-2.44,183.59,-266.72
783,1715411573710,3.6591329479768784,-0.7520231213872832,0.04907514450867052,-2.44,183.59,-266.72
784,1715411573720,2.8,-0.53,0.58,28.593274336283187,165.74610619469024,-365.54477876106193
785,1715411573730,2.8,-0.53,0.58,30.03,164.91999999999996,-370.12
786,1715411573740,2.8,-0.53,0.58,30.030000000000005,164.92,-370.12
787,1715411573750,2.1831147540983604,-0.5995081967213115,0.6408196721311475,41.298852459016395,168.1273770491803,-376.2134426229508
788,1715411573760,2.09,-0.61,0.65,128.23,192.87,-423.21999999999997
789,1715411573770,2.09,-0.61,0.65,128.23,192.87000000000003,-423.22
790,1715411573780,2.09,-0.61,0.65,128.23,192.87,-423.22
791,1715411573790,1.8301273885350318,-0.642484076433121,0.49082802547770704,128.23,192.87,-423.22
792,1715411573800,1.29,-0.71,0.16,167.4896335078534,163.1538219895288,-436.1767015706806
793,1715411573810,1.29,-0.71,0.16,208.86,131.84,-449.83
794,1715411573820,1.29,-0.7099999999999999,0.16,208.86,131.84,-449.83000000000004
795,1715411573830,1.5870000000000002,-0.8134999999999999,0.4705,217.27750000000003,109.601,-490.18149999999997
796,1715411573840,1.95,-0.94,0.85,232.91,68.3,-565.12
797,1715411573850,1.95,-0.9399999999999998,0.85,232.91,68.3,-565.12
798,1715411573860,1.95,-0.94,0.85,232.91,68.3,-565.12
799,1715411573870,1.7251912568306014,-1.5218579234972678,0.5722950819672131,204.49672131147543,150.96327868852458,-547.0078688524591
800,1715411573880,1.6099999999999999,-1.82,0.43,177.0,230.96,-529.48
801,1715411573890,1.61,-1.82,0.43,177.0,230.96,-529.48
802,1715411573900,1.61,-1.82,0.43,177.0,230.96,-529.48
803,1715411573910,1.3058860759493671,-1.6826582278481013,0.714493670886076,225.24196202531647,117.7753164556962,-522.804746835443
804,1715411573920,1.3,-1.68,0.72,234.31000000000003,96.5,-521.55
805,1715411573930,1.3000000000000003,-1.6799999999999997,0.72,234.31,96.5,-521.55
806,1715411573940,1.3,-1.6799999999999997,0.72,234.31000000000003,96.5,-521.55
807,1715411573950,0.5,-1.38,-0.05,197.3075369458128,156.41724137931033,-462.00724137931036
808,1715411573960,0.5,-1.38,-0.05,192.81,163.7,-454.77
809,1715411573970,0.5,-1.38,-0.05,192.81,163.7,-454.77
810,1715411573980,0.47971563981042653,-1.3832227488151656,-0.058246445497630334,192.81000000000003,163.7,-454.77
811,1715411573990,-1.64,-1.72,-0.92,302.7856457564576,51.39040590405904,-347.41771217712176
812,1715411574000,-1.6400000000000001,-1.72,-0.92,310.61,43.4,-339.78
813,1715411574010,-1.64,-1.7199999999999998,-0.9200000000000002,310.61,43.4,-339.78
814,1715411574020,-2.2858823529411767,-1.0741176470588236,-1.4462745098039216,109.70071895424836,72.7437908496732,-138.8308496732026
815,1715411574030,-2.45,-0.91,-1.58,58.65,80.2,-87.77
816,1715411574040,-2.45,-0.91,-1.58,58.64999999999999,80.2,-87.77
817,1715411574050,-2.45,-0.91,-1.58,58.65,80.2,-87.77
818,1715411574060,-2.3782758620689655,-0.6804827586206896,-1.214206896551724,-57.39413793103448,49.80655172413793,42.714137931034486
819,1715411574070,-2.35,-0.59,-1.07,-118.47,33.81,111.39
820,1715411574080,-2.35,-0.59,-1.07,-118.47,33.81,111.39
821,1715411574090,-2.35,-0.59,-1.07,-118.46999999999998,33.81,111.39
822,1715411574100,-1.2899307958477508,-0.636089965397924,-0.42474048442906576,-117.48176470588234,5.250000000000001,289.41352941176467
823,1715411574110,-0.9699999999999999,-0.65,-0.23000000000000004,-117.07000000000001,-6.6499999999999995,363.59
824,1715411574120,-0.9700000000000001,-0.65,-0.22999999999999998,-117.06999999999998,-6.65,363.59
825,1715411574130,-0.97,-0.65,-0.23,-117.07,-6.6499999999999995,363.59
826,1715411574140,0.24153488372093024,-0.9283255813953488,-0.1153953488372093,-196.97790697674418,13.524093023255816,486.120511627907
827,1715411574150,0.51,-0.99,-0.09,-222.47,19.96,525.21
828,1715411574160,0.51,-0.99,-0.09,-222.47,19.96,525.21
829,1715411574170,0.51,-0.9900000000000001,-0.09,-222.47,19.96,525.21
830,1715411574180,1.3583582089552237,-1.3449253731343283,-0.18522388059701494,-162.2992537313433,-137.8131343283582,501.7019402985075
831,1715411574190,1.49,-1.4,-0.2,-134.83,-209.84,490.97
832,1715411574200,1.49,-1.3999999999999997,-0.20000000000000004,-134.83,-209.84,490.97
833,1715411574210,1.49,-1.4,-0.2,-134.83,-209.84,490.97
834,1715411574220,1.8792737430167596,-1.4,0.37642458100558657,-89.27,-156.69664804469275,579.4698882681565
835,1715411574230,2.01,-1.4,0.57,-73.97,-138.85,609.19
836,1715411574240,2.01,-1.4,0.57,-73.97,-138.85,609.19
837,1715411574250,2.058186528497409,-1.2474093264248705,0.4318652849740932,-78.61901554404145,-132.62108808290154,615.2513471502591
838,1715411574260,2.31,-0.45,-0.29,-138.06,-52.98,692.75
839,1715411574270,2.31,-0.45,-0.29,-138.06,-52.97999999999999,692.75
840,1715411574280,2.31,-0.45000000000000007,-0.29,-138.06,-52.97999999999999,692.75
841,1715411574290,1.8479999999999999,-0.3048,-0.13599999999999998,-138.06,-52.98,692.75
842,1715411574300,1.26,-0.12,0.06,-122.6411797752809,-131.8993820224719,348.79983146067417
843,1715411574310,1.26,-0.12,0.06,-122.01000000000002,-135.13,334.72
844,1715411574320,1.26,-0.12,0.06,-122.01,-135.13,334.72
845,1715411574330,1.5143478260869565,-0.23304347826086957,0.4273913043478261,-53.663532608695654,-104.82103260869565,356.3996195652174
846,1715411574340,1.7099999999999997,-0.32,0.71,25.94,-69.52,381.65
847,1715411574350,1.71,-0.32,0.71,25.94,-69.52,381.6499999999999
848,1715411574360,1.71,-0.32,0.71,25.939999999999998,-69.52,381.65
849,1715411574370,1.6653303964757709,0.8711894273127753,-0.1685022026431718,-92.4968281938326,148.6364317180617,398.31149779735676
850,1715411574380,1.65,1.28,-0.47,-149.78,254.15000000000003,406.37
851,1715411574390,1.65,1.28,-0.47,-149.78,254.15000000000003,406.37
852,1715411574400,1.65,1.28,-0.47000000000000003,-149.78,254.15,406.37
853,1715411574410,3.1514772727272726,-0.10534090909090911,0.5752272727272728,-285.035,177.69022727272727,290.1000568181818
854,1715411574420,3.46,-0.39,0.79,-337.22,148.19,245.24
855,1715411574430,3.46,-0.39,0.79,-337.22,148.19,245.24000000000004
856,1715411574440,3.46,-0.39,0.79,-337.22,148.19,245.24
857,1715411574450,3.7151020408163262,-0.07112244897959184,0.7389795918367347,-161.70341836734696,94.31882653061223,54.117551020408165
858,1715411574460,3.8599999999999994,0.11,0.71,-62.00999999999999,63.72,-54.44
859,1715411574470,3.8599999999999994,0.11,0.71,-62.00999999999999,63.72,-54.43999999999999
860,1715411574480,3.9076190476190473,0.01666666666666667,0.8080952380952381,-62.01,63.72,-54.44
861,1715411574490,4.36,-0.8700000000000001,1.7400000000000002,115.62477987421384,43.24132075471699,-259.4696226415095
862,1715411574500,4.36,-0.87,1.74,135.5,40.95,-282.41
863,1715411574510,4.36,-0.87,1.74,135.5,40.95,-282.41
864,1715411574520,4.172808988764045,-0.8904494382022472,1.5197752808988763,134.5294382022472,65.23134831460675,-281.651797752809
865,1715411574530,3.17,-1.0,0.34,129.33,195.31,-277.59
866,1715411574540,3.17,-1.0,0.34,129.33,195.30999999999997,-277.59
867,1715411574550,3.17,-1.0,0.34,129.33,195.30999999999997,-277.59
868,1715411574560,2.7646666666666664,-0.6263333333333333,0.796,140.15666666666667,113.50644444444444,-324.5304444444444
869,1715411574570,2.53,-0.41,1.06,146.73,63.84,-353.03
870,1715411574580,2.53,-0.41,1.06,146.73,63.84000000000001,-353.03
871,1715411574590,2.53,-0.41,1.06,146.73,63.84,-353.03
872,1715411574600,2.04865671641791,-0.13723880597014926,0.8514179104477613,150.6220895522388,96.9626119402985,-358.8681343283582
873,1715411574610,1.93,-0.07,0.8,152.59,113.71,-361.82
874,1715411574620,1.93,-0.07,0.8,152.59,113.71000000000001,-361.82
875,1715411574630,1.9300000000000002,-0.07,0.8,152.59,113.71,-361.82
876,1715411574640,1.9366666666666668,-0.18333333333333332,0.9066666666666666,219.68333333333334,68.86999999999999,-448.9333333333334
877,1715411574650,1.9400000000000002,-0.23999999999999996,0.9599999999999999,253.23,46.45,-492.49
878,1715411574660,1.94,-0.24,0.96,253.23,46.45,-492.49000000000007
879,1715411574670,1.9399999999999997,-0.24000000000000002,0.9600000000000001,253.23,46.45,-492.49
880,1715411574680,2.004186046511628,-0.93,0.7995348837209303,184.37651162790698,150.0127906976744,-544.3132558139536
881,1715411574690,2.02,-1.1,0.76,154.54,194.89,-566.77
882,1715411574700,2.02,-1.1,0.76,154.54,194.88999999999996,-566.77
883,1715411574710,2.02,-1.1,0.76,154.54,194.89,-566.77
884,1715411574720,2.085085714285714,-1.2263428571428572,0.7676571428571429,196.25514285714286,190.80800000000002,-573.7751428571428
885,1715411574730,2.19,-1.43,0.78,266.85,183.9,-585.6300000000001
886,1715411574740,2.19,-1.43,0.78,266.85,183.9,-585.63
887,1715411574750,2.181764705882353,-1.4649999999999999,0.7450000000000001,266.85,183.9,-585.63
888,1715411574760,2.11,-1.77,0.44,270.23396946564884,157.3740458015267,-624.4612977099237
889,1715411574770,2.11,-1.77,0.43999999999999995,270.26,157.17,-624.76
890,1715411574780,2.11,-1.7700000000000002,0.44,270.26,157.17,-624.76
891,1715411574790,2.11,-1.7699999999999998,0.44000000000000006,270.26,157.17,-624.76
892,1715411574800,1.56359477124183,-2.4554901960784314,0.06248366013071896,279.41973856209154,96.528954248366,-600.8075816993464
893,1715411574810,1.56,-2.4599999999999995,0.06,279.48,96.13,-600.65
894,1715411574820,1.56,-2.46,0.06,279.48,96.13,-600.65
895,1715411574830,-0.6557857142857142,-3.0821428571428573,-1.146,304.0577142857143,82.82028571428572,-534.2762857142857
896,1715411574840,-3.07,-3.7599999999999993,-2.46,375.06,44.37,-342.53
897,1715411574850,-3.07,-3.76,-2.46,375.06,44.37,-342.53
898,1715411574860,-3.07,-3.76,-2.46,375.06,44.37,-342.53
899,1715411574870,-2.4901550387596902,-2.648062015503876,-1.2866666666666666,281.1646511627907,-177.09511627906977,-145.2625581395349
900,1715411574880,-2.22,-2.13,-0.74,213.56,-336.55,-3.23
901,1715411574890,-2.22,-2.13,-0.74,213.56,-336.55,-3.23
902,1715411574900,-2.22,-2.13,-0.74,213.56,-336.55000000000007,-3.23
903,1715411574910,-1.736842105263158,-1.7184210526315788,0.3336842105263158,-48.36526315789474,-25.514210526315797,225.86157894736846
904,1715411574920,-1.68,-1.6700000000000002,0.46,-141.91,85.57,307.68
905,1715411574930,-1.68,-1.6699999999999997,0.45999999999999996,-141.91,85.57,307.68
906,1715411574940,-1.68,-1.6699999999999997,0.45999999999999996,-141.91,85.57,307.68
907,1715411574950,-0.5921052631578947,-1.3771052631578948,-0.008631578947368422,-214.93789473684208,174.21526315789475,486.3489473684211
908,1715411574960,-0.38,-1.32,-0.1,-244.69,210.33,559.14
909,1715411574970,-0.38,-1.32,-0.1,-244.69,210.33,559.14
910,1715411574980,0.12588888888888888,-1.5874444444444444,-0.035555555555555556,-244.86033333333333,153.86100000000002,589.9166666666666
911,1715411574990,1.19,-2.15,0.1,-245.42,-31.68,691.04
912,1715411575000,1.19,-2.15,0.1,-245.42,-31.68,691.04
913,1715411575010,1.19,-2.15,0.1,-245.42,-31.680000000000003,691.04
914,1715411575020,1.19,-2.15,0.10000000000000002,-245.42,-31.679999999999996,691.04
915,1715411575030,2.670506329113924,-2.2877215189873414,0.5475949367088607,-58.44215189873417,-126.13898734177216,755.3529746835443
916,1715411575040,2.9099999999999997,-2.31,0.62,7.08,-159.24,777.89
917,1715411575050,2.91,-2.31,0.62,7.08,-159.24,777.8900000000001
918,1715411575060,2.96390243902439,-1.9990243902439024,0.3463414634146342,48.01804878048781,-140.4778861788618,769.310650406504
919,1715411575070,3.04,-1.56,-0.04,139.59,-98.51,750.12
920,1715411575080,3.04,-1.56,-0.04,139.59,-98.51,750.12
921,1715411575090,3.04,-1.56,-0.04,139.59,-98.51,750.12
922,1715411575100,2.6902097902097903,-1.5714685314685315,0.2065734265734266,62.226363636363644,-45.92608391608392,685.8193006993007
923,1715411575110,2.43,-1.58,0.38999999999999996,-81.67,51.88,566.22
924,1715411575120,2.43,-1.58,0.39,-81.67,51.88,566.22
925,1715411575130,2.43,-1.58,0.38999999999999996,-81.67,51.88,566.22
926,1715411575140,2.760340909090909,-1.22375,0.16329545454545455,-117.51454545454546,72.47318181818183,622.1968181818182
927,1715411575150,2.94,-1.03,0.04,-142.33,86.73,660.95
928,1715411575160,2.94,-1.03,0.04,-142.33,86.73,660.95
929,1715411575170,2.94,-1.03,0.04,-142.33,86.73,660.95
930,1715411575180,2.8098101265822786,-0.5858227848101266,0.6603164556962026,-202.85227848101266,91.94518987341772,493.6010759493671
931,1715411575190,2.77,-0.45,0.85,-235.17,94.73,404.24
932,1715411575200,2.77,-0.45,0.85,-235.17,94.73,404.24
933,1715411575210,2.7699999999999996,-0.45,0.85,-235.17,94.73,404.24
934,1715411575220,3.164252873563218,1.0787356321839079,0.5120689655172413,-145.09448275862067,98.61862068965517,338.9589655172414
935,1715411575230,3.26,1.45,0.42999999999999994,-110.78,100.1,314.09
936,1715411575240,3.26,1.45,0.43000000000000005,-110.78,100.10000000000001,314.09
937,1715411575250,3.2655882352941172,1.43578431372549,0.4334313725490196,-109.31754901960784,99.27362745098038,310.89039215686273
938,1715411575260,3.83,0.78,38.39,15.81,-12.27
939,1715411575270,3.83,0.78,38.39,15.81,-12.27
940,1715411575280,3.83,0.78,38.39000000000001,15.81,-12.27
941,1715411575290,3.83,0.78,38.39,15.81,-12.27
942,1715411575300,3.9030434782608694,-0.015217391304347827,0.5608695652173914,7.6370289855072455,76.08594202898551,-47.30420289855072
943,1715411575310,4.07,-0.05,0.06,-65.12,218.69,-130.19
944,1715411575320,4.07,-0.05,0.06,-65.12,218.69,-130.19
945,1715411575330,4.07,-0.05,0.06,-65.12,218.69,-130.19
946,1715411575340,3.827408906882591,-0.8817408906882591,0.2246153846153846,45.128987854251015,112.92894736842105,-276.40311740890684
947,1715411575350,3.79,-1.01,0.25,62.13,96.62,-298.95
948,1715411575360,3.7900000000000005,-1.01,0.25,62.13,96.62,-298.95
949,1715411575370,3.9323931623931623,-0.46555555555555556,0.29188034188034184,34.45,121.06923076923077,-321.67615384615385
950,1715411575380,3.96,-0.36,0.3,17.15,136.35,-335.88
951,1715411575390,3.9600000000000004,-0.36,0.3,17.15,136.35,-335.88
952,1715411575400,3.96,-0.36,0.3,17.15,136.35,-335.88
953,1715411575410,3.5964743589743593,-0.36685897435897435,0.7664102564102564,77.37692307692308,144.37756410256412,-405.1979487179487
954,1715411575420,3.43,-0.37,0.98,151.37,154.24,-490.36000000000007
955,1715411575430,3.43,-0.37,0.98,151.37,154.24,-490.36000000000007
956,1715411575440,3.43,-0.37,0.98,151.37,154.24,-490.36
957,1715411575450,2.6040721649484535,-0.6352061855670103,0.7375257731958763,190.9625773195876,202.9058762886598,-554.527731958763
958,1715411575460,2.34,-0.72,0.66,211.84999999999997,228.58000000000004,-588.38
959,1715411575470,2.34,-0.72,0.66,211.85,228.58,-588.38
960,1715411575480,2.34,-0.72,0.66,211.85,228.58,-588.38
961,1715411575490,1.6516666666666666,-1.146111111111111,0.5043055555555556,266.99958333333336,168.53368055555558,-602.8472916666667
962,1715411575500,1.5,-1.24,0.47,286.07,147.77,-607.85
963,1715411575510,1.5,-1.24,0.47,286.07,147.77,-607.85
964,1715411575520,1.5,-1.24,0.47,286.07,147.77,-607.85
965,1715411575530,1.8534146341463418,-1.4854268292682926,0.6957926829268293,216.9283536585366,171.49786585365854,-530.3736585365854
966,1715411575540,1.86,-1.49,0.7,215.64,171.94,-528.93
967,1715411575550,1.86,-1.4899999999999998,0.7,215.63999999999996,171.94,-528.93
968,1715411575560,1.7405405405405407,-1.6481081081081081,0.6402702702702702,206.1218918918919,173.3337837837838,-528.514054054054
969,1715411575570,1.52,-1.94,0.53,176.51,177.67,-527.22
970,1715411575580,1.52,-1.94,0.53,176.51,177.67,-527.22
971,1715411575590,1.52,-1.94,0.53,176.51,177.67,-527.22
972,1715411575600,1.3664864864864865,-1.9616216216216216,0.41540540540540544,175.1485135135135,179.55236486486487,-519.1837162162162
973,1715411575610,0.81,-2.04,161.01,199.1,-435.73
974,1715411575620,0.81,-2.04,161.01,199.1,-435.72999999999996
975,1715411575630,0.5869426751592357,-2.04,-0.13859872611464968,171.40872611464968,185.93019108280257,-424.08617834394903
976,1715411575640,-0.21999999999999997,-2.04,-0.64,251.71,84.23,-334.17
977,1715411575650,-0.22,-2.04,-0.64,251.71,84.23,-334.17
978,1715411575660,-0.22,-2.04,-0.64,251.71,84.23,-334.17
979,1715411575670,-0.9025,-1.816875,-0.82375,275.961171875,52.57140625,-266.714609375
980,1715411575680,-1.78,-1.53,-1.06,315.06,1.53,-157.96
981,1715411575690,-1.78,-1.53,-1.06,315.06,1.53,-157.96
982,1715411575700,-1.7799999999999998,-1.5299999999999998,-1.06,315.06,1.5299999999999998,-157.96
983,1715411575710,-1.7632,-1.2654,-1.0138,269.5002,-2.8612,-105.72540000000001
984,1715411575720,-1.7399999999999998,-0.9,-0.95,107.97,-18.43,79.47
985,1715411575730,-1.7399999999999998,-0.9000000000000001,-0.95,107.97,-18.43,79.47
986,1715411575740,-1.74,-0.9000000000000001,-0.95,107.97,-18.43,79.47
987,1715411575750,-1.648235294117647,-0.7317647058823529,-0.7001960784313725,35.02777777777778,56.952222222222225,152.38555555555556
988,1715411575760,-1.5599999999999998,-0.57,-0.46,-56.15,151.18,243.53
989,1715411575770,-1.56,-0.57,-0.4600000000000001,-56.14999999999999,151.18,243.53000000000003
990,1715411575780,-1.56,-0.57,-0.46,-56.14999999999999,151.18,243.53
991,1715411575790,-1.2474251497005988,-0.5231137724550898,-0.5694011976047905,-177.61658682634732,158.494251497006,336.94820359281437
992,1715411575800,-0.96,-0.48,-0.67,-289.31,165.22,422.85
993,1715411575810,-0.96,-0.48,-0.67,-289.31,165.22,422.85
994,1715411575820,-0.4702816901408451,-0.8198591549295774,-0.43450704225352116,-314.89197183098594,134.46544600938967,439.72286384976525
995,1715411575830,0.87,-1.75,0.21,-459.59,-39.49,535.16
996,1715411575840,0.87,-1.75,0.21,-459.59,-39.49,535.16
997,1715411575850,0.8699999999999999,-1.75,0.21,-459.59,-39.49,535.16
998,1715411575860,0.9917532467532467,-1.7879870129870132,0.1983116883116883,-459.59000000000003,-39.49,535.16
999,1715411575870,2.12,-2.14,0.09,-283.6928947368421,-144.55631578947367,714.0648026315789
1000,1715411575880,2.12,-2.14,0.09,-277.71,-148.13,720.15
1001,1715411575890,2.12,-2.14,0.09,-277.71,-148.13,720.15
1002,1715411575900,2.2705882352941176,-2.172268907563025,0.18949579831932772,-257.8417647058823,-164.6664705882353,713.8064705882354
1003,1715411575910,2.68,-2.26,0.46,-129.94,-271.12,672.97
1004,1715411575920,2.68,-2.26,0.46,-129.94,-271.12,672.97
1005,1715411575930,2.68,-2.26,0.46,-129.94,-271.12,672.97
1006,1715411575940,2.7769696969696973,-1.9327272727272726,0.37818181818181823,-118.53272727272729,-245.22909090909093,672.1936363636364
1007,1715411575950,3.0,-1.18,0.19,-67.2,-128.72,668.7
1008,1715411575960,3.0,-1.18,0.19,-67.2,-128.72,668.7
1009,1715411575970,3.0,-1.18,0.19,-67.2,-128.72,668.7
1010,1715411575980,2.484848484848485,-0.9375757575757575,-0.2872727272727273,-83.89431818181818,-141.00022727272727,558.1716666666667
1011,1715411575990,2.32,-0.86,-0.44,-93.75,-148.25,492.92
1012,1715411576000,2.32,-0.8599999999999999,-0.44000000000000006,-93.75,-148.25,492.92
1013,1715411576010,2.32,-0.86,-0.44,-93.75,-148.25,492.92
1014,1715411576020,2.6192957746478873,-0.10295774647887324,0.4314788732394366,-20.213028169014084,-140.47014084507043,392.0061267605634
1015,1715411576030,2.66,0.55,21.0,-136.11,335.45
1016,1715411576040,2.66,0.55,21.0,-136.11,335.45
1017,1715411576050,2.66,0.55,21.0,-136.11,335.45
1018,1715411576060,2.969795918367347,0.6061224489795919,-0.07632653061224488,-53.36448979591837,2.5775510204081544,366.6451020408163
1019,1715411576070,3.1199999999999997,0.9000000000000001,-0.38,-89.42,69.82,381.77
1020,1715411576080,3.12,0.8999999999999999,-0.38,-89.42,69.82,381.77
1021,1715411576090,3.1200000000000006,0.9,-0.38,-89.42,69.82,381.77000000000004
1022,1715411576100,3.6058333333333334,0.8999999999999999,-0.03166666666666667,81.73833333333333,-6.521666666666667,6.203333333333333
1023,1715411576110,3.65,0.9,115.97,-21.79,-68.91
1024,1715411576120,3.65,0.9,115.97,-21.79,-68.91
1025,1715411576130,3.6146039603960394,0.6086633663366336,-0.09257425742574259,88.25480198019802,2.771039603960396,-84.99767326732673
1026,1715411576140,3.52,-0.17,-0.34,-35.34,112.29999999999998,-156.74
1027,1715411576150,3.5200000000000005,-0.17,-0.34,-35.34,112.29999999999998,-156.74
1028,1715411576160,3.5200000000000005,-0.17,-0.34,-35.34,112.29999999999998,-156.74
1029,1715411576170,3.568675496688742,-0.2687417218543046,-0.3413907284768212,-35.131854304635766,112.4871523178808,-157.46920529801326
1030,1715411576180,3.87,-0.88,-0.35,-3.9100000000000006,140.56,-266.85
1031,1715411576190,3.8699999999999997,-0.88,-0.35,-3.91,140.56,-266.85
1032,1715411576200,3.87,-0.88,-0.35,-3.91,140.56,-266.85
1033,1715411576210,3.702444444444444,-0.8193333333333334,-0.298,-10.192666666666666,142.424,-269.6086666666667
1034,1715411576220,3.29,-0.67,-0.17,-51.03,154.54,-287.54
1035,1715411576230,3.29,-0.67,-0.17,-51.03,154.54,-287.54
1036,1715411576240,3.2900000000000005,-0.67,-0.17,-51.03,154.54,-287.54
1037,1715411576250,3.29,-0.67,-0.17,-51.029999999999994,154.54,-287.54
1038,1715411576260,2.3606285714285713,-0.5918285714285714,0.11662857142857143,-1.6238857142857144,154.20337142857142,-348.41497142857145
1039,1715411576270,2.22,-0.58,0.16,12.08,154.11,-365.3
1040,1715411576280,2.22,-0.58,0.16,12.08,154.11,-365.3
1041,1715411576290,1.9094117647058826,-0.58,0.2247058823529412,57.23794117647059,127.06666666666668,-383.91098039215683
1042,1715411576300,1.74,-0.58,0.26,87.59,108.89,-396.42
1043,1715411576310,1.74,-0.58,0.26,87.59,108.89,-396.42
1044,1715411576320,1.74,-0.58,0.26,87.59,108.89,-396.42
1045,1715411576330,1.4899280575539569,-0.6425179856115107,0.30546762589928056,95.97115107913669,122.36496402877698,-408.1018705035971
1046,1715411576340,1.3,-0.69,0.34,106.37999999999998,139.1,-422.61
1047,1715411576350,1.3,-0.69,0.3400000000000001,106.38,139.1,-422.61000000000007
1048,1715411576360,1.3,-0.69,0.34,106.37999999999998,139.1,-422.61
1049,1715411576370,1.4305882352941175,-0.8641176470588235,0.4009411764705882,152.3470588235294,158.44447058823528,-455.8142352941176
1050,1715411576380,1.45,-0.89,0.41,159.18,161.32,-460.75
1051,1715411576390,1.45,-0.8899999999999999,0.41,159.18,161.32,-460.75
1052,1715411576400,1.4658677685950414,-0.9157851239669421,0.39016528925619837,155.35181818181817,163.93272727272728,-462.48727272727274
1053,1715411576410,1.53,-1.02,0.31,117.07000000000001,190.06,-479.86
1054,1715411576420,1.53,-1.02,0.31,117.07,190.06,-479.86000000000007
1055,1715411576430,1.53,-1.02,0.31,117.07,190.06,-479.86
1056,1715411576440,1.314453125,-1.221640625,0.29609375,118.58874999999999,198.24859375,-468.16984375
1057,1715411576450,1.22,-1.31,0.29,120.67,209.47,-452.15
1058,1715411576460,1.22,-1.31,0.29,120.67,209.47,-452.15
1059,1715411576470,1.22,-1.31,0.29,120.67,209.47,-452.15
1060,1715411576480,0.3257342657342657,-1.0864335664335665,-0.15713286713286714,257.08608391608396,25.990979020979022,-472.5258741258741
1061,1715411576490,0.3,-1.08,-0.17,276.73,-0.43,-475.46
1062,1715411576500,0.3,-1.08,-0.17,276.73,-0.43,-475.46
1063,1715411576510,0.3,-1.08,-0.17,276.73,-0.43,-475.46
1064,1715411576520,-1.69,-1.7600000000000002,-0.15,183.81081395348838,46.83453488372093,-373.6245348837209
1065,1715411576530,-1.6899999999999997,-1.76,-0.15,164.18000000000004,56.82,-352.11000000000007
1066,1715411576540,-1.69,-1.76,-0.15,164.18,56.82,-352.11
1067,1715411576550,-1.69,-1.76,-0.15,164.18,56.82,-352.11
1068,1715411576560,-2.4241772151898733,-1.6017721518987342,-0.8398734177215189,158.6207594936709,55.28132911392405,-338.24601265822787
1069,1715411576570,-2.85,-1.51,-1.24,38.7,22.09,-39.18
1070,1715411576580,-2.85,-1.51,-1.24,38.7,22.09,-39.18
1071,1715411576590,-2.628,-1.408,-1.1019999999999999,13.356315789473689,23.799473684210525,21.016315789473687
1072,1715411576600,-1.74,-1.0,-0.55,-98.88,31.37,287.6
1073,1715411576610,-1.7399999999999998,-1.0,-0.55,-98.88,31.37,287.6
1074,1715411576620,-1.74,-1.0,-0.55,-98.87999999999998,31.369999999999997,287.6
1075,1715411576630,-1.541311475409836,-1.002950819672131,-0.4939344262295082,-98.88,31.37,287.6
1076,1715411576640,0.28,-1.03,0.02,-204.42418604651164,86.72813953488372,554.5581395348837
1077,1715411576650,0.28,-1.03,0.02,-212.34,90.88,574.58
1078,1715411576660,0.28,-1.03,0.02,-212.34,90.88,574.58
1079,1715411576670,0.4876510067114094,-1.0474496644295301,-0.08469798657718121,-206.22563758389262,63.045369127516764,578.4081879194631
1080,1715411576680,1.4700000000000002,-1.13,-0.58,-155.4,-168.33,610.23
1081,1715411576690,1.47,-1.13,-0.58,-155.4,-168.33,610.23
1082,1715411576700,1.47,-1.13,-0.58,-155.4,-168.33,610.23
1083,1715411576710,1.7410982658959537,-1.5427167630057803,-0.25630057803468204,-143.4479768786127,-173.8986705202312,627.6434104046243
1084,1715411576720,2.14,-2.15,0.21999999999999997,-119.75,-184.94,662.17
1085,1715411576730,2.14,-2.15,0.22,-119.75,-184.94,662.17
1086,1715411576740,2.14,-2.15,0.22,-119.75,-184.94,662.17
1087,1715411576750,2.3605,-1.1504,-0.41945,-16.330699999999997,-156.0827,582.8027500000001
1088,1715411576760,2.44,-0.79,-0.65,40.59,-140.2,539.12
1089,1715411576770,2.44,-0.79,-0.65,40.59,-140.2,539.12
1090,1715411576780,2.44,-0.7900000000000001,-0.65,40.59,-140.2,539.12
1091,1715411576790,1.8338805970149255,-0.9757462686567164,0.4644776119402985,-63.791641791044775,-47.24485074626865,481.734552238806
1092,1715411576800,1.82,-0.98,0.49,-83.19,-29.970000000000002,471.06999999999994
1093,1715411576810,1.82,-0.9799999999999999,0.48999999999999994,-83.19,-29.97,471.07000000000005
1094,1715411576820,1.8199999999999998,-0.9800000000000001,0.49000000000000005,-83.19,-29.97,471.07
1095,1715411576830,2.15696,-1.2608,0.1156,-173.322,52.728,596.9356
1096,1715411576840,2.18,-1.28,0.09,-190.49,68.48,620.91
1097,1715411576850,2.18,-1.28,0.09,-190.49,68.48,620.91
1098,1715411576860,2.18,-1.28,0.09,-190.49,68.48,620.91
1099,1715411576870,2.185483870967742,-0.7041935483870968,0.19145161290322582,-190.49,68.48,620.91
1100,1715411576880,2.2,0.82,0.46,-35.12157894736842,-45.431578947368415,401.7078947368421
1101,1715411576890,2.2,0.82,0.46,-26.49,-51.76,389.53
1102,1715411576900,2.2604026845637586,0.645503355704698,0.384496644295302,-23.71791946308725,-47.203221476510066,373.4701342281879
1103,1715411576910,2.56,-0.22,0.01,7.93,4.82,190.12
1104,1715411576920,2.56,-0.22,0.01,7.93,4.82,190.11999999999998
1105,1715411576930,2.56,-0.22,0.01,7.93,4.82,190.12
1106,1715411576940,2.7389830508474575,-2.3521674250532977e-18,0.0211864406779661,5.194067796610169,2.793559322033899,138.25830508474576
1107,1715411576950,3.04,0.37,0.04,-3.6,-3.72,-28.44
1108,1715411576960,3.04,0.37,0.04,-3.6,-3.72,-28.439999999999998
1109,1715411576970,3.04,0.37,0.04,-3.6,-3.72,-28.44
1110,1715411576980,3.3500799999999997,-0.14679999999999999,0.19232,-64.62208,61.85583999999999,-61.9784
1111,1715411576990,3.61,-0.58,0.32,-147.52,150.94,-107.54
1112,1715411577000,3.6100000000000003,-0.58,0.32,-147.52,150.94,-107.54
1113,1715411577010,3.602372881355932,-0.6040254237288135,0.30703389830508476,-147.52,150.94,-107.54
1114,1715411577020,3.41,-1.21,-0.02,-65.59024,199.68816,-272.268
1115,1715411577030,3.41,-1.21,-0.02,-60.73,202.58,-282.04
1116,1715411577040,3.41,-1.21,-0.02,-60.73,202.58,-282.04
1117,1715411577050,3.3952513966480447,-1.2049720670391062,-0.015307262569832404,-60.73,202.58,-282.04
1118,1715411577060,2.97,-1.06,0.12,-15.543881578947369,143.71480263157892,-337.80059210526315
1119,1715411577070,2.97,-1.06,0.11999999999999998,-12.7,140.01,-341.31
1120,1715411577080,2.97,-1.06,0.12,-12.7,140.01,-341.31
1121,1715411577090,2.896666666666667,-1.0133333333333334,0.1322222222222222,-13.693535353535353,140.2273737373737,-343.0954545454545
1122,1715411577100,2.31,-0.64,0.23,-37.29,145.39,-385.5
1123,1715411577110,2.31,-0.64,0.23,-37.29,145.39,-385.5
1124,1715411577120,2.31,-0.64,0.23,-37.29,145.39,-385.5
1125,1715411577130,2.3010588235294116,-0.6370588235294118,0.23258823529411765,-37.29,145.39,-385.5
1126,1715411577140,1.55,-0.39,0.45,-2.435496688741721,155.35,-391.1341059602649
1127,1715411577150,1.55,-0.39,0.45,26.12,163.51,-395.75
1128,1715411577160,1.55,-0.39,0.45,26.12,163.51,-395.75
1129,1715411577170,1.55,-0.39,0.45,26.12,163.51,-395.75
1130,1715411577180,1.463157894736842,-0.3263157894736842,0.34578947368421054,40.247485380116956,174.41619883040934,-418.66730994152044
1131,1715411577190,1.4,-0.28,0.27,51.82,183.35,-437.44
1132,1715411577200,1.4,-0.28,0.27,51.82,183.35,-437.44
1133,1715411577210,1.4745061728395061,-0.4684567901234568,0.3751851851851852,58.085,211.45499999999998,-441.0722222222222
1134,1715411577220,1.57,-0.71,0.51,67.93,255.62,-446.78
1135,1715411577230,1.57,-0.71,0.51,67.93,255.62000000000003,-446.78
1136,1715411577240,1.5700000000000003,-0.71,0.51,67.93,255.62,-446.78
1137,1715411577250,1.4745454545454546,-0.8281818181818182,0.3327272727272727,85.91000000000001,249.1802424242424,-439.6336969696969
1138,1715411577260,1.36,-0.97,0.11999999999999998,119.08,237.3,-426.45
1139,1715411577270,1.36,-0.9700000000000001,0.12,119.08,237.3,-426.44999999999993
1140,1715411577280,1.36,-0.9699999999999999,0.11999999999999998,119.08,237.29999999999998,-426.45
1141,1715411577290,1.3665584415584417,-1.0093506493506494,0.13967532467532467,138.8846753246753,224.83090909090907,-425.9357142857143
1142,1715411577300,1.37,-1.03,0.15,161.44,210.63,-425.35
1143,1715411577310,1.37,-1.03,0.15,161.44,210.63,-425.3500000000001
1144,1715411577320,1.37,-1.03,0.15,161.44,210.63,-425.35
1145,1715411577330,0.7798039215686274,-0.7686274509803921,0.015098039215686275,244.6532026143791,140.35509803921568,-427.13732026143794
1146,1715411577340,0.67,-0.72,-0.01,266.66,121.76999999999998,-427.60999999999996
1147,1715411577350,0.67,-0.72,-0.01,266.66,121.77,-427.61000000000007
1148,1715411577360,0.5456521739130435,-0.7327536231884058,-0.03231884057971014,267.68695652173915,120.35934782608696,-426.0589130434783
1149,1715411577370,-0.89,-0.88,-0.29,313.9,56.88,-356.26
1150,1715411577380,-0.89,-0.88,-0.29,313.9,56.879999999999995,-356.26
1151,1715411577390,-0.89,-0.88,-0.29,313.9,56.88,-356.26
1152,1715411577400,-0.9807086614173228,-0.8559055118110236,-0.3303937007874016,313.9,56.88,-356.26
1153,1715411577410,-2.17,-0.54,-0.86,199.5058031088083,-31.16145077720207,-138.03658031088082
1154,1715411577420,-2.17,-0.54,-0.86,198.91,-31.62,-136.9
1155,1715411577430,-2.17,-0.54,-0.86,198.91,-31.62,-136.9
1156,1715411577440,-2.525555555555555,-0.8777777777777779,-0.8244444444444444,31.310396825396825,8.87563492063492,45.515079365079366
1157,1715411577450,-2.57,-0.92,-0.82,-23.38,22.09,105.04
1158,1715411577460,-2.57,-0.92,-0.82,-23.38,22.09,105.04
1159,1715411577470,-2.57,-0.92,-0.82,-23.38,22.09,105.04
1160,1715411577480,-2.2959259259259257,-0.9437037037037037,-0.734074074074074,-23.38,22.09,105.03999999999999
1161,1715411577490,-0.72,-1.08,-0.24,-136.9766896551724,21.171931034482757,336.0060689655172
1162,1715411577500,-0.72,-1.08,-0.24000000000000002,-181.76000000000002,20.81,427.06000000000006
1163,1715411577510,-0.72,-1.08,-0.23999999999999996,-181.76,20.81,427.06
1164,1715411577520,0.26175757575757574,-1.4503636363636363,-0.05775757575757575,-180.5621818181818,-8.281272727272729,533.9701818181818
1165,1715411577530,0.95,-1.71,0.07,-179.32,-38.45,644.84
1166,1715411577540,0.95,-1.71,0.07,-179.32,-38.45,644.84
1167,1715411577550,0.95,-1.71,0.07,-179.32,-38.45,644.84
1168,1715411577560,1.574927536231884,-1.6034782608695652,-0.057826086956521736,-105.38326086956522,-81.25753623188406,664.5586956521738
1169,1715411577570,1.83,-1.56,-0.11,-46.81,-115.17,680.18
1170,1715411577580,1.83,-1.5599999999999998,-0.11,-46.81,-115.17,680.18
1171,1715411577590,1.83,-1.56,-0.11,-46.81,-115.17,680.18
1172,1715411577600,1.9453548387096773,-1.3965806451612903,0.043806451612903224,-17.279032258064515,-116.70483870967742,641.5238709677419
1173,1715411577610,1.9499999999999997,-1.39,0.05,-11.6,-117.0,634.09
1174,1715411577620,1.95,-1.39,0.05,-11.6,-117.0,634.09
1175,1715411577630,1.95,-1.39,0.05,-11.6,-117.0,634.09
1176,1715411577640,1.5458156028368795,-0.768936170212766,0.2077304964539007,3.218439716312057,-53.39943262411347,507.20546099290783
1177,1715411577650,1.5400000000000003,-0.76,0.21000000000000002,5.25,-44.68,489.81
1178,1715411577660,1.54,-0.76,0.21,5.25,-44.68,489.81
1179,1715411577670,1.5146938775510204,-0.7722448979591836,0.17897959183673467,5.25,-44.68,489.81000000000006
1180,1715411577680,1.23,-0.9099999999999999,-0.17,-61.95,-59.080000000000005,454.53
1181,1715411577690,1.23,-0.91,-0.17,-61.95,-59.08,454.53
1182,1715411577700,1.23,-0.91,-0.17,-61.949999999999996,-59.080000000000005,454.53
1183,1715411577710,2.375625,-0.47125,0.39875000000000005,-49.50107142857143,-77.38696428571428,438.66749999999996
1184,1715411577720,2.64,-0.37,0.53,-36.13,-97.05,421.63
1185,1715411577730,2.64,-0.37,0.53,-36.13,-97.05,421.63
1186,1715411577740,2.64,-0.37,0.53,-36.13,-97.05,421.63
1187,1715411577750,2.3876106194690268,-0.11761061946902654,0.27353982300884955,-116.28398230088496,34.611769911504425,385.106814159292
1188,1715411577760,2.02,0.25,-0.1,-233.03,226.38,331.91
1189,1715411577770,2.02,0.25,-0.1,-233.03,226.38,331.91
1190,1715411577780,2.02,0.25,-0.1,-233.03,226.38,331.91
1191,1715411577790,2.960078125,0.17124999999999999,0.03781249999999999,-100.10000000000001,49.768359375,159.565625
1192,1715411577800,3.93,0.09,0.18,37.05,-132.45,-18.25
1193,1715411577810,3.9300000000000006,0.09,0.18,37.05,-132.45,-18.25
1194,1715411577820,3.9904385964912277,-0.2493859649122807,0.22649122807017544,20.166315789473682,-92.13763157894736,-24.329736842105266
1195,1715411577830,4.06,-0.64,0.28,-76.17,137.88,-59.02000000000001
1196,1715411577840,4.06,-0.64,0.28,-76.17,137.88,-59.02
1197,1715411577850,4.06,-0.64,0.28,-76.17,137.88,-59.02
1198,1715411577860,3.7688235294117645,-0.6730882352941175,0.03514705882352942,-16.870882352941177,113.96,-144.41088235294117
1199,1715411577870,3.62,-0.69,-0.09,78.92,75.32,-282.35
1200,1715411577880,3.62,-0.69,-0.09,78.92,75.32,-282.35
1201,1715411577890,3.62,-0.69,-0.09,78.92,75.32,-282.35
1202,1715411577900,3.4928323699421964,-0.6613872832369941,-0.010520231213872829,62.75121387283237,81.02173410404623,-294.5296531791908
1203,1715411577910,3.22,-0.6,0.16,1.22,102.72,-340.88
1204,1715411577920,3.22,-0.6,0.16,1.22,102.72,-340.88
1205,1715411577930,3.22,-0.6,0.16,1.22,102.72,-340.88
1206,1715411577940,2.856326530612245,-0.4861224489795918,0.18571428571428572,7.467619047619047,108.86721088435374,-354.9761904761905
1207,1715411577950,2.23,-0.29,0.23,23.62,124.76,-391.42
1208,1715411577960,2.23,-0.29,0.23,23.62,124.76,-391.42
1209,1715411577970,2.23,-0.29,0.23,23.62,124.76,-391.42
1210,1715411577980,1.791796875,-0.30234374999999997,0.378125,38.016875,136.3359375,-411.23031249999997
1211,1715411577990,1.52,-0.31,0.47,50.72,146.55,-428.71000000000004
1212,1715411578000,1.52,-0.31,0.47,50.72,146.55,-428.71
1213,1715411578010,1.52,-0.31000000000000005,0.47,50.72,146.55,-428.71
1214,1715411578020,1.4235365853658535,-0.48225609756097565,0.3597560975609756,72.35768292682927,166.17256097560974,-434.93573170731713
1215,1715411578030,1.38,-0.56,0.31,85.51,178.1,-438.72
1216,1715411578040,1.38,-0.56,0.31,85.51,178.1,-438.72
1217,1715411578050,1.38,-0.56,0.31,85.51,178.1,-438.72
1218,1715411578060,1.3894,-0.7668,0.5826,110.83205,190.93625,-453.24330000000003
1219,1715411578070,1.39,-0.78,0.6,116.58,193.85,-456.54
1220,1715411578080,1.39,-0.78,0.6,116.58,193.85,-456.54
1221,1715411578090,1.39,-0.78,0.6,116.58,193.85,-456.54
1222,1715411578100,1.5570454545454546,-0.8436363636363636,0.48863636363636365,122.88795454545455,214.92159090909092,-471.3990909090909
1223,1715411578110,1.6,-0.86,0.46,124.51,220.34,-475.22
1224,1715411578120,1.6,-0.86,0.46,124.51,220.34,-475.22
1225,1715411578130,1.5465714285714287,-0.9182857142857143,0.443,124.51,220.34,-475.22
1226,1715411578140,1.38,-1.1,0.39,174.506050955414,176.57261146496816,-477.0738853503185
1227,1715411578150,1.38,-1.1,0.39,175.48,175.72,-477.11
1228,1715411578160,1.38,-1.1,0.39,175.48,175.72,-477.11
1229,1715411578170,1.243841463414634,-1.1,0.3121951219512195,175.48,175.72,-477.11000000000007
1230,1715411578180,0.61,-1.1,-0.05,247.6646153846154,94.01211538461538,-483.75961538461536
1231,1715411578190,0.61,-1.1,-0.05,249.08,92.41,-483.89
1232,1715411578200,0.61,-1.1,-0.05,249.08,92.41,-483.89
1233,1715411578210,-0.4277931034482759,-1.2395862068965517,-0.353448275862069,277.8582758620689,39.344482758620686,-440.27310344827583
1234,1715411578220,-1.1,-1.33,-0.55,324.95,-47.49,-368.9
1235,1715411578230,-1.1,-1.33,-0.55,324.95,-47.49,-368.9
1236,1715411578240,-1.1,-1.33,-0.55,324.95,-47.49,-368.9
1237,1715411578250,-2.4,-1.3977083333333333,-1.2880208333333332,252.32135416666665,-71.61552083333333,-212.62552083333333
1238,1715411578260,-3.02,-1.43,-1.64,198.18,-89.6,-96.13
1239,1715411578270,-3.02,-1.43,-1.6400000000000001,198.18,-89.60000000000001,-96.12999999999998
1240,1715411578280,-3.02,-1.43,-1.64,198.18,-89.6,-96.13
1241,1715411578290,-2.5252054794520546,-1.1826027397260275,-0.943835616438356,102.39986301369863,-114.73767123287672,46.82342465753425
1242,1715411578300,-2.16,-1.0,-0.43,-1.59,-142.03,202.03
1243,1715411578310,-2.16,-1.0,-0.43,-1.59,-142.03,202.03
1244,1715411578320,-2.1501875000000004,-1.0006875000000002,-0.4259375,-1.59,-142.03,202.03
1245,1715411578330,-0.59,-1.11,0.22,-146.58788321167884,26.705766423357666,494.2667883211679
1246,1715411578340,-0.59,-1.11,0.22,-155.58,37.17,512.39
1247,1715411578350,-0.59,-1.11,0.21999999999999997,-155.58,37.17,512.39
1248,1715411578360,-0.4558333333333333,-1.1400000000000001,0.205,-155.58,37.17,512.39
1249,1715411578370,1.02,-1.47,0.04,-172.4018181818182,36.595454545454544,640.9863636363636
1250,1715411578380,1.02,-1.4700000000000002,0.04,-178.71,36.38,689.21
1251,1715411578390,1.02,-1.47,0.04,-178.71,36.38,689.21
1252,1715411578400,1.02,-1.47,0.04,-178.71,36.38,689.21
1253,1715411578410,1.2750684931506848,-1.641780821917808,0.05041095890410959,-136.13698630136986,18.14260273972603,713.0849315068493
1254,1715411578420,2.0,-2.13,0.08,-15.14,-33.69,780.94
1255,1715411578430,2.0,-2.13,0.08000000000000002,-15.14,-33.69,780.94
1256,1715411578440,1.8926315789473684,-0.9668421052631578,-0.671578947368421,-7.414122807017544,-80.80929824561403,681.0281578947369
1257,1715411578450,1.88,-0.83,-0.76,-1.59,-116.33,605.71
1258,1715411578460,1.88,-0.83,-0.76,-1.59,-116.33,605.71
1259,1715411578470,1.88,-0.83,-0.76,-1.59,-116.33,605.71
1260,1715411578480,1.5466666666666666,-1.4264912280701756,0.2926315789473684,-55.08859649122807,-111.17350877192983,573.8370175438597
1261,1715411578490,1.5,-1.51,0.44,-140.2,-102.97,523.13
1262,1715411578500,1.5,-1.51,0.44,-140.2,-102.96999999999998,523.13
1263,1715411578510,1.5,-1.51,0.44,-140.2,-102.97,523.13
1264,1715411578520,1.4726315789473683,-1.3640350877192982,0.4263157894736842,-135.58166666666665,-68.05666666666667,528.6949999999999
1265,1715411578530,,,,,,
1266,1715411578540,,,,,,
1267,1715411578550,1.44,-1.19,0.41,-112.48999999999998,106.51000000000002,556.52
1268,1715411578560,1.2851528384279476,-0.7426637554585153,0.040087336244541485,-179.00336244541484,130.3779475982533,439.0849781659389
1269,1715411578570,1.26,-0.67,-0.02,-191.41,134.83,417.18
1270,1715411578580,1.26,-0.67,-0.02,-191.41,134.83,417.18
1271,1715411578590,1.26,-0.67,-0.02,-191.41,134.83,417.18
1272,1715411578600,2.67931914893617,-1.0688936170212766,0.6293617021276596,-288.5470212765958,141.6827659574468,385.91191489361705
1273,1715411578610,2.79,-1.1,0.68,-321.11,143.98,375.43
1274,1715411578620,2.79,-1.1,0.68,-321.11,143.98,375.43
1275,1715411578630,2.7962569832402235,-1.0993854748603353,0.6799441340782123,-321.11,143.98,375.43
1276,1715411578640,3.9100000000000006,-0.99,0.67,-115.55914893617022,-134.46524822695034,161.41248226950356
1277,1715411578650,3.91,-0.99,0.67,-92.9,-165.16,137.82
1278,1715411578660,3.91,-0.99,0.67,-92.9,-165.16,137.82
1279,1715411578670,4.0649723756906075,-0.8970165745856353,0.9270718232044199,-83.61270718232045,-160.20972375690607,109.46751381215469
1280,1715411578680,4.76,-0.48,2.08,-8.85,-120.36,-118.77
1281,1715411578690,4.76,-0.48,2.08,-8.85,-120.36,-118.77
1282,1715411578700,4.76,-0.48,2.08,-8.85,-120.36,-118.77
1283,1715411578710,3.905408805031447,-1.4737106918238994,0.8577358490566037,4.4722641509433965,220.70264150943396,-186.93
1284,1715411578720,3.9,-1.48,0.85,5.86,256.23,-194.03
1285,1715411578730,3.9000000000000004,-1.48,0.85,5.86,256.23,-194.03
1286,1715411578740,3.707262569832402,-1.3849162011173184,0.5775977653631285,19.295977653631287,248.13854748603353,-209.87368715083798
1287,1715411578750,3.15,-1.11,-0.21,78.74,212.34,-279.97
1288,1715411578760,3.15,-1.11,-0.21,78.74,212.34,-279.97
1289,1715411578770,3.15,-1.11,-0.21,78.74,212.34,-279.97
1290,1715411578780,2.8649999999999998,-1.0511413043478262,-0.02413043478260869,90.9861956521739,170.28065217391304,-303.3895652173913
1291,1715411578790,2.23,-0.92,0.39,132.39,28.08,-382.57
1292,1715411578800,2.23,-0.92,0.39,132.39,28.079999999999995,-382.56999999999994
1293,1715411578810,2.23,-0.9199999999999999,0.39000000000000007,132.39,28.08,-382.57
1294,1715411578820,2.143984962406015,-0.7792481203007519,0.45646616541353385,121.76714285714284,42.35067669172932,-394.33451127819546
1295,1715411578830,2.01,-0.56,0.56,105.22,64.58,-412.66
1296,1715411578840,2.01,-0.56,0.56,105.22,64.58,-412.66
1297,1715411578850,2.01,-0.56,0.56,105.22,64.58,-412.66
1298,1715411578860,1.9137908496732026,-0.7043137254901961,0.5539869281045752,130.0537908496732,87.6183660130719,-448.12620915032676
1299,1715411578870,1.85,-0.8,0.55,161.93,117.19,-493.65
1300,1715411578880,1.85,-0.8,0.55,161.93,117.19000000000001,-493.65
1301,1715411578890,1.85,-0.8,0.55,161.93,117.18999999999998,-493.65
1302,1715411578900,1.8119607843137255,-1.0028758169934642,0.43588235294117644,178.61980392156863,123.4535294117647,-513.2386274509804
1303,1715411578910,1.79,-1.12,0.37,200.62,131.71,-539.06
1304,1715411578920,1.79,-1.12,0.37,200.62,131.71,-539.06
1305,1715411578930,1.7900000000000003,-1.12,0.37,200.62,131.71,-539.06
1306,1715411578940,1.8864788732394366,-1.3708450704225352,0.456830985915493,200.62,131.71,-539.06
1307,1715411578950,1.8900000000000001,-1.38,0.46,200.62,131.71,-539.06
1308,1715411578960,1.89,-1.38,0.45999999999999996,200.62,131.71,-539.06
1309,1715411578970,1.8899999999999997,-1.38,0.46,200.62,131.71,-539.06
1310,1715411578980,1.89,-1.38,0.46,200.62,131.71,-539.06
1311,1715411578990,1.8899999999999997,-1.38,0.46,200.62,131.71,-539.06
1312,1715411579000,1.89,-1.38,0.46,200.62,131.71,-539.06
1313,1715411579010,1.8899999999999997,-1.38,0.46,200.62,131.71,-539.06
1314,1715411579020,1.8899999999999997,-1.38,0.46,200.62,131.71,-539.06
1315,1715411579030,1.89,-1.38,0.46,200.62,131.71,-539.06
1316,1715411579040,1.89,-1.38,0.4600000000000001,200.62,131.71,-539.06
1317,1715411579050,1.89,-1.38,0.46,200.62,131.71,-539.06
1318,1715411579060,1.8900000000000001,-1.38,0.46,200.62,131.71,-539.06
1319,1715411579070,1.8899999999999997,-1.38,0.4600000000000001,200.62,131.71,-539.06
1320,1715411579080,1.89,-1.38,0.46,200.62,131.71,-539.06
1321,1715411579090,1.8900000000000001,-1.38,0.46,200.62,131.71,-539.06
