id,timestamp,acc_x,acc_y,acc_z,gyro_x,gyro_y,gyro_z
0,1715411622110,3.43,-2.14,-0.72,60.3,240.36,-385.19
1,1715411622120,3.43,-2.14,-0.72,60.300000000000004,240.36,-385.19
2,1715411622130,3.3747949526813876,-2.0947318611987384,-0.6681072555205048,58.573627760252364,234.35943217665616,-389.6218611987382
3,1715411622140,2.93,-1.73,-0.25,34.24,149.78,-452.09
4,1715411622150,2.93,-1.73,-0.25,34.24,149.78,-452.09000000000003
5,1715411622160,2.93,-1.7299999999999998,-0.25,34.24,149.78,-452.09
6,1715411622170,2.883363914373089,-1.692691131498471,-0.171651376146789,47.75755351681957,138.62660550458716,-467.4146483180428
7,1715411622180,2.68,-1.5300000000000002,0.17,134.7,66.89,-565.98
8,1715411622190,2.68,-1.53,0.17,134.7,66.89,-565.98
9,1715411622200,2.68,-1.53,0.17,134.7,66.89,-565.98
10,1715411622210,2.555375722543353,-1.5210982658959535,0.1878034682080925,144.99624277456647,63.13063583815029,-571.2681502890173
11,1715411622220,2.12,-1.49,0.25,197.2,44.07,-598.08
12,1715411622230,2.12,-1.49,0.25,197.2,44.07,-598.08
13,1715411622240,2.12,-1.49,0.25,197.2,44.07,-598.08
14,1715411622250,2.1844404332129965,-1.4040794223826716,0.3052346570397112,189.7754512635379,37.835631768953064,-605.1046931407942
15,1715411622260,2.33,-1.21,0.43,157.65,10.86,-635.5
16,1715411622270,2.33,-1.21,0.43,157.65,10.86,-635.5
17,1715411622280,2.33,-1.21,0.43,157.65,10.86,-635.5
18,1715411622290,2.4632919254658385,-1.357080745341615,0.5035403726708074,128.5686645962733,40.587670807453414,-648.9866149068323
19,1715411622300,2.62,-1.53,0.59,80.26,89.97,-671.39
20,1715411622310,2.62,-1.53,0.59,80.26,89.97,-671.39
21,1715411622320,2.62,-1.53,0.59,80.26,89.97,-671.39
22,1715411622330,2.61821752265861,-1.5692145015105738,0.5650453172205439,78.2816918429003,90.26788519637462,-680.3633534743202
23,1715411622340,2.61,-1.75,0.45,68.97,91.67,-722.6
24,1715411622350,2.61,-1.75,0.45,68.97,91.67,-722.6
25,1715411622360,2.61,-1.75,0.45,68.97,91.67,-722.6
26,1715411622370,2.61,-1.75,0.45,68.97,91.67,-722.6
27,1715411622380,2.61,-1.75,0.45,68.97,91.67,-722.6
28,1715411622390,2.61,-1.75,0.45,68.97,91.67,-722.6
29,1715411622400,2.61,-1.75,0.45,68.97,91.67,-722.6
30,1715411622410,2.61,-1.75,0.45,68.97,91.67,-722.6
31,1715411622420,2.61,-1.75,0.45,68.97,91.67,-722.6
32,1715411622430,2.61,-1.75,0.44999999999999996,68.97,91.67,-722.6
33,1715411622440,2.61,-1.75,0.45000000000000007,68.97,91.67,-722.6
34,1715411622450,2.3038557993730406,-1.846489028213166,0.33564263322884014,81.33727272727273,91.21971786833856,-707.1129153605016
35,1715411622460,0.04,-2.56,-0.51,172.79,87.89,-592.59
36,1715411622470,0.04,-2.56,-0.51,172.79,87.89,-592.59
37,1715411622480,0.04,-2.56,-0.51,172.79,87.89,-592.59
38,1715411622490,0.04,-2.56,-0.51,172.79,87.89,-592.59
39,1715411622500,0.04,-2.56,-0.51,172.79,87.89,-592.59
40,1715411622510,0.04,-2.56,-0.51,172.79,87.89,-592.59
41,1715411622520,0.04,-2.56,-0.51,172.79,87.89,-592.59
42,1715411622530,-1.5550709219858154,-2.3141843971631206,-0.40698581560283686,-78.56234042553191,21.61421985815603,124.65645390070921
43,1715411622540,-1.92,-2.25,-0.37,-145.39,10.38,311.77
44,1715411622550,-0.22117647058823528,-2.2599346405228755,0.10686274509803922,-192.4491503267974,-24.538169934640525,588.0964705882352
45,1715411622560,-0.21,-2.26,0.11,-195.74,-26.98,607.42
46,1715411622570,-0.20999999999999996,-2.26,0.11,-195.74,-26.98,607.42
47,1715411622580,0.10358381502890174,-2.329364161849711,0.12300578034682082,-192.75156069364164,-31.227398843930636,620.2691329479769
48,1715411622590,1.96,-2.74,0.2,-144.04,-100.46,829.71
49,1715411622600,1.9600000000000002,-2.74,0.2,-144.04,-100.46,829.71
50,1715411622610,1.9600000000000002,-2.74,0.2,-144.04,-100.46,829.71
51,1715411622620,2.3697222222222223,-2.8893055555555556,0.1513888888888889,-144.04,-100.46,829.71
52,1715411622630,3.14,-3.17,0.06,-49.738,-210.1554857142857,929.7386857142857
53,1715411622640,3.14,-3.17,0.060000000000000005,-46.39,-214.04999999999998,933.2900000000001
54,1715411622650,3.14,-3.17,0.06,-46.39,-214.05,933.29
55,1715411622660,3.3216363636363635,-2.8214545454545457,-0.10690909090909093,-32.17045454545455,-207.0650909090909,903.374909090909
56,1715411622670,3.51,-2.46,-0.28,-8.24,-195.31,853.03
57,1715411622680,3.51,-2.46,-0.28,-8.24,-195.31,853.03
58,1715411622690,3.51,-2.46,-0.28,-8.24,-195.31,853.03
59,1715411622700,2.832315789473684,-2.3745263157894736,-0.11515789473684211,-33.15263157894737,-108.9558947368421,765.1651578947369
60,1715411622710,2.4,-2.32,-0.01,-59.68999999999999,-16.97,671.57
61,1715411622720,2.4,-2.32,-0.01,-59.690000000000005,-16.97,671.57
62,1715411622730,2.4,-2.32,-0.01,-59.69,-16.97,671.57
63,1715411622740,2.4,-2.32,-0.01,-59.69,-16.97,671.57
64,1715411622750,2.8343956043956045,-2.294065934065934,-0.1267032967032967,-53.41571428571429,35.410000000000004,676.7128571428572
65,1715411622760,3.07,-2.28,-0.19,-49.93000000000001,64.51,679.57
66,1715411622770,2.97375,-2.1512499999999997,-0.31,-52.65734375,49.62796875000001,663.7910937500001
67,1715411622780,2.3,-1.25,-1.15,-84.84,-125.97999999999999,477.6
68,1715411622790,2.3,-1.25,-1.15,-84.84,-125.98,477.6
69,1715411622800,2.3,-1.25,-1.15,-84.84,-125.98,477.6
70,1715411622810,2.3133640552995387,-1.2483410138248847,-1.1385714285714286,-84.16493087557605,-126.68709677419356,476.8394470046083
71,1715411622820,3.75,-1.07,0.09000000000000001,61.64999999999999,-279.42,312.56
72,1715411622830,3.75,-1.07,0.09,61.64999999999999,-279.42,312.56
73,1715411622840,3.75,-1.07,0.09,61.64999999999999,-279.42,312.56
74,1715411622850,3.75,-1.07,0.09,61.65,-279.42,312.56
75,1715411622860,3.495648854961832,-0.3523664122137405,0.3988549618320611,-96.66526717557251,27.656450381679388,152.87389312977098
76,1715411622870,3.4700000000000006,-0.28,0.43000000000000005,-127.75,87.95,121.52
77,1715411622880,3.4699999999999998,-0.28,0.43,-127.75,87.95,121.51999999999998
78,1715411622890,3.47,-0.28,0.43000000000000005,-127.75,87.95,121.52
79,1715411622900,3.2630000000000003,-0.6445000000000001,0.22749999999999998,-51.6956875,93.9361875,12.912187499999996
80,1715411622910,3.01,-1.09,-0.02,43.64,101.44,-123.23
81,1715411622920,3.01,-1.09,-0.02,43.64,101.44,-123.23
82,1715411622930,3.153607305936073,-1.3733333333333333,-0.1946575342465753,48.22799086757991,103.21538812785387,-171.95214611872146
83,1715411622940,3.38,-1.82,-0.47,60.67,108.03000000000002,-304.08
84,1715411622950,3.38,-1.82,-0.47000000000000003,60.67,108.03,-304.08
85,1715411622960,3.38,-1.8199999999999998,-0.47,60.67,108.03,-304.08
86,1715411622970,3.2329508196721313,-1.9798360655737703,-0.3165573770491803,23.071967213114757,155.57491803278688,-336.4911475409836
87,1715411622980,3.1499999999999995,-2.07,-0.22999999999999998,-21.24,211.60999999999999,-374.69
88,1715411622990,3.15,-2.07,-0.23,-21.24,211.61,-374.69
89,1715411623000,3.1016981132075467,-2.0337735849056604,-0.23150943396226417,-21.24,211.61000000000004,-374.69
90,1715411623010,2.19,-1.35,-0.26,-12.546444444444443,240.1266666666667,-387.5917777777778
91,1715411623020,2.19,-1.35,-0.26,-7.75,255.86000000000004,-394.71
92,1715411623030,2.19,-1.35,-0.26,-7.75,255.86,-394.71
93,1715411623040,2.19,-1.35,-0.26,-7.75,255.86,-394.71
94,1715411623050,2.0810703363914373,-1.1070030581039756,0.033272171253822626,43.05311926605505,189.4033027522936,-419.6342201834862
95,1715411623060,2.06,-1.06,0.09,121.03,87.4,-457.89
96,1715411623070,2.06,-1.06,0.09,121.03,87.4,-457.89
97,1715411623080,2.06,-1.06,0.09,121.03,87.4,-457.89
98,1715411623090,2.100222222222222,-0.9152000000000001,0.4278666666666667,142.126,94.28800000000001,-510.522
99,1715411623100,2.11,-0.88,0.51,147.4,96.01,-523.68
100,1715411623110,2.11,-0.88,0.51,147.4,96.01,-523.68
101,1715411623120,2.11,-0.8800000000000001,0.51,147.4,96.01,-523.68
102,1715411623130,2.1498319327731092,-1.1090336134453784,0.350672268907563,155.97058823529412,138.07882352941178,-565.639411764706
103,1715411623140,2.15,-1.11,0.35,156.8,142.15,-569.7
104,1715411623150,2.15,-1.11,0.35,156.8,142.15,-569.7
105,1715411623160,2.289784946236559,-1.1229032258064517,0.3973118279569892,153.6735483870968,141.81193548387097,-580.4664516129033
106,1715411623170,2.8,-1.17,0.57,132.57,139.53,-653.1400000000001
107,1715411623180,2.8,-1.17,0.57,132.57,139.53,-653.14
108,1715411623190,2.8,-1.17,0.57,132.57,139.53,-653.14
109,1715411623200,2.7709859154929575,-1.518169014084507,0.6135211267605634,132.84063380281688,178.6299295774648,-656.8490140845071
110,1715411623210,2.76,-1.65,0.63,133.18,227.66,-661.5
111,1715411623220,2.76,-1.65,0.63,133.18,227.65999999999997,-661.5
112,1715411623230,2.76,-1.65,0.63,133.18,227.66,-661.5
113,1715411623240,2.1369426751592355,-1.8638853503184714,0.2487261146496815,212.12222929936308,183.32324840764332,-689.9415286624203
114,1715411623250,2.09,-1.88,0.22,230.77000000000004,172.85,-696.66
115,1715411623260,2.09,-1.88,0.22,230.76999999999998,172.85,-696.66
116,1715411623270,2.09,-1.88,0.22,230.77,172.85,-696.66
117,1715411623280,0.9673652694610777,-2.214730538922155,-0.2383233532934132,261.65287425149705,131.9548502994012,-657.1125748502994
118,1715411623290,-0.09,-2.53,-0.67,303.41,76.66,-603.64
119,1715411623300,-0.09,-2.53,-0.6699999999999999,303.41,76.66,-603.64
120,1715411623310,-0.09,-2.53,-0.67,303.41,76.66,-603.64
121,1715411623320,-1.745463917525773,-2.9190721649484535,-0.9827835051546393,266.18525773195876,-55.93999999999999,-403.3905154639175
122,1715411623330,-2.26,-3.04,-1.08,250.31,-112.49,-317.99
123,1715411623340,-2.26,-3.04,-1.08,250.31,-112.49,-317.99
124,1715411623350,-2.26,-3.04,-1.08,250.31,-112.49,-317.99
125,1715411623360,-2.9260064935064936,-2.647694805194805,-0.742435064935065,146.27022727272728,-74.93318181818181,-89.49000000000001
126,1715411623370,-2.99,-2.61,-0.7100000000000001,67.2,-46.39,84.17
127,1715411623380,-2.99,-2.6099999999999994,-0.71,67.2,-46.39,84.17000000000002
128,1715411623390,-2.746330275229358,-2.4852293577981652,-0.6424770642201835,42.194495412844034,-32.62853211009175,135.39055045871558
129,1715411623400,-1.33,-1.76,-0.25,-103.15,47.36,433.10999999999996
130,1715411623410,-1.33,-1.76,-0.25,-103.15,47.36,433.11000000000007
131,1715411623420,-1.33,-1.76,-0.25,-103.15,47.36,433.11
132,1715411623430,-0.30208633093525183,-1.683453237410072,-0.08597122302158273,-143.84553956834532,28.964172661870503,525.4130935251799
133,1715411623440,0.55,-1.62,0.05,-202.39,2.5,658.2
134,1715411623450,0.55,-1.62,0.05,-202.39,2.5,658.2
135,1715411623460,0.55,-1.62,0.05,-202.39,2.5,658.2
136,1715411623470,1.548905109489051,-2.2454014598540146,0.19766423357664234,-202.9856204379562,-99.19474452554745,733.910802919708
137,1715411623480,1.7,-2.34,0.22,-203.19,-134.09,759.89
138,1715411623490,1.7,-2.34,0.21999999999999997,-203.19,-134.09,759.89
139,1715411623500,1.719741935483871,-2.351225806451613,0.21961290322580646,-203.19,-134.09,759.89
140,1715411623510,2.21,-2.63,0.21,-67.17999999999999,-217.74096774193546,771.3683870967741
141,1715411623520,2.21,-2.63,0.21,-57.8,-223.50999999999996,772.16
142,1715411623530,2.21,-2.63,0.21,-57.79999999999999,-223.51000000000002,772.16
143,1715411623540,2.21,-2.5183116883116883,0.21779220779220776,-32.41961038961038,-219.96454545454546,754.3533766233767
144,1715411623550,2.21,-2.2,0.24,92.53,-202.51,666.69
145,1715411623560,2.21,-2.2,0.23999999999999996,92.53,-202.50999999999996,666.69
146,1715411623570,2.21,-2.2,0.23999999999999996,92.53,-202.50999999999996,666.69
147,1715411623580,2.124107142857143,-2.1396428571428574,0.19357142857142856,95.1861011904762,-171.0913988095238,656.0752678571429
148,1715411623590,1.84,-1.94,0.04,106.26,-40.1,611.82
149,1715411623600,1.84,-1.9399999999999997,0.04,106.26,-40.1,611.82
150,1715411623610,1.84,-1.9399999999999997,0.04,106.26,-40.1,611.82
151,1715411623620,1.8400000000000003,-1.793,-0.041,80.78318750000001,-21.3710625,604.0846875
152,1715411623630,1.8400000000000003,-1.45,-0.23000000000000004,-3.9100000000000006,40.89,578.37
153,1715411623640,1.84,-1.45,-0.23,-3.9099999999999997,40.89,578.37
154,1715411623650,1.84,-1.45,-0.23,-3.91,40.89,578.37
155,1715411623660,1.8400000000000003,-1.45,-0.23000000000000004,-3.91,40.89,578.37
156,1715411623670,3.147692307692308,-2.0076923076923077,-0.4319230769230769,-85.13549450549452,71.2921978021978,586.6015384615386
157,1715411623680,3.2,-2.03,-0.44000000000000006,-88.87,72.69,586.98
158,1715411623690,3.2,-2.03,-0.44,-88.87,72.69,586.98
159,1715411623700,3.5701123595505617,-1.7061516853932583,-0.5068258426966291,-115.65207865168539,19.723904494382023,492.4109831460674
160,1715411623710,3.92,-1.4,-0.57,-156.49,-61.04,348.21
161,1715411623720,3.92,-1.4,-0.57,-156.49,-61.04,348.21
162,1715411623730,3.92,-1.4,-0.57,-156.49,-61.04,348.21
163,1715411623740,4.347935103244837,-1.303834808259587,0.05026548672566372,-75.4773156342183,-141.0644837758112,201.30410029498523
164,1715411623750,4.81,-1.2,0.72,48.46000000000001,-263.49,-23.44
165,1715411623760,4.81,-1.2,0.72,48.46,-263.49,-23.44
166,1715411623770,4.81,-1.2,0.72,48.46,-263.49,-23.44
167,1715411623780,4.156114649681529,-1.3296496815286625,0.33105095541401275,60.592802547770695,-28.63012738853504,-129.73114649681528
168,1715411623790,3.65,-1.43,0.029999999999999995,73.36,218.51,-241.57999999999998
169,1715411623800,3.65,-1.43,0.03,73.36,218.51,-241.58000000000004
170,1715411623810,3.6500000000000004,-1.43,0.029999999999999995,73.36,218.50999999999996,-241.58
171,1715411623820,2.8942414860681116,-1.5253869969040248,-0.7624458204334366,95.97894736842106,208.84684210526316,-262.44736842105266
172,1715411623830,2.62,-1.56,-1.05,127.07999999999998,195.55999999999997,-291.14
173,1715411623840,2.62,-1.56,-1.05,127.08,195.56,-291.14
174,1715411623850,2.62,-1.56,-1.05,127.08,195.56,-291.14
175,1715411623860,2.158089171974522,-0.6361783439490446,-0.4726114649681529,63.38684713375797,88.09455414012739,-310.8172292993631
176,1715411623870,2.06,-0.44000000000000006,-0.35,48.65,63.23,-315.37
177,1715411623880,2.06,-0.44,-0.35,48.65,63.23,-315.37
178,1715411623890,2.06,-0.44,-0.35,48.65,63.23,-315.37
179,1715411623900,2.1564080459770114,-0.448764367816092,0.1495689655172414,25.689999999999998,80.74689655172413,-361.628132183908
180,1715411623910,2.17,-0.45,0.22,20.81,84.47,-371.46000000000004
181,1715411623920,2.17,-0.45,0.22,20.81,84.47,-371.46
182,1715411623930,2.17,-0.45,0.22,20.81,84.47,-371.46
183,1715411623940,2.3948022598870056,-0.5184180790960452,0.35683615819209036,53.84076271186441,130.91610169491526,-450.88652542372876
184,1715411623950,2.4,-0.52,0.36,60.18,139.83,-466.13
185,1715411623960,2.3883240223463686,-0.5847486033519553,0.36743016759776537,61.400446927374304,139.1988268156425,-467.82491620111733
186,1715411623970,2.29,-1.13,0.42999999999999994,133.0,102.17000000000002,-567.26
187,1715411623980,2.29,-1.13,0.43000000000000005,133.0,102.16999999999999,-567.26
188,1715411623990,2.29,-1.13,0.43,133.0,102.17,-567.26
189,1715411624000,2.470685714285714,-1.1796,0.43,144.33942857142858,93.71445714285714,-585.7374857142858
190,1715411624010,2.8,-1.27,0.43,178.1,68.54,-640.75
191,1715411624020,2.8,-1.27,0.43,178.1,68.54,-640.75
192,1715411624030,2.8,-1.27,0.43,178.1,68.54,-640.75
193,1715411624040,2.6585401459854014,-1.4821897810218978,0.3800729927007299,179.19598540145984,71.44364963503651,-660.5033576642336
194,1715411624050,2.46,-1.78,0.31,181.95,78.74,-710.14
195,1715411624060,2.46,-1.78,0.31,181.95,78.74,-710.14
196,1715411624070,2.46,-1.78,0.31,181.95,78.74,-710.14
197,1715411624080,2.414517766497462,-1.6597969543147209,0.3652284263959391,179.98989847715734,69.54629441624365,-708.3959898477158
198,1715411624090,2.32,-1.41,0.48,172.97,36.62,-702.15
199,1715411624100,2.32,-1.41,0.48,172.97,36.62,-702.15
200,1715411624110,2.32,-1.4100000000000001,0.48,172.97,36.62,-702.15
201,1715411624120,1.8966834170854272,-1.532110552763819,0.3131155778894472,175.1549246231156,35.07427135678392,-706.4193467336682
202,1715411624130,1.28,-1.71,0.07,183.84,28.929999999999996,-723.39
203,1715411624140,1.2800000000000002,-1.71,0.07,183.84000000000003,28.93,-723.3899999999999
204,1715411624150,1.1122522522522522,-1.7137837837837837,0.03846846846846848,183.350990990991,28.843153153153153,-721.6483783783784
205,1715411624160,-1.38,-1.7700000000000002,-0.43,102.42,14.469999999999999,-433.41
206,1715411624170,-1.38,-1.77,-0.43,102.42,14.47,-433.40999999999997
207,1715411624180,-1.38,-1.7699999999999998,-0.43,102.42,14.469999999999999,-433.41
208,1715411624190,-1.38,-1.7700000000000002,-0.43,102.42,14.47,-433.40999999999997
209,1715411624200,-2.061658536585366,-2.08409756097561,-0.6238048780487805,43.545853658536586,44.75487804878049,-298.19048780487805
210,1715411624210,-2.4,-2.24,-0.72,-34.73,85.02,-118.41
211,1715411624220,-2.4,-2.24,-0.72,-34.73,85.02,-118.41
212,1715411624230,-2.4,-2.24,-0.72,-34.73,85.02,-118.40999999999998
213,1715411624240,-2.1014084507042257,-2.1354929577464787,-0.6677464788732393,-30.924647887323943,16.16018779342723,152.20023474178404
214,1715411624250,-2.0,-2.1,-0.6500000000000001,-29.6,-7.81,246.40000000000003
215,1715411624260,-2.0,-2.1,-0.65,-29.6,-7.81,246.4
216,1715411624270,-2.0,-2.1,-0.65,-29.600000000000005,-7.81,246.4
217,1715411624280,-0.3261137440758294,-1.9265402843601895,0.13056872037914694,-107.78696682464455,-24.96516587677725,475.3494786729858
218,1715411624290,-0.07,-1.9,0.25,-119.75,-27.59,510.38
219,1715411624300,-0.07,-1.9,0.25,-119.75,-27.59,510.37999999999994
220,1715411624310,,,,,,
221,1715411624320,1.4131460674157303,-2.315280898876404,0.39831460674157304,-220.47539325842698,-17.69247191011236,715.1431460674158
222,1715411624330,1.43,-2.32,0.4,-221.62,-17.58,717.47
223,1715411624340,1.43,-2.32,0.4,-221.62,-17.58,717.47
224,1715411624350,1.8457522123893804,-2.4107964601769907,0.3617699115044248,-217.43424778761062,-24.11725663716814,721.6099115044248
225,1715411624360,2.3,-2.51,0.32,-154.05,-123.11,784.3
226,1715411624370,2.3,-2.51,0.32,-154.05,-123.11,784.3000000000001
227,1715411624380,2.3,-2.51,0.32,-154.05,-123.11,784.3
228,1715411624390,2.4301724137931036,-2.2670114942528734,0.2592528735632184,-54.31413793103448,-148.48586206896553,766.9351724137931
229,1715411624400,2.45,-2.23,0.25,-22.580000000000002,-156.56,761.4099999999999
230,1715411624410,2.45,-2.23,0.25,-22.58,-156.56,761.4099999999999
231,1715411624420,2.4438125000000004,-2.217625,0.245875,-22.58,-156.56,761.41
232,1715411624430,2.12,-1.5699999999999998,0.029999999999999995,-41.6614201183432,-63.00272189349113,654.0747337278107
233,1715411624440,2.12,-1.57,0.030000000000000002,-43.52,-53.88999999999999,643.62
234,1715411624450,2.12,-1.57,0.03,-43.52,-53.89,643.62
235,1715411624460,2.1790000000000003,-1.5979999999999999,0.036,-43.52,-53.89,643.62
236,1715411624470,2.71,-1.85,0.09,-64.4405294117647,-194.8786470588235,601.1917647058824
237,1715411624480,2.71,-1.8499999999999999,0.09,-65.61,-202.76,598.82
238,1715411624490,2.71,-1.85,0.09,-65.61,-202.76,598.82
239,1715411624500,2.763664596273292,-1.4475155279503107,0.1287577639751553,-71.22180124223603,-151.78950310559006,600.8091304347827
240,1715411624510,2.89,-0.5,0.21999999999999997,-101.75,125.49,611.63
241,1715411624520,2.89,-0.5,0.22,-101.75,125.49,611.63
242,1715411624530,2.89,-0.5,0.22,-101.75,125.49000000000001,611.63
243,1715411624540,3.2567256637168143,-0.755221238938053,0.1902654867256637,-116.58849557522124,119.48566371681416,575.2189380530973
244,1715411624550,4.37,-1.53,0.09999999999999999,-190.0,89.78,395.08
245,1715411624560,4.37,-1.5300000000000002,0.1,-190.0,89.78,395.08
246,1715411624570,4.37,-1.53,0.1,-190.0,89.78,395.08
247,1715411624580,4.364474474474475,-1.5052552552552552,0.09903903903903905,-190.0,89.78,395.0799999999999
248,1715411624590,4.14,-0.5,0.06,-104.9684210526316,-6.402456140350877,43.56701754385965
249,1715411624600,4.14,-0.5,0.06,-103.45,-8.12,37.29
250,1715411624610,4.14,-0.5,0.06,-103.45,-8.12,37.29
251,1715411624620,4.090943396226415,-1.5105660377358492,0.9528301886792453,59.38981132075472,-7.744088050314465,-232.5885534591195
252,1715411624630,4.09,-1.53,0.97,82.82,-7.69,-271.42
253,1715411624640,4.09,-1.53,0.97,82.82,-7.69,-271.42
254,1715411624650,4.09,-1.53,0.9699999999999999,82.82,-7.69,-271.42
255,1715411624660,3.567341389728097,-1.378429003021148,0.15987915407854986,52.45341389728096,127.71477341389728,-258.02809667673716
256,1715411624670,3.0899999999999994,-1.24,-0.58,7.81,326.78,-238.33999999999997
257,1715411624680,3.09,-1.24,-0.58,7.81,326.78,-238.33999999999997
258,1715411624690,3.09,-1.24,-0.58,7.81,326.78,-238.34
259,1715411624700,2.397060518731988,-0.9034293948126801,-0.42161383285302595,45.18152737752161,161.01576368876079,-317.5043515850144
260,1715411624710,2.04,-0.73,-0.34,67.57,61.71,-364.93
261,1715411624720,2.04,-0.73,-0.34,67.57,61.71,-364.93
262,1715411624730,2.04,-0.73,-0.34,67.57,61.709999999999994,-364.92999999999995
263,1715411624740,2.287683615819209,-0.46683615819209034,0.22502824858757062,103.28858757062146,12.002485875706215,-394.4881920903955
264,1715411624750,2.36,-0.39,0.39,116.38999999999999,-6.230000000000001,-405.33
265,1715411624760,2.36,-0.39,0.39,116.39000000000001,-6.230000000000001,-405.33
266,1715411624770,2.36,-0.39,0.39,116.38999999999999,-6.230000000000001,-405.33
267,1715411624780,1.9636036036036035,-0.6242342342342343,0.22783783783783784,75.42675675675676,121.34405405405406,-442.65324324324325
268,1715411624790,1.92,-0.65,0.21,62.26,162.35,-454.65000000000003
269,1715411624800,1.92,-0.65,0.21,62.26,162.35,-454.65
270,1715411624810,1.92,-0.65,0.21000000000000002,62.260000000000005,162.35,-454.65000000000003
271,1715411624820,1.9377297297297298,-0.7209189189189189,0.16567567567567568,147.6967027027027,95.07816216216216,-527.5877297297297
272,1715411624830,1.94,-0.73,0.16,172.79,75.32,-549.01
273,1715411624840,1.9399999999999997,-0.73,0.16,172.79,75.32,-549.01
274,1715411624850,2.09,-0.799,0.298,165.4045625,80.30224999999999,-553.9292499999999
275,1715411624860,2.44,-0.96,0.62,116.52,113.28,-586.49
276,1715411624870,2.44,-0.96,0.62,116.52,113.28,-586.49
277,1715411624880,2.44,-0.96,0.62,116.52,113.28,-586.49
278,1715411624890,2.44,-0.96,0.62,116.52,113.28000000000002,-586.49
279,1715411624900,2.2619701492537314,-1.2567164179104477,0.3741492537313433,156.92429850746268,147.79235820895522,-600.0457014925373
280,1715411624910,2.23,-1.31,0.33,164.18,153.99,-602.48
281,1715411624920,2.23,-1.31,0.33,164.18,153.99,-602.48
282,1715411624930,2.057012987012987,-1.295974025974026,0.35805194805194807,196.3116017316017,106.45060606060606,-618.310303030303
283,1715411624940,1.86,-1.28,0.39,256.96,16.72,-648.19
284,1715411624950,1.86,-1.28,0.39,256.96,16.72,-648.19
285,1715411624960,1.86,-1.28,0.39,256.96,16.72,-648.19
286,1715411624970,1.2391975308641976,-1.5107407407407407,0.18123456790123457,240.47728395061728,-13.107777777777779,-657.7674691358025
287,1715411624980,0.73,-1.7,0.01,215.88,-57.62,-672.06
288,1715411624990,0.73,-1.7,0.01,215.88,-57.62,-672.06
289,1715411625000,0.73,-1.7,0.01,215.88000000000002,-57.61999999999999,-672.06
290,1715411625010,-1.7255621301775148,-2.5937869822485204,-0.3381065088757397,112.72668639053255,-29.33763313609467,-486.637100591716
291,1715411625020,-1.8800000000000001,-2.65,-0.36,39.79,-9.34,-355.53000000000003
292,1715411625030,-1.8799999999999997,-2.65,-0.36,39.79,-9.34,-355.53
293,1715411625040,-1.9959411764705883,-2.5801176470588234,-0.39811764705882347,38.28435294117647,-8.115294117647059,-349.163294117647
294,1715411625050,-2.61,-2.21,-0.6,-45.53,60.06,5.25
295,1715411625060,-2.61,-2.21,-0.6,-45.53,60.06,5.25
296,1715411625070,-2.61,-2.21,-0.6,-45.53,60.06,5.25
297,1715411625080,-2.205671641791045,-2.043134328358209,-0.5101492537313432,-45.53,60.06,5.25
298,1715411625090,-1.35,-1.69,-0.32,-76.61953642384105,44.01973509933775,261.34880794701985
299,1715411625100,-1.35,-1.6900000000000002,-0.32,-86.0,39.18,338.62
300,1715411625110,-1.35,-1.69,-0.32,-86.0,39.18,338.62
301,1715411625120,-0.73,-1.6963917525773193,-0.18577319587628865,-103.54597938144329,39.93319587628866,371.57701030927836
302,1715411625130,0.59,-1.7100000000000002,0.1,-216.92,44.8,584.53
303,1715411625140,0.59,-1.71,0.1,-216.92000000000002,44.8,584.53
304,1715411625150,0.59,-1.7100000000000002,0.1,-216.92,44.8,584.53
305,1715411625160,1.6265131578947367,-2.214736842105263,0.1630921052631579,-251.525,-14.112499999999999,684.9625
306,1715411625170,1.74,-2.27,0.17,-263.06,-33.75,718.44
307,1715411625180,1.7400000000000002,-2.27,0.17,-263.06,-33.75,718.44
308,1715411625190,1.74,-2.27,0.17,-263.06,-33.75,718.44
309,1715411625200,1.8452380952380953,-2.294761904761905,0.17154761904761906,-263.06,-33.75,718.44
310,1715411625210,2.42,-2.43,0.18,-193.73619047619047,-124.04702380952382,788.4542857142858
311,1715411625220,2.42,-2.43,0.18000000000000002,-182.74,-138.37,799.56
312,1715411625230,2.4034999999999997,-2.3768333333333334,0.13966666666666666,-181.42973333333336,-139.27,798.6094666666667
313,1715411625240,2.33,-2.14,-0.04,-84.47,-205.87,728.27
314,1715411625250,2.33,-2.14,-0.04,-84.47,-205.87000000000003,728.27
315,1715411625260,2.33,-2.14,-0.04,-84.47,-205.87,728.27
316,1715411625270,2.2736144578313255,-2.0742168674698793,-0.08698795180722892,-45.99120481927711,-219.9403614457831,694.0678313253012
317,1715411625280,2.15,-1.93,-0.19,92.96,-270.75,570.56
318,1715411625290,2.15,-1.93,-0.19,92.96,-270.75,570.56
319,1715411625300,2.15,-1.93,-0.18999999999999997,92.96,-270.75,570.56
320,1715411625310,3.0713846153846154,-1.236923076923077,0.18507692307692308,20.623538461538462,-67.46715384615385,616.8126153846154
321,1715411625320,3.2799999999999994,-1.08,0.27,-12.700000000000001,26.18,638.12
322,1715411625330,3.2799999999999994,-1.08,0.27,-12.7,26.179999999999996,638.12
323,1715411625340,3.2799999999999994,-1.08,0.27,-12.7,26.18,638.12
324,1715411625350,3.421385767790262,-0.7576404494382023,0.1795131086142322,-147.9913857677903,81.82082397003745,543.1420599250936
325,1715411625360,3.5299999999999994,-0.51,0.11,-284.3,137.88,447.45
326,1715411625370,3.53,-0.51,0.11,-284.3,137.88,447.45000000000005
327,1715411625380,3.53,-0.51,0.11,-284.3,137.88,447.45
328,1715411625390,3.737278106508876,-0.43644970414201184,0.12337278106508877,-231.08076923076925,142.8762130177515,318.6839644970414
329,1715411625400,3.84,-0.4,0.13,-195.25,146.24,231.99
330,1715411625410,3.84,-0.4,0.13,-195.25,146.24,231.99
331,1715411625420,3.8400000000000003,-0.4,0.13,-195.25,146.24,231.98999999999998
332,1715411625430,4.512352941176471,-0.5494117647058823,0.7724705882352941,-11.712911764705883,-52.326117647058815,-43.657058823529404
333,1715411625440,4.74,-0.6,0.99,97.72,-170.72,-208.00999999999996
334,1715411625450,4.74,-0.6,0.9900000000000001,97.72000000000001,-170.72,-208.00999999999996
335,1715411625460,4.74,-0.6,0.99,97.72,-170.72,-208.01
336,1715411625470,4.261052631578948,-1.4473684210526316,0.4668421052631579,67.90421052631578,122.14333333333335,-243.96362573099415
337,1715411625480,4.09,-1.75,0.28,48.22,315.49,-267.7
338,1715411625490,4.09,-1.75,0.28,48.22,315.49,-267.7
339,1715411625500,4.09,-1.75,0.28,48.22,315.49,-267.7
340,1715411625510,3.478695652173913,-1.5569565217391304,-0.20797101449275363,92.59855072463768,237.23768115942028,-326.0205797101449
341,1715411625520,2.95,-1.39,-0.63,130.98,169.56,-376.46
342,1715411625530,2.95,-1.39,-0.63,130.98,169.56,-376.46
343,1715411625540,2.95,-1.39,-0.63,130.98,169.56,-376.46
344,1715411625550,2.3226162790697673,-0.9432267441860466,0.2540406976744186,158.00875,28.5625,-421.6975
345,1715411625560,2.29,-0.92,0.3,161.87,8.42,-428.16
346,1715411625570,2.29,-0.92,0.3,161.87,8.42,-428.16
347,1715411625580,2.29,-0.9199999999999999,0.3,161.87,8.42,-428.16
348,1715411625590,1.8948338368580058,-0.7322960725075528,0.2703625377643505,136.4474320241692,102.05036253776434,-461.67030211480363
349,1715411625600,1.89,-0.73,0.27,134.46,109.37,-464.28999999999996
350,1715411625610,1.89,-0.73,0.27,134.46,109.37,-464.28999999999996
351,1715411625620,1.9167763157894735,-0.7373026315789474,0.2797368421052632,133.97000000000003,108.95078947368421,-465.2826315789474
352,1715411625630,2.0,-0.76,0.31,115.84,93.44000000000001,-502.01000000000005
353,1715411625640,2.0,-0.76,0.31,115.84,93.44000000000001,-502.01000000000005
354,1715411625650,2.0,-0.76,0.31,115.83999999999999,93.44,-502.01
355,1715411625660,2.0900000000000003,-0.95,0.315,124.46653846153845,94.17615384615384,-520.6803846153846
356,1715411625670,2.18,-1.14,0.32,156.62,96.91999999999999,-590.27
357,1715411625680,2.18,-1.14,0.32,156.62,96.92000000000002,-590.27
358,1715411625690,2.18,-1.14,0.32,156.62,96.92,-590.27
359,1715411625700,2.0599374999999998,-1.2953750000000002,0.35531250000000003,159.62,102.122,-609.422
360,1715411625710,2.01,-1.36,0.37,161.62,105.59,-622.19
361,1715411625720,2.01,-1.36,0.37,161.62,105.59,-622.19
362,1715411625730,2.01,-1.36,0.37,161.62,105.59,-622.19
363,1715411625740,1.8362500000000002,-1.3517261904761906,0.32035714285714284,118.12833333333334,133.34958333333333,-622.5370833333333
364,1715411625750,1.8,-1.35,0.31,100.22,144.78,-622.68
365,1715411625760,1.8,-1.35,0.31,100.22,144.78,-622.68
366,1715411625770,1.8,-1.35,0.31,100.22,144.78,-622.68
367,1715411625780,1.0661490683229815,-1.522670807453416,0.007826086956521738,75.62857142857143,152.62285714285716,-602.9571428571428
368,1715411625790,0.9499999999999998,-1.55,-0.04,71.53,153.93,-599.67
369,1715411625800,0.95,-1.55,-0.04,71.53,153.93,-599.67
370,1715411625810,0.95,-1.55,-0.04,71.53,153.93,-599.67
371,1715411625820,0.022754491017964024,-1.902694610778443,-0.4666467065868264,109.44467065868265,179.8985628742515,-515.9220958083832
372,1715411625830,-0.68,-2.17,-0.7900000000000001,138.18,199.58,-452.45
373,1715411625840,-0.68,-2.17,-0.79,138.18,199.58,-452.45
374,1715411625850,-1.3726174496644297,-2.0733557046979865,-1.3376510067114094,130.28362416107385,183.72899328859063,-416.859932885906
375,1715411625860,-2.4,-1.93,-2.15,54.14,30.88,-73.67
376,1715411625870,-2.4,-1.9299999999999997,-2.15,54.13999999999999,30.879999999999995,-73.67
377,1715411625880,-2.4,-1.93,-2.15,54.14,30.88,-73.67
378,1715411625890,-2.095802469135802,-1.8865432098765433,-1.5687654320987654,14.023518518518522,2.541666666666665,9.312407407407408
379,1715411625900,-1.84,-1.85,-1.08,-78.49,-62.81,200.67999999999998
380,1715411625910,-1.84,-1.85,-1.08,-78.49,-62.81000000000001,200.68
381,1715411625920,-1.84,-1.8500000000000003,-1.08,-78.49,-62.81,200.67999999999998
382,1715411625930,-1.070539419087137,-1.7791286307053942,-0.6851452282157676,-149.24419087136928,-57.642282157676355,312.25423236514524
383,1715411625940,-0.32,-1.71,-0.3,-250.73,-50.230000000000004,472.29
384,1715411625950,-0.32,-1.71,-0.3,-250.72999999999996,-50.23,472.2900000000001
385,1715411625960,-0.32,-1.71,-0.3,-250.72999999999996,-50.22999999999999,472.2900000000001
386,1715411625970,1.162874251497006,-2.153053892215569,0.0707185628742515,-376.8307784431138,-95.23179640718563,612.3700598802395
387,1715411625980,1.32,-2.2,0.11,-421.94,-111.33,662.48
388,1715411625990,1.32,-2.2,0.11,-421.94,-111.33,662.48
389,1715411626000,1.3494797687861273,-2.228034682080925,0.10826589595375723,-421.94,-111.33,662.48
390,1715411626010,2.34,-3.1699999999999995,0.05,-363.75654761904764,-341.36303571428573,770.0530357142858
391,1715411626020,2.34,-3.17,0.05,-359.68,-357.48,777.59
392,1715411626030,2.34,-3.17,0.049999999999999996,-359.68,-357.48,777.59
393,1715411626040,2.6179856115107913,-3.179064748201439,-0.01647482014388489,-346.4515107913669,-367.82892086330935,779.2445323741008
394,1715411626050,3.26,-3.2,-0.17,-53.22,-597.23,815.92
395,1715411626060,3.26,-3.2,-0.17,-53.21999999999999,-597.23,815.92
396,1715411626070,3.2600000000000002,-3.2,-0.17,-53.220000000000006,-597.23,815.92
397,1715411626080,3.183090909090909,-2.7983636363636366,-0.11872727272727272,-26.682484848484847,-588.073696969697,796.0104242424243
398,1715411626090,2.99,-1.7900000000000003,0.01,204.35,-508.36,622.68
399,1715411626100,2.99,-1.79,0.01,204.35,-508.36,622.68
400,1715411626110,2.9323389830508475,-1.8147118644067797,0.16376271186440677,202.6957627118644,-444.0329152542373,604.8349152542372
401,1715411626120,2.78,-1.88,0.57,196.35,-197.27,536.38
402,1715411626130,2.78,-1.88,0.57,196.35,-197.27,536.38
403,1715411626140,2.78,-1.8799999999999997,0.57,196.35,-197.27,536.38
404,1715411626150,2.7420467836257307,-1.4832163742690059,0.2801754385964912,104.17543859649123,-10.13994152046785,551.6475438596491
405,1715411626160,2.67,-0.73,-0.27,-70.8,345.09,580.63
406,1715411626170,2.67,-0.73,-0.27,-70.8,345.09,580.63
407,1715411626180,2.67,-0.73,-0.27,-70.8,345.09,580.63
408,1715411626190,2.7374780058651025,-1.0466275659824047,-0.4153372434017596,-79.3375073313783,165.5132551319648,485.60302052785926
409,1715411626200,2.8,-1.34,-0.55,-89.11,-40.04,376.83
410,1715411626210,2.8,-1.34,-0.55,-89.11,-40.04,376.83
411,1715411626220,2.8,-1.34,-0.55,-89.11,-40.04,376.83
412,1715411626230,3.2852325581395347,-0.7116860465116279,-0.05232558139534886,-60.22994186046511,-60.2464534883721,237.49401162790699
413,1715411626240,3.58,-0.33000000000000007,0.25,-37.9,-75.87,129.76
414,1715411626250,3.58,-0.33,0.25,-37.9,-75.87,129.76
415,1715411626260,3.5799999999999996,-0.33,0.25,-37.9,-75.87,129.76
416,1715411626270,3.4931764705882355,-0.7930588235294117,0.127,-1.1450588235294112,-28.801411764705882,-27.164352941176475
417,1715411626280,3.46,-0.9699999999999999,0.08,16.91,-5.68,-104.25
418,1715411626290,3.46,-0.97,0.08,16.91,-5.68,-104.25
419,1715411626300,3.4600000000000004,-0.97,0.08,16.91,-5.68,-104.25
420,1715411626310,3.357083333333333,-1.4257738095238095,-0.2655059523809524,9.766785714285714,95.15232142857141,-208.23690476190478
421,1715411626320,3.32,-1.59,-0.39,6.29,144.23,-258.85
422,1715411626330,3.32,-1.59,-0.39,6.29,144.23,-258.85
423,1715411626340,3.32,-1.59,-0.39,6.29,144.23,-258.85
424,1715411626350,2.6400625,-1.4160625000000002,-0.50859375,-15.493937500000001,144.49325,-290.3156875
425,1715411626360,2.46,-1.37,-0.54,-23.5,144.59,-301.88
426,1715411626370,2.46,-1.37,-0.5400000000000001,-23.5,144.59,-301.88
427,1715411626380,2.46,-1.37,-0.54,-23.5,144.59,-301.88
428,1715411626390,2.0145454545454546,-0.9427272727272727,-0.15818181818181817,43.26476489028213,63.26586206896552,-347.51561128526646
429,1715411626400,1.97,-0.9,-0.12,55.97,47.79,-356.2
430,1715411626410,1.9700000000000002,-0.9,-0.11999999999999998,55.97,47.79,-356.2
431,1715411626420,1.9700000000000002,-0.9,-0.11999999999999998,55.97,47.79,-356.2
432,1715411626430,1.9410843373493973,-0.6204819277108434,0.08240963855421686,48.449578313253014,85.70222891566264,-388.96078313253014
433,1715411626440,1.9399999999999997,-0.61,0.09,47.24,91.8,-394.23
434,1715411626450,1.9400000000000002,-0.61,0.09,47.24,91.8,-394.23
435,1715411626460,1.94,-0.61,0.09,47.24,91.8,-394.23
436,1715411626470,1.9007792207792207,-0.5413636363636364,0.15863636363636363,47.41649350649351,161.16194805194803,-447.4918181818182
437,1715411626480,1.9,-0.54,0.16,47.42,162.54,-448.55
438,1715411626490,1.9,-0.54,0.16,47.42,162.54,-448.55
439,1715411626500,1.8533544303797467,-0.6884177215189874,0.0879113924050633,56.71924050632911,150.91367088607595,-463.3191139240506
440,1715411626510,1.7900000000000003,-0.89,-0.01,108.64,86.0,-545.78
441,1715411626520,1.79,-0.8900000000000001,-0.010000000000000002,108.64000000000001,86.0,-545.78
442,1715411626530,1.7899999999999998,-0.89,-0.01,108.64000000000001,86.0,-545.78
443,1715411626540,2.2502247191011238,-0.7317977528089888,0.26325842696629215,140.0285393258427,36.50089887640449,-605.5593258426966
444,1715411626550,2.43,-0.67,0.37,169.37,-9.77,-661.44
445,1715411626560,2.43,-0.67,0.37,169.37,-9.77,-661.44
446,1715411626570,2.43,-0.67,0.37,169.37,-9.77,-661.44
447,1715411626580,2.5885611510791366,-0.9704316546762591,0.46179856115107915,114.35561151079136,22.330719424460433,-697.0946762589929
448,1715411626590,2.62,-1.03,0.48,92.9,34.85,-711.0
449,1715411626600,2.62,-1.03,0.48,92.9,34.85,-711.0
450,1715411626610,2.617446808510638,-1.0414893617021277,0.47106382978723405,92.9,34.85,-711.0
451,1715411626620,2.58,-1.21,0.34,32.07870689655172,138.29577586206898,-696.1695689655172
452,1715411626630,2.5800000000000005,-1.2099999999999997,0.34,-6.47,203.85999999999999,-686.7699999999999
453,1715411626640,2.58,-1.21,0.34,-6.47,203.86,-686.77
454,1715411626650,2.5799999999999996,-1.2100000000000002,0.34,-6.47,203.86,-686.7700000000001
455,1715411626660,0.7140298507462686,-1.8055223880597016,-0.1364179104477612,30.42261194029851,246.68798507462688,-616.0715671641791
456,1715411626670,0.7,-1.81,-0.14,30.7,247.01,-615.54
457,1715411626680,0.7,-1.81,-0.14,30.7,247.01,-615.54
458,1715411626690,-0.6871755725190839,-1.8276335877862597,-0.7042748091603054,60.84839694656488,210.33458015267175,-512.4560305343512
459,1715411626700,-1.66,-1.84,-1.1,92.41,171.94,-404.54
460,1715411626710,-1.66,-1.84,-1.1,92.41,171.94,-404.54
461,1715411626720,-1.66,-1.84,-1.1,92.41,171.94,-404.54
462,1715411626730,-2.3504306220095694,-1.7284688995215312,-1.4930143540669858,92.41,171.94,-404.54
463,1715411626740,-2.96,-1.63,-1.8400000000000003,53.56078260869565,-35.411130434782606,-76.12086956521739
464,1715411626750,-2.96,-1.63,-1.8400000000000003,53.22,-37.23,-73.24
465,1715411626760,-2.96,-1.63,-1.84,53.22,-37.23,-73.24
466,1715411626770,-2.378292682926829,-1.5860975609756098,-1.2034146341463416,-43.658699186991875,-78.00109756097561,61.8569918699187
467,1715411626780,-1.9,-1.55,-0.68,-143.74,-120.12,201.42
468,1715411626790,-1.9,-1.55,-0.68,-143.74,-120.12,201.42
469,1715411626800,-1.9,-1.5500000000000003,-0.68,-143.74,-120.12,201.42
470,1715411626810,-1.5197402597402598,-1.5520779220779222,-0.4950649350649351,-159.64441558441558,-113.84051948051948,252.46623376623376
471,1715411626820,-0.07,-1.56,0.21,-220.28,-89.9,447.08
472,1715411626830,-0.07,-1.56,0.20999999999999996,-220.28000000000003,-89.9,447.0799999999999
473,1715411626840,-0.07,-1.56,0.21,-220.28,-89.9,447.08
474,1715411626850,0.4554310344827587,-1.7381896551724139,0.23284482758620692,-192.83879310344827,-91.23870689655173,539.6929310344827
475,1715411626860,1.08,-1.9499999999999997,0.26,-160.22,-92.83,649.78
476,1715411626870,1.08,-1.95,0.26,-160.22,-92.83,649.78
477,1715411626880,1.08,-1.95,0.26,-160.22,-92.83,649.78
478,1715411626890,1.622285714285714,-2.0334285714285714,0.05977142857142858,-73.604,-136.2964,705.8535999999999
479,1715411626900,1.73,-2.05,0.02,-39.92,-153.2,727.6600000000001
480,1715411626910,1.73,-2.05,0.02,-39.92,-153.2,727.66
481,1715411626920,1.73,-2.05,0.02,-39.92,-153.2,727.66
482,1715411626930,1.7510780669144983,-1.8673234200743494,0.02,-8.141710037174722,-175.71806691449814,694.1764312267658
483,1715411626940,1.76,-1.79,0.02,5.55,-185.42,679.75
484,1715411626950,1.76,-1.79,0.02,5.55,-185.42,679.75
485,1715411626960,1.7322834645669292,-1.7380314960629921,0.056377952755905514,4.599921259842519,-183.30653543307085,678.7262204724409
486,1715411626970,1.6,-1.49,0.23,-34.67,-95.95,636.41
487,1715411626980,1.6,-1.49,0.23,-34.67,-95.95,636.41
488,1715411626990,1.6,-1.49,0.23,-34.67,-95.95,636.41
489,1715411627000,1.458803418803419,-1.2378632478632479,0.1392307692307692,-42.331538461538464,-56.86692307692308,620.3361538461538
490,1715411627010,1.32,-0.9900000000000001,0.05,-59.57,31.069999999999997,584.17
491,1715411627020,1.32,-0.99,0.05,-59.57,31.07,584.17
492,1715411627030,1.32,-0.99,0.05,-59.56999999999999,31.07,584.17
493,1715411627040,1.8275,-0.9025,-0.30874999999999997,-166.55,76.115,453.8425
494,1715411627050,1.9,-0.89,-0.36,-202.21,91.13,410.4
495,1715411627060,1.9,-0.89,-0.36,-202.21,91.13,410.4
496,1715411627070,2.04525,-0.9454166666666667,-0.31858333333333333,-202.21,91.12999999999998,410.4
497,1715411627080,4.39,-1.84,0.3499999999999999,-235.68036036036037,-176.19675675675677,330.9415315315315
498,1715411627090,4.39,-1.84,0.35,-238.28,-196.96,324.77
499,1715411627100,4.39,-1.84,0.35,-238.28,-196.96,324.77
500,1715411627110,4.715,-1.511875,0.5968749999999999,-237.88671875,-190.6515625,321.21359375
501,1715411627120,5.43,-0.7900000000000001,1.14,-221.5,72.2,173.03
502,1715411627130,5.429999999999999,-0.7900000000000001,1.14,-221.5,72.2,173.03
503,1715411627140,5.430000000000001,-0.7899999999999999,1.14,-221.5,72.2,173.03
504,1715411627150,4.964210526315789,-0.9918421052631579,1.0985964912280701,-120.37578947368421,59.990526315789474,44.58736842105263
505,1715411627160,4.53,-1.18,1.06,52.98,39.06,-175.6
506,1715411627170,4.53,-1.18,1.06,52.98,39.06,-175.6
507,1715411627180,4.53,-1.18,1.06,52.98,39.06,-175.6
508,1715411627190,3.4967175572519085,-0.9862595419847328,0.32091603053435114,50.00381679389313,164.8022900763359,-205.62870229007635
509,1715411627200,3.09,-0.91,0.03,47.85,255.8,-227.36
510,1715411627210,3.09,-0.91,0.03,47.85,255.80000000000004,-227.36
511,1715411627220,3.09,-0.91,0.03,47.85,255.8,-227.36
512,1715411627230,2.5867539267015704,-0.7142931937172775,-0.00261780104712042,61.45246073298429,202.10104712041885,-260.4125654450262
513,1715411627240,2.01,-0.48999999999999994,-0.04,83.44,115.3,-313.84
514,1715411627250,2.01,-0.49,-0.04,83.44,115.3,-313.84
515,1715411627260,2.01,-0.49,-0.04,83.44,115.29999999999998,-313.84
516,1715411627270,1.9042857142857141,-0.4232330827067669,0.22706766917293233,116.0281954887218,85.07443609022556,-341.4208270676691
517,1715411627280,1.82,-0.37,0.44,148.13,55.3,-368.59
518,1715411627290,1.82,-0.37,0.44,148.13,55.3,-368.5899999999999
519,1715411627300,1.82,-0.37,0.44,148.13,55.3,-368.59
520,1715411627310,1.7252941176470589,-0.39029411764705885,0.4264705882352941,133.5239075630252,91.90827731092436,-391.8082773109243
521,1715411627320,1.68,-0.4,0.42,114.38000000000001,139.89,-422.24
522,1715411627330,1.6799999999999997,-0.4,0.41999999999999993,114.38,139.89,-422.24
523,1715411627340,1.68,-0.4,0.42,114.38,139.89,-422.24
524,1715411627350,1.5833333333333333,-0.4932142857142857,0.3578571428571428,150.60238095238097,119.5140476190476,-433.6397619047619
525,1715411627360,1.4,-0.67,0.24,219.3,80.87,-455.26
526,1715411627370,1.4,-0.67,0.24,219.3,80.87,-455.26
527,1715411627380,1.4,-0.67,0.23999999999999996,219.3,80.87,-455.26
528,1715411627390,1.89875,-0.73125,0.56375,196.444,46.158,-508.436
529,1715411627400,1.97,-0.74,0.61,190.73,37.48,-521.73
530,1715411627410,1.97,-0.74,0.61,190.73,37.48,-521.73
531,1715411627420,1.9700000000000002,-0.74,0.6100000000000001,190.73,37.48,-521.73
532,1715411627430,2.0092248062015505,-0.9459302325581395,0.413875968992248,211.2889147286822,20.408682170542637,-613.7462790697675
533,1715411627440,2.01,-0.9499999999999998,0.41,214.84,17.46,-629.64
534,1715411627450,2.01,-0.95,0.41,214.84,17.46,-629.64
535,1715411627460,1.9366929133858266,-1.0188188976377952,0.3860629921259842,215.731968503937,15.985354330708661,-629.5631496062992
536,1715411627470,1.52,-1.41,0.25,243.16,-29.36,-627.2
537,1715411627480,1.52,-1.41,0.25,243.16,-29.36,-627.2
538,1715411627490,1.52,-1.41,0.25,243.16,-29.36,-627.2
539,1715411627500,0.8633070866141732,-1.4430708661417322,0.07047244094488188,236.85897637795276,-54.076535433070866,-608.6829133858269
540,1715411627510,0.13,-1.48,-0.13,224.55,-102.36,-572.51
541,1715411627520,0.13,-1.48,-0.13,224.55,-102.36,-572.51
542,1715411627530,0.13,-1.48,-0.13,224.55000000000004,-102.36,-572.51
543,1715411627540,-0.8992553191489362,-1.1448936170212767,0.04553191489361701,84.80691489361702,-79.0568085106383,-396.51212765957445
544,1715411627550,-1.16,-1.06,0.09,22.46,-68.66,-317.99
545,1715411627560,-1.16,-1.06,0.09,22.46,-68.66,-317.99
546,1715411627570,-1.16,-1.06,0.09,22.46,-68.66,-317.99
547,1715411627580,-2.628421052631579,-1.4673684210526317,-0.06157894736842106,-79.31067669172933,147.44451127819548,-116.78097744360902
548,1715411627590,-2.71,-1.49,-0.07,-100.59,192.62999999999997,-74.71
549,1715411627600,-2.71,-1.49,-0.07,-100.59,192.63,-74.71
550,1715411627610,-2.662727272727273,-1.4518181818181817,-0.1190909090909091,-100.59,192.63,-74.71
551,1715411627620,-2.19,-1.07,-0.61,-116.44041666666666,115.73049999999999,203.32175
552,1715411627630,-2.19,-1.07,-0.61,-118.04,107.97,231.38
553,1715411627640,-2.19,-1.07,-0.61,-118.04,107.96999999999998,231.38
554,1715411627650,-2.19,-1.07,-0.61,-118.04,107.97,231.38
555,1715411627660,-1.045748031496063,-1.288267716535433,-0.021338582677165333,-107.30125984251968,30.65456692913386,359.44661417322834
556,1715411627670,-0.46,-1.4,0.28,-99.61,-24.72,451.17
557,1715411627680,-0.4600000000000001,-1.4,0.28,-99.61,-24.72,451.17
558,1715411627690,0.28328125,-1.551796875,0.35328125,-98.901015625,-2.793046875,529.351640625
559,1715411627700,0.96,-1.69,0.42,-97.96,26.31,633.12
560,1715411627710,0.96,-1.69,0.42,-97.96,26.31,633.12
561,1715411627720,0.96,-1.69,0.42,-97.96,26.310000000000002,633.12
562,1715411627730,1.5374509803921568,-1.801764705882353,0.3020261437908497,-95.98222222222222,19.634444444444444,664.9911111111111
563,1715411627740,1.89,-1.87,0.23,-93.51,11.29,704.83
564,1715411627750,1.89,-1.87,0.23,-93.51,11.29,704.83
565,1715411627760,1.89,-1.87,0.23,-93.51,11.29,704.83
566,1715411627770,1.7611111111111113,-1.6617948717948716,0.19034188034188035,-93.61769230769231,14.906666666666666,676.5697435897437
567,1715411627780,1.76,-1.66,0.19,-93.63,15.320000000000002,673.34
568,1715411627790,1.76,-1.66,0.19,-93.63,15.32,673.34
569,1715411627800,1.7406140350877193,-1.6383771929824562,0.17434210526315788,-93.63,15.32,673.34
570,1715411627810,1.5,-1.37,-0.02,-117.31,-31.98,634.89
571,1715411627820,1.5,-1.37,-0.02,-117.31,-31.98,634.89
572,1715411627830,1.5,-1.37,-0.02,-117.30999999999999,-31.98,634.89
573,1715411627840,1.4947967479674797,-1.3153658536585366,-0.023902439024390244,-114.94349593495936,-35.23317073170732,626.5269105691057
574,1715411627850,1.46,-0.95,-0.05,-86.66999999999999,-74.1,526.61
575,1715411627860,1.46,-0.95,-0.05,-86.67,-74.1,526.61
576,1715411627870,1.46,-0.95,-0.05,-86.66999999999999,-74.1,526.61
577,1715411627880,1.6872131147540983,-0.9422540983606558,-0.12487704918032788,-86.15393442622951,-70.74983606557376,526.7739344262295
578,1715411627890,2.34,-0.92,-0.34,-78.8,-23.01,529.11
579,1715411627900,2.34,-0.92,-0.34,-78.8,-23.010000000000005,529.11
580,1715411627910,2.34,-0.92,-0.34,-78.8,-23.01,529.11
581,1715411627920,2.8729268292682923,-1.0770731707317074,-0.22500000000000003,-119.73390243902439,-17.168292682926833,497.9376219512195
582,1715411627930,4.24,-1.48,0.07,-234.92,-0.73,410.22
583,1715411627940,4.24,-1.48,0.07,-234.92,-0.73,410.22
584,1715411627950,4.24,-1.48,0.07,-234.92,-0.73,410.22
585,1715411627960,4.267611336032389,-1.4238866396761134,0.12433198380566803,-234.92,-0.73,410.22
586,1715411627970,4.55,-0.85,0.68,-177.46690265486728,102.05672566371682,183.49345132743363
587,1715411627980,4.55,-0.85,0.68,-175.9,104.86,177.31
588,1715411627990,4.55,-0.85,0.68,-175.9,104.86,177.31
589,1715411628000,4.288666666666667,-1.1875555555555555,0.7888888888888889,-87.92200000000001,47.67477777777778,1.9894444444444523
590,1715411628010,4.07,-1.47,0.88,8.24,-14.83,-189.64
591,1715411628020,4.07,-1.47,0.88,8.24,-14.83,-189.64
592,1715411628030,4.07,-1.47,0.88,8.24,-14.83,-189.64
593,1715411628040,3.782755905511811,-1.3717322834645669,0.6078740157480316,14.466850393700787,65.93354330708662,-202.9724409448819
594,1715411628050,3.31,-1.21,0.16,33.75,316.04,-244.26
595,1715411628060,3.31,-1.21,0.16,33.75,316.04,-244.26
596,1715411628070,3.31,-1.2099999999999997,0.16,33.75,316.04,-244.26
597,1715411628080,2.5491666666666664,-0.9125833333333334,-0.2965,50.91875,254.92749999999998,-295.8725
598,1715411628090,2.21,-0.78,-0.5,61.22,218.26,-326.84
599,1715411628100,2.21,-0.78,-0.5,61.22,218.26,-326.84
600,1715411628110,2.21,-0.78,-0.5,61.22,218.26,-326.84
601,1715411628120,2.083103448275862,-0.5024137931034482,0.20586206896551726,101.23,122.82999999999998,-368.315
602,1715411628130,2.05,-0.43,0.39,141.24,27.4,-409.79
603,1715411628140,2.05,-0.43,0.39,141.24,27.4,-409.79
604,1715411628150,2.05,-0.43,0.38999999999999996,141.24,27.4,-409.79
605,1715411628160,2.2704587155963303,-0.3891743119266055,0.3736697247706422,141.57688073394496,60.3394495412844,-466.2175229357798
606,1715411628170,2.32,-0.38000000000000006,0.36999999999999994,141.78,80.2,-500.24
607,1715411628180,2.32,-0.38,0.37,141.78,80.2,-500.24
608,1715411628190,2.32,-0.38,0.37,141.78,80.2,-500.24
609,1715411628200,2.477857142857143,-0.9650000000000001,0.5278571428571429,127.06357142857144,146.13714285714283,-581.8678571428571
610,1715411628210,2.49,-1.01,0.54,123.05,164.12,-604.13
611,1715411628220,2.49,-1.01,0.54,123.05,164.12,-604.13
612,1715411628230,2.4988636363636365,-1.0188636363636365,0.5250000000000001,123.05,164.12,-604.13
613,1715411628240,2.62,-1.14,0.32,227.4209677419355,36.12645161290323,-642.8783870967742
614,1715411628250,2.62,-1.14,0.32,230.9,31.86,-644.17
615,1715411628260,2.7347286821705428,-1.217441860465116,0.45193798449612405,216.52418604651163,36.02744186046512,-664.0174418604652
616,1715411628270,3.02,-1.41,0.78,153.63,54.26,-750.85
617,1715411628280,3.02,-1.41,0.78,153.63,54.26,-750.85
618,1715411628290,3.02,-1.41,0.78,153.63,54.26,-750.85
619,1715411628300,2.555945945945946,-1.6443243243243242,0.40324324324324323,148.11333333333334,102.10999999999999,-737.75
620,1715411628310,2.01,-1.92,-0.04,137.08,197.81,-711.55
621,1715411628320,2.01,-1.92,-0.04,137.08,197.81,-711.55
622,1715411628330,2.01,-1.9200000000000002,-0.04,137.08,197.81,-711.55
623,1715411628340,0.48583333333333334,-1.988888888888889,-0.04861111111111111,173.66287037037037,140.45425925925926,-696.3944444444444
624,1715411628350,0.24,-2.0,-0.05,264.53,-2.01,-658.75
625,1715411628360,0.24,-2.0,-0.05,264.53,-2.01,-658.75
626,1715411628370,-0.584688796680498,-2.150414937759336,-0.3767634854771785,232.49784232365144,15.606224066390041,-608.1986721991701
627,1715411628380,-1.35,-2.29,-0.68,100.28,88.32,-399.54
628,1715411628390,-1.35,-2.29,-0.68,100.28,88.32,-399.54
629,1715411628400,-1.35,-2.29,-0.68,100.28,88.32,-399.54
630,1715411628410,-2.2882978723404253,-2.4880851063829788,-1.201276595744681,6.654361702127657,77.51585106382979,-216.25643617021277
631,1715411628420,-3.15,-2.67,-1.68,-81.18,67.38,-44.31
632,1715411628430,-3.1499999999999995,-2.67,-1.68,-81.18,67.38,-44.31
633,1715411628440,-3.15,-2.67,-1.68,-81.18,67.38,-44.31
634,1715411628450,-1.90064,-2.31304,-0.8807200000000001,-120.058,-45.88,190.932
635,1715411628460,-1.54,-2.21,-0.65,-136.72,-94.42,291.75
636,1715411628470,-1.54,-2.21,-0.65,-136.72,-94.42,291.75
637,1715411628480,-1.54,-2.21,-0.65,-136.72,-94.42,291.75
638,1715411628490,0.27714285714285714,-2.2383928571428573,0.2017857142857143,-214.11955357142855,-58.854375000000005,548.1736607142857
639,1715411628500,0.38,-2.24,0.25,-227.97,-52.49,594.06
640,1715411628510,0.38,-2.24,0.25,-227.97,-52.49,594.06
641,1715411628520,0.38000000000000006,-2.24,0.25,-227.97,-52.49,594.06
642,1715411628530,1.8276033057851238,-2.7193388429752066,0.2212396694214876,-227.97,-52.49,594.06
643,1715411628540,1.89,-2.74,0.22,-227.97,-52.49,594.06
644,1715411628550,1.89,-2.74,0.22,-227.97,-52.49,594.06
645,1715411628560,1.89,-2.74,0.22,-231.91811023622046,-55.239448818897635,619.5379527559055
646,1715411628570,2.1643621399176953,-2.8609053497942387,0.061893004115226344,-205.20378600823048,-130.52086419753084,844.3225102880658
647,1715411628580,2.48,-3.0,-0.12,-134.64,-189.39,845.89
648,1715411628590,2.48,-3.0,-0.12,-134.64,-189.39,845.89
649,1715411628600,2.3772477064220183,-2.7357798165137615,0.048807339449541284,-82.71880733944954,-221.00128440366973,783.6705504587155
650,1715411628610,2.34,-2.64,0.11000000000000001,-54.93,-237.92,750.37
651,1715411628620,2.34,-2.64,0.11,-54.93,-237.92,750.37
652,1715411628630,2.34,-2.64,0.11,-54.93,-237.91999999999996,750.37
653,1715411628640,2.34,-2.64,0.11,-54.93,-237.92000000000002,750.37
654,1715411628650,2.34,-2.64,0.11,-54.93,-237.92,750.37
655,1715411628660,2.34,-2.6400000000000006,0.11,-54.93,-237.92,750.37
656,1715411628670,2.34,-2.64,0.11,-54.93,-237.92,750.37
657,1715411628680,2.34,-2.64,0.11,-54.93,-237.92,750.37
658,1715411628690,2.34,-2.64,0.11,-54.93,-237.92,750.37
659,1715411628700,2.34,-2.64,0.11,-54.93,-237.92,750.37
660,1715411628710,2.34,-2.64,0.11,-54.93,-237.92,750.37
661,1715411628720,2.34,-2.64,0.11,-54.93,-237.92,750.37
662,1715411628730,2.34,-2.64,0.11,-54.93,-237.92,750.37
663,1715411628740,2.329242424242424,-2.606818181818182,0.09712121212121212,-53.37469696969697,-233.1712121212121,742.1059090909091
664,1715411628750,3.541794871794872,-1.0438461538461539,0.6753846153846155,-113.24820512820513,59.78632478632478,372.01076923076926
665,1715411628760,4.07,-1.09,1.06,-140.56,79.16,364.07
666,1715411628770,4.07,-1.09,1.06,-140.56,79.16,364.07
667,1715411628780,3.9715625,-1.00140625,0.863125,-129.836875,79.0625,337.0278125
668,1715411628790,3.37,-0.46,-0.34,-26.18,78.12,75.62
669,1715411628800,3.37,-0.46,-0.34,-26.18,78.12,75.62
670,1715411628810,3.37,-0.46,-0.34,-26.18,78.12,75.62
671,1715411628820,3.844778761061947,-1.0823451327433629,0.3657522123893805,-13.850265486725663,10.496283185840712,-73.74442477876107
672,1715411628830,4.11,-1.43,0.76,-5.07,-37.66,-180.11
673,1715411628840,4.11,-1.43,0.76,-5.07,-37.66,-180.11
674,1715411628850,4.11,-1.43,0.76,-5.07,-37.66,-180.11
675,1715411628860,3.5022399999999996,-1.74672,0.04096,10.22808,177.50144,-206.74592
676,1715411628870,3.4,-1.8,-0.08,16.91,271.48,-218.38
677,1715411628880,3.4,-1.8,-0.08,16.91,271.48,-218.38
678,1715411628890,3.4,-1.8,-0.08,16.91,271.48,-218.38000000000002
679,1715411628900,2.80703125,-1.09921875,-0.08898437499999999,29.557734375,154.0809375,-318.6925
680,1715411628910,2.74,-1.02,-0.09,32.04,131.04,-338.38
681,1715411628920,2.74,-1.02,-0.09,32.04,131.04,-338.38
682,1715411628930,2.715,-1.0164285714285715,-0.06551020408163265,32.04,131.04,-338.38
683,1715411628940,2.25,-0.95,0.39,77.13858585858586,83.11636363636364,-402.69636363636357
684,1715411628950,2.25,-0.95,0.39,80.57,79.47,-407.59
685,1715411628960,2.25,-0.95,0.39,80.57,79.47,-407.59
686,1715411628970,2.1443939393939395,-0.8572727272727273,0.3951515151515152,80.57,79.47,-407.59
687,1715411628980,1.84,-0.59,0.41,137.2578947368421,75.6628947368421,-479.79842105263157
688,1715411628990,1.84,-0.59,0.41,138.79,75.56,-481.75
689,1715411629000,1.84,-0.59,0.41,138.79,75.55999999999999,-481.75
690,1715411629010,1.9051162790697675,-0.6594573643410853,0.44906976744186045,143.12348837209302,77.73651162790698,-488.61651162790696
691,1715411629020,1.99,-0.75,0.5,165.41,88.93,-523.93
692,1715411629030,1.99,-0.75,0.5,165.41,88.93,-523.93
693,1715411629040,1.9900000000000002,-0.75,0.5,165.41,88.93,-523.93
694,1715411629050,2.1805882352941177,-0.9961764705882353,0.4682352941176471,162.65235294117647,120.35117647058823,-554.0570588235294
695,1715411629060,2.23,-1.06,0.46,159.55,155.7,-587.95
696,1715411629070,2.23,-1.06,0.46,159.55,155.7,-587.95
697,1715411629080,2.23,-1.06,0.46,159.55,155.7,-587.95
698,1715411629090,2.2663247863247866,-1.1050427350427352,0.49196581196581196,160.6048717948718,161.95222222222222,-589.2809401709403
699,1715411629100,2.48,-1.37,0.68,166.81000000000003,198.73,-597.11
700,1715411629110,2.48,-1.37,0.68,166.81,198.73,-597.11
701,1715411629120,2.4457142857142857,-1.3800000000000001,0.6228571428571429,169.13238095238094,195.85571428571427,-601.6990476190476
702,1715411629130,2.24,-1.44,0.28,215.58,138.37,-693.48
703,1715411629140,2.24,-1.44,0.28,215.58,138.37,-693.48
704,1715411629150,2.24,-1.44,0.28,215.58,138.37,-693.48
705,1715411629160,2.144140969162996,-1.521762114537445,0.2659030837004406,215.4235242290749,139.12092511013216,-692.453127753304
706,1715411629170,1.56,-2.02,0.18,203.74,195.19,-615.78
707,1715411629180,1.56,-2.02,0.18,203.74,195.19,-615.78
708,1715411629190,1.56,-2.02,0.18,203.74,195.19,-615.78
709,1715411629200,0.6404938271604939,-2.12320987654321,-0.26724279835390946,226.45621399176954,141.73794238683126,-585.5200411522634
710,1715411629210,-1.38,-2.35,-1.25,297.3,-24.96,-491.15
711,1715411629220,-1.38,-2.35,-1.25,297.3,-24.96,-491.15
712,1715411629230,-1.38,-2.35,-1.25,297.3,-24.96,-491.15
713,1715411629240,-1.6821428571428572,-2.253015873015873,-0.9665079365079365,243.16559523809525,-25.90119047619048,-413.98833333333334
714,1715411629250,-2.19,-2.09,-0.49,93.69,-28.5,-200.93
715,1715411629260,-2.19,-2.09,-0.49,93.69,-28.5,-200.93
716,1715411629270,-2.19,-2.09,-0.48999999999999994,93.68999999999998,-28.5,-200.93
717,1715411629280,-2.358,-2.122780487804878,-0.6702926829268292,17.11834146341463,4.535170731707316,-71.71643902439025
718,1715411629290,-2.6,-2.17,-0.93,-121.34,64.27,161.93
719,1715411629300,-2.6,-2.17,-0.93,-121.34,64.27,161.93
720,1715411629310,-2.6,-2.17,-0.93,-121.34,64.27,161.93
721,1715411629320,-1.6646341463414633,-2.0308943089430893,-0.5126829268292683,-164.27341463414635,40.224105691056906,288.4776422764228
722,1715411629330,-0.65,-1.88,-0.06,-223.88,6.84,464.17
723,1715411629340,-0.65,-1.88,-0.06,-223.88,6.84,464.17
724,1715411629350,-0.65,-1.88,-0.06,-223.88,6.84,464.17
725,1715411629360,-0.4268,-1.94324,-0.012879999999999997,-240.66588000000002,12.00832,495.7838
726,1715411629370,1.15,-2.39,0.32,-359.25,48.52,719.12
727,1715411629380,1.15,-2.39,0.32,-359.25,48.52,719.12
728,1715411629390,1.15,-2.39,0.32,-359.25,48.52,719.12
729,1715411629400,1.196875,-2.410625,0.306875,-356.38640625,40.131718750000005,724.69015625
730,1715411629410,2.15,-2.83,0.04,-298.16,-130.43,837.95
731,1715411629420,2.15,-2.83,0.04,-298.16,-130.43,837.95
732,1715411629430,2.15,-2.83,0.04,-298.16,-130.43,837.95
733,1715411629440,2.15,-2.83,0.04,-298.16,-130.43,837.95
734,1715411629450,2.15,-2.83,0.04,-298.16,-130.43,837.9500000000002
735,1715411629460,2.58,-2.98,-0.02,-192.81,-321.23,782.9
736,1715411629470,2.532110091743119,-2.708623853211009,0.006605504587155962,-117.69201834862386,-326.0988073394496,721.4519266055046
737,1715411629480,2.49,-2.47,0.03,-51.64,-330.38,667.42
738,1715411629490,2.49,-2.47,0.03,-51.64,-330.38,667.42
739,1715411629500,2.49,-2.47,0.03,-51.64,-330.38,667.42
740,1715411629510,2.49,-2.47,0.03,-51.64,-330.38,667.42
741,1715411629520,2.49,-2.47,0.03,-51.64,-330.38,667.42
742,1715411629530,2.49,-2.47,0.029999999999999995,-51.64,-330.38,667.42
743,1715411629540,2.49,-2.47,0.03,-51.64,-330.38,667.42
744,1715411629550,2.49,-2.47,0.03,-51.64000000000001,-330.37999999999994,667.42
745,1715411629560,2.49,-2.47,0.03,-51.64,-330.38,667.42
746,1715411629570,3.33471615720524,-0.9024017467248908,0.013755458515283842,-7.219301310043668,-4.035283842794762,609.8655895196507
747,1715411629580,3.7171999999999996,-0.40896000000000005,-0.19592,-19.0332,88.78175999999999,469.75847999999996
748,1715411629590,3.8300000000000005,-0.33,-0.32,-38.15,103.82000000000001,359.99000000000007
749,1715411629600,3.8300000000000005,-0.33,-0.32,-38.15,103.82,359.99
750,1715411629610,3.83,-0.33,-0.32,-38.15,103.82,359.99
751,1715411629620,3.8814285714285717,-0.13285714285714287,-0.13999999999999999,-178.4651785714286,180.14589285714285,173.4180357142857
752,1715411629630,3.8900000000000006,-0.1,-0.11,-229.8,208.07000000000002,105.16000000000001
753,1715411629640,,,,,,
754,1715411629650,,,,,,
755,1715411629660,4.207090909090909,-0.6251818181818182,0.6728181818181819,-11.936272727272728,19.355272727272727,-167.67763636363637
756,1715411629670,4.21,-0.63,0.68,2.87,6.53,-186.22
757,1715411629680,4.21,-0.63,0.68,2.87,6.53,-186.22
758,1715411629690,4.191359223300971,-0.6958252427184466,0.6450485436893204,2.8874757281553403,7.417961165048545,-186.85077669902913
759,1715411629700,3.89,-1.76,0.08,6.47,189.45,-316.16
760,1715411629710,3.89,-1.7600000000000002,0.08000000000000002,6.47,189.45,-316.16
761,1715411629720,3.89,-1.76,0.08,6.47,189.45,-316.16
762,1715411629730,3.7842372881355932,-1.6922457627118643,0.06016949152542373,12.884194915254238,183.08771186440677,-324.3782203389831
763,1715411629740,3.25,-1.35,-0.04,67.02,129.39,-393.74
764,1715411629750,3.25,-1.35,-0.04,67.02,129.39,-393.74
765,1715411629760,3.25,-1.35,-0.04,67.02,129.39,-393.74
766,1715411629770,3.1485714285714286,-1.3157142857142858,-0.007142857142857143,71.50142857142856,122.45857142857142,-407.7514285714286
767,1715411629780,2.54,-1.11,0.19,98.39,80.87,-491.82
768,1715411629790,2.54,-1.11,0.19,98.39,80.87,-491.82000000000005
769,1715411629800,2.54,-1.11,0.19,98.39,80.87,-491.82
770,1715411629810,2.370894941634241,-1.0876653696498055,0.2314785992217899,120.77326848249027,66.48400778210116,-508.6011284046692
771,1715411629820,2.01,-1.04,0.32,186.89,23.99,-558.17
772,1715411629830,2.01,-1.04,0.32,186.89,23.99,-558.17
773,1715411629840,2.01,-1.04,0.32,186.89,23.99,-558.17
774,1715411629850,2.0342914979757083,-1.0804858299595141,0.3726315789473684,164.83574898785426,32.29080971659919,-562.0270850202429
775,1715411629860,2.07,-1.14,0.45,109.07,53.28,-571.78
776,1715411629870,2.07,-1.14,0.45,109.07,53.28,-571.78
777,1715411629880,2.07,-1.14,0.45,109.07,53.279999999999994,-571.78
778,1715411629890,2.060230769230769,-1.2621153846153845,0.4402307692307692,102.72284615384615,108.83226923076923,-563.6678846153845
779,1715411629900,2.05,-1.39,0.43,93.93,185.79,-552.43
780,1715411629910,2.05,-1.39,0.43,93.93,185.79,-552.43
781,1715411629920,2.05,-1.39,0.43,93.93,185.79,-552.43
782,1715411629930,2.082264150943396,-1.4287169811320752,0.4880754716981132,91.92260377358491,192.29490566037737,-598.5647924528301
783,1715411629940,2.1,-1.45,0.52,90.52,196.84,-630.8
784,1715411629950,2.1,-1.45,0.52,90.52,196.84,-630.8
785,1715411629960,2.1,-1.45,0.52,90.52,196.84,-630.8
786,1715411629970,2.0510917030567684,-1.5600436681222707,0.28157205240174676,57.01196506550218,266.59170305676855,-607.6327510917031
787,1715411629980,2.02,-1.63,0.13,18.13,347.53,-580.75
788,1715411629990,2.02,-1.63,0.13,18.13,347.53,-580.75
789,1715411630000,2.02,-1.63,0.13,18.13,347.53,-580.75
790,1715411630010,0.8877419354838709,-1.9609677419354836,-0.0703225806451613,216.81838709677422,185.79451612903225,-576.8112903225807
791,1715411630020,0.72,-2.01,-0.1,298.1,119.63,-575.2
792,1715411630030,0.72,-2.01,-0.1,298.1,119.63,-575.2
793,1715411630040,0.72,-2.01,-0.1,298.1,119.63,-575.2
794,1715411630050,-1.4407659574468086,-2.1669787234042555,-1.3281276595744682,245.8919574468085,125.97212765957447,-369.4948510638298
795,1715411630060,-1.62,-2.18,-1.43,238.82999999999998,126.83,-341.67
796,1715411630070,-1.62,-2.18,-1.43,238.83,126.83,-341.67
797,1715411630080,-1.6270454545454547,-2.1827272727272726,-1.430909090909091,238.83,126.83000000000001,-341.67
798,1715411630090,-2.55,-2.54,-1.55,31.416666666666668,-50.52111111111111,-118.36333333333334
799,1715411630100,-2.55,-2.54,-1.55,5.49,-72.69,-90.45
800,1715411630110,-2.55,-2.54,-1.55,5.49,-72.69,-90.45
801,1715411630120,-2.401764705882353,-2.4,-1.297450980392157,-8.264117647058825,-76.51411764705882,-31.005882352941182
802,1715411630130,-2.01,-2.03,-0.63,-72.45,-94.36,246.39999999999998
803,1715411630140,-2.01,-2.03,-0.63,-72.45,-94.36,246.4
804,1715411630150,-2.01,-2.03,-0.63,-72.45,-94.36,246.4
805,1715411630160,-1.1455339805825242,-1.8777669902912622,-0.1787378640776699,-101.18067961165049,-79.94048543689321,324.34242718446603
806,1715411630170,-0.42,-1.75,0.2,-167.91,-46.45,505.37
807,1715411630180,-0.42,-1.75,0.2,-167.91,-46.45,505.37
808,1715411630190,-0.42,-1.75,0.2,-167.91,-46.45,505.37000000000006
809,1715411630200,0.7807476635514019,-2.1729906542056074,0.34327102803738313,-211.4408411214953,-22.321028037383176,663.1139252336449
810,1715411630210,1.34,-2.37,0.41,-245.54,-3.42,786.68
811,1715411630220,1.34,-2.37,0.41,-245.53999999999996,-3.4199999999999995,786.68
812,1715411630230,1.3533962264150945,-2.3745283018867926,0.4060377358490566,-245.54,-3.42,786.6800000000001
813,1715411630240,2.76,-2.85,-0.01,-214.04882352941175,-72.06823529411764,902.4174509803921
814,1715411630250,2.76,-2.85,-0.01,-208.19,-84.84,923.95
815,1715411630260,2.7600000000000002,-2.85,-0.01,-208.19,-84.84,923.95
816,1715411630270,2.7527205882352943,-2.85,-0.04154411764705883,-208.19,-84.84,923.95
817,1715411630280,2.73,-2.85,-0.14,-121.25195652173913,-200.48999999999998,809.7282608695654
818,1715411630290,2.73,-2.85,-0.14,-119.32,-203.06000000000003,807.19
819,1715411630300,2.73,-2.85,-0.14,-119.32,-203.06,807.19
820,1715411630310,2.672290076335878,-2.8479389312977097,-0.193587786259542,-110.68206106870228,-205.75656488549618,798.4970992366412
821,1715411630320,2.45,-2.84,-0.4,6.41,-242.31,680.66
822,1715411630330,2.45,-2.84,-0.4,6.41,-242.31000000000003,680.66
823,1715411630340,2.45,-2.84,-0.4,6.41,-242.31,680.66
824,1715411630350,2.5693877551020408,-2.7267346938775505,-0.35408163265306125,10.287040816326531,-241.5431632653061,675.093163265306
825,1715411630360,3.23,-2.1,-0.1,31.740000000000002,-237.3,644.29
826,1715411630370,3.23,-2.1,-0.1,31.74,-237.3,644.29
827,1715411630380,3.23,-2.1,-0.1,31.74,-237.3,644.29
828,1715411630390,3.1654198473282444,-1.8345038167938932,-0.20045801526717555,-26.74549618320611,-61.929007633587794,596.2777862595419
829,1715411630400,3.14,-1.73,-0.24,-64.03,49.87,565.67
830,1715411630410,3.14,-1.73,-0.24000000000000002,-64.03,49.87,565.67
831,1715411630420,3.14,-1.73,-0.24,-64.03,49.87,565.67
832,1715411630430,3.023448275862069,-0.5375862068965517,-0.2579310344827586,-100.7730172413793,147.4398275862069,484.3912068965517
833,1715411630440,3.01,-0.4,-0.26,-109.86,171.57,464.29
834,1715411630450,3.01,-0.4,-0.26,-109.86,171.57,464.29
835,1715411630460,3.0084337349397585,-0.40746987951807234,-0.26891566265060246,-109.86,171.57,464.29
836,1715411630470,2.88,-1.02,-1.0,-75.6888,-67.94808,129.85288
837,1715411630480,2.8799999999999994,-1.02,-1.0,-70.31,-105.65,77.21
838,1715411630490,2.88,-1.02,-1.0,-70.31,-105.65,77.21
839,1715411630500,3.020562248995984,-0.9455020080321286,-0.7891566265060241,-59.09273092369478,-112.06289156626507,60.345863453815255
840,1715411630510,3.88,-0.48999999999999994,0.5,93.99,-199.58,-169.8
841,1715411630520,3.88,-0.49,0.5,93.99,-199.58,-169.8
842,1715411630530,3.88,-0.49,0.5,93.99,-199.58,-169.8
843,1715411630540,3.88,-0.49,0.5,93.99,-199.58,-169.8
844,1715411630550,3.548131868131868,-1.502197802197802,-0.23010989010989014,-11.274395604395602,182.56296703296704,-224.5901098901099
845,1715411630560,3.48,-1.71,-0.37999999999999995,-37.23,276.79,-238.1
846,1715411630570,3.48,-1.71,-0.38,-37.23,276.79,-238.1
847,1715411630580,3.31652,-1.71804,-0.53812,-28.11744,275.46732000000003,-258.1294
848,1715411630590,2.87,-1.74,-0.97,15.75,269.1,-354.55
849,1715411630600,2.87,-1.74,-0.97,15.75,269.1,-354.55
850,1715411630610,2.87,-1.74,-0.97,15.75,269.1,-354.55
851,1715411630620,2.87,-1.74,-0.9699999999999999,15.75,269.1,-354.55
852,1715411630630,2.517244094488189,-1.4124409448818898,-0.4786614173228346,15.714330708661418,193.08874015748032,-408.69003937007875
853,1715411630640,2.31,-1.22,-0.19,15.69,141.24,-445.62
854,1715411630650,2.31,-1.22,-0.19000000000000003,15.69,141.24,-445.62000000000006
855,1715411630660,2.290681818181818,-1.1839393939393938,-0.1796969696969697,16.00212121212121,141.18431818181818,-446.71128787878786
856,1715411630670,2.16,-0.94,-0.11,23.93,139.77,-474.43
857,1715411630680,2.16,-0.94,-0.11,23.93,139.77,-474.43
858,1715411630690,2.16,-0.94,-0.11,23.93,139.77,-474.43
859,1715411630700,2.16890625,-0.8954687499999999,0.0146875,22.99359375,145.52859375,-477.404765625
860,1715411630710,2.19,-0.79,0.31,14.71,196.47,-503.71999999999997
861,1715411630720,2.19,-0.79,0.31,14.71,196.47,-503.72
862,1715411630730,2.19,-0.79,0.31,14.71,196.47,-503.72
863,1715411630740,2.0853488372093025,-1.1318604651162791,0.1355813953488372,36.3553488372093,250.29279069767443,-518.812441860465
864,1715411630750,2.04,-1.28,0.06,51.21,287.23,-529.17
865,1715411630760,2.04,-1.28,0.06,51.21,287.23,-529.17
866,1715411630770,2.04,-1.28,0.06,51.21,287.23,-529.17
867,1715411630780,2.211111111111111,-1.1555555555555557,0.3322222222222222,127.74333333333333,192.98238095238094,-571.9192063492063
868,1715411630790,2.26,-1.12,0.41,171.75,138.79,-596.5
869,1715411630800,2.26,-1.12,0.41,171.75,138.79,-596.5
870,1715411630810,2.26,-1.12,0.41,171.75,138.79,-596.5
871,1715411630820,2.24,-1.39,0.59,156.73782608695655,204.09295652173913,-585.8467826086957
872,1715411630830,2.24,-1.39,0.59,155.15,211.0,-584.72
873,1715411630840,2.24,-1.39,0.59,155.15,211.0,-584.72
874,1715411630850,2.157719298245614,-1.404736842105263,0.5371929824561403,160.7742105263158,210.76964912280704,-583.5363157894736
875,1715411630860,1.57,-1.51,0.16,204.47,208.98,-574.34
876,1715411630870,1.57,-1.51,0.16,204.47,208.98,-574.34
877,1715411630880,1.57,-1.51,0.16,204.47,208.98,-574.34
878,1715411630890,1.2926293103448274,-1.5041810344827586,0.10375,222.09758620689655,190.48926724137928,-561.9688793103448
879,1715411630900,0.14,-1.48,-0.13,295.35,113.65,-510.56
880,1715411630910,0.14,-1.48,-0.13,295.35,113.65,-510.56
881,1715411630920,0.14,-1.48,-0.13,295.35,113.65,-510.55999999999995
882,1715411630930,0.14,-1.48,-0.13,295.35,113.65,-510.56
883,1715411630940,-1.44,-1.29,-0.85,128.72,55.3,-269.47
884,1715411630950,-1.44,-1.29,-0.85,128.72,55.3,-269.47
885,1715411630960,-1.44,-1.29,-0.85,128.72,55.3,-269.47
886,1715411630970,-1.983030303030303,-1.4887878787878788,-1.0924242424242425,85.19787878787878,66.42878787878789,-177.04113636363638
887,1715411630980,-2.56,-1.7,-1.35,27.04,81.3,-53.53
888,1715411630990,-2.56,-1.7,-1.35,27.04,81.3,-53.53
889,1715411631000,-2.56,-1.7,-1.35,27.04,81.3,-53.53
890,1715411631010,-2.1772151898734178,-1.5989873417721518,-1.1639240506329114,-45.699050632911394,52.80113924050633,84.12911392405063
891,1715411631020,-1.84,-1.51,-1.0,-134.83,17.88,252.81
892,1715411631030,-1.84,-1.51,-1.0,-134.83,17.88,252.81
893,1715411631040,-1.8400000000000003,-1.51,-1.0,-134.83,17.88,252.81
894,1715411631050,-0.8963636363636364,-1.45,-0.4872727272727273,-189.11153846153846,-6.092307692307695,353.26384615384615
895,1715411631060,-0.11,-1.4,-0.06,-252.43999999999997,-34.06,470.46000000000004
896,1715411631070,-0.11,-1.4,-0.06,-252.43999999999997,-34.06,470.46000000000004
897,1715411631080,-0.10999999999999999,-1.4,-0.06,-252.43999999999997,-34.06,470.46
898,1715411631090,0.9019999999999999,-1.8063333333333333,0.08566666666666668,-279.7866666666667,-62.21333333333334,594.0333333333333
899,1715411631100,1.21,-1.9299999999999997,0.13,-293.46,-76.29,655.82
900,1715411631110,1.21,-1.93,0.13,-293.46,-76.29,655.82
901,1715411631120,1.21,-1.93,0.13,-293.46,-76.29000000000002,655.8200000000002
902,1715411631130,1.7112781954887217,-2.1339097744360904,0.011052631578947368,-231.0172180451128,-211.24323308270678,710.5106766917294
903,1715411631140,1.8,-2.17,-0.01,-212.83,-250.54999999999998,726.44
904,1715411631150,1.8,-2.17,-0.01,-212.83,-250.54999999999998,726.44
905,1715411631160,1.8,-2.17,-0.01,-212.83,-250.55,726.44
906,1715411631170,1.961470588235294,-1.9905882352941173,0.1425,-106.97926470588236,-276.14595588235295,678.9602205882353
907,1715411631180,1.98,-1.97,0.16,-87.65,-280.82,670.29
908,1715411631190,1.98,-1.9700000000000002,0.16,-87.65,-280.82,670.29
909,1715411631200,1.9799999999999998,-1.97,0.16,-87.65,-280.82,670.29
910,1715411631210,1.5816564417177914,-1.4141717791411044,0.11368098159509203,43.191963190184055,-174.74944785276074,560.3749693251533
911,1715411631220,1.55,-1.37,0.11000000000000001,53.59,-166.32,551.64
912,1715411631230,1.55,-1.37,0.11,53.59,-166.32,551.64
913,1715411631240,1.55,-1.37,0.11,53.59,-166.32,551.64
914,1715411631250,2.1753591160220993,-1.589281767955801,0.15060773480662984,56.862983425414356,-101.48569060773481,535.5755801104973
915,1715411631260,2.32,-1.64,0.16,57.620000000000005,-86.49,531.86
916,1715411631270,2.32,-1.6400000000000001,0.16,57.61999999999999,-86.48999999999998,531.86
917,1715411631280,2.3537888198757764,-1.0360248447204967,-0.042732919254658386,49.162981366459626,-62.060434782608695,527.7237267080745
918,1715411631290,2.4,-0.21,-0.32,-4.27,92.29,501.59
919,1715411631300,2.4,-0.21,-0.32,-4.27,92.29,501.59000000000003
920,1715411631310,2.4,-0.21,-0.32,-4.27,92.29,501.59000000000003
921,1715411631320,3.660696517412935,-1.37318407960199,-0.2364179104477612,-199.8170646766169,78.99328358208955,452.8863184079602
922,1715411631330,4.21,-1.8800000000000001,-0.2,-311.34,71.41,425.11
923,1715411631340,4.21,-1.8800000000000001,-0.2,-311.34,71.41,425.11
924,1715411631350,4.21,-1.8800000000000001,-0.2,-311.34,71.41,425.11
925,1715411631360,5.225384615384615,-0.19094674556213015,0.5615384615384615,-2.875384615384615,-214.79923076923077,-15.640769230769228
926,1715411631370,5.25,-0.15,0.58,22.83,-238.65000000000003,-52.37
927,1715411631380,5.25,-0.15,0.58,22.829999999999995,-238.65000000000003,-52.370000000000005
928,1715411631390,5.25,-0.15,0.58,22.83,-238.65,-52.37
929,1715411631400,4.2685849056603775,-1.4458490566037736,0.6752830188679245,-4.8226415094339625,202.68283018867925,-182.21075471698114
930,1715411631410,4.22,-1.5100000000000002,0.68,-7.08,238.71,-192.81
931,1715411631420,4.22,-1.51,0.68,-7.08,238.71,-192.81
932,1715411631430,4.073333333333333,-1.4376315789473686,0.5439473684210526,-7.08,238.71,-192.81
933,1715411631440,2.7,-0.76,-0.73,35.748620689655176,327.06,-263.4113793103448
934,1715411631450,2.7000000000000006,-0.76,-0.7300000000000001,36.5,328.61,-264.65
935,1715411631460,2.7,-0.7599999999999999,-0.73,36.5,328.61,-264.65
936,1715411631470,2.493170731707317,-0.7639024390243903,-0.46463414634146344,61.11890243902439,223.86609756097562,-312.8451219512195
937,1715411631480,2.17,-0.77,-0.05,117.25,-14.95,-422.73
938,1715411631490,2.17,-0.77,-0.05,117.25,-14.95,-422.73
939,1715411631500,2.17,-0.77,-0.05,117.25,-14.95,-422.73
940,1715411631510,2.2227058823529413,-0.5064705882352941,0.4845882352941177,117.17941176470588,9.49705882352941,-461.18294117647065
941,1715411631520,2.24,-0.42,0.66,117.13,26.61,-488.1
942,1715411631530,2.24,-0.41999999999999993,0.66,117.12999999999998,26.61,-488.09999999999997
943,1715411631540,2.24,-0.42,0.66,117.13,26.61,-488.1
944,1715411631550,2.1604819277108436,-0.5392771084337349,0.544698795180723,109.92144578313253,58.615301204819275,-502.0103012048193
945,1715411631560,2.04,-0.72,0.37,91.67,139.65,-537.23
946,1715411631570,2.04,-0.72,0.37,91.67,139.65,-537.23
947,1715411631580,2.04,-0.72,0.37,91.67,139.65,-537.23
948,1715411631590,2.0722981366459625,-0.978385093167702,0.3893788819875777,120.44260869565218,144.2232298136646,-572.9454658385093
949,1715411631600,2.09,-1.12,0.4,148.86,148.74,-608.22
950,1715411631610,2.09,-1.12,0.4,148.86,148.74,-608.22
951,1715411631620,2.09,-1.12,0.4,148.85999999999999,148.74,-608.22
952,1715411631630,2.222929292929293,-1.2244444444444444,0.4,160.42222222222222,112.79373737373737,-641.8816161616162
953,1715411631640,2.23,-1.23,0.4000000000000001,162.17,107.36,-646.97
954,1715411631650,2.23,-1.23,0.4,162.17,107.36,-646.97
955,1715411631660,2.2205797101449276,-1.2695652173913043,0.42449275362318845,176.10971014492753,98.4080193236715,-647.4758937198068
956,1715411631670,2.18,-1.44,0.53,293.33,23.13,-651.73
957,1715411631680,2.18,-1.44,0.53,293.33,23.13,-651.73
958,1715411631690,2.18,-1.44,0.53,293.33,23.13,-651.73
959,1715411631700,1.8926190476190479,-1.4683333333333333,0.5785714285714286,301.04219047619046,4.842952380952381,-650.0760952380953
960,1715411631710,1.47,-1.51,0.65,314.64,-27.4,-647.16
961,1715411631720,1.47,-1.51,0.65,314.64,-27.4,-647.16
962,1715411631730,1.47,-1.51,0.65,314.64,-27.4,-647.16
963,1715411631740,0.43075581395348833,-1.6725,0.29854651162790696,274.3395348837209,-13.298604651162789,-595.0381395348837
964,1715411631750,-1.28,-1.94,-0.28,170.23,23.13,-460.39
965,1715411631760,-1.28,-1.9399999999999997,-0.28,170.23,23.13,-460.39
966,1715411631770,-1.28,-1.94,-0.28,170.23,23.13,-460.39
967,1715411631780,-1.820983606557377,-2.235081967213115,-0.46442622950819673,118.58770491803278,5.696803278688524,-383.042868852459
968,1715411631790,-2.6,-2.66,-0.73,-20.69,-41.32,-174.44
969,1715411631800,-2.6,-2.66,-0.73,-20.69,-41.32,-174.44
970,1715411631810,-2.6,-2.66,-0.73,-20.69,-41.32,-174.44
971,1715411631820,-2.4125,-2.3365625,-0.608125,-20.69,-41.32,-174.44
972,1715411631830,-2.2,-1.97,-0.47000000000000003,-52.30222222222222,-57.650000000000006,114.89999999999999
973,1715411631840,-2.2,-1.97,-0.47,-57.8,-60.49000000000001,165.22
974,1715411631850,-2.2,-1.97,-0.4699999999999999,-57.8,-60.49000000000001,165.22
975,1715411631860,-1.8110317460317462,-1.8756349206349208,-0.27436507936507937,-57.8,-60.49,165.22
976,1715411631870,-0.51,-1.56,0.38,-118.37480000000001,-25.69333333333333,423.51613333333336
977,1715411631880,-0.51,-1.56,0.38,-121.34,-23.99,436.16
978,1715411631890,-0.4262666666666666,-1.568,0.39013333333333333,-121.34,-23.99,436.16
979,1715411631900,1.06,-1.71,0.57,-179.02172839506173,83.075,652.3472222222223
980,1715411631910,1.06,-1.71,0.57,-179.38,83.74,653.69
981,1715411631920,1.06,-1.71,0.57,-179.38,83.74,653.69
982,1715411631930,1.06,-1.71,0.57,-179.38,83.74,653.69
983,1715411631940,1.907730061349693,-2.047361963190184,0.41429447852760737,-212.40134969325152,52.605153374233126,783.338036809816
984,1715411631950,2.04,-2.1,0.39,-223.14,42.48,825.5
985,1715411631960,2.04,-2.1,0.39,-223.14,42.48,825.5
986,1715411631970,2.0643870967741935,-2.1383225806451613,0.34819354838709676,-214.3254193548387,28.95690322580645,823.8299354838709
987,1715411631980,2.18,-2.32,0.15,-125.55,-107.23999999999998,807.01
988,1715411631990,2.18,-2.32,0.15,-125.55,-107.24,807.01
989,1715411632000,2.18,-2.32,0.15,-125.54999999999998,-107.24,807.01
990,1715411632010,2.16,-2.24,0.16666666666666666,-102.74565217391304,-115.2095652173913,786.01
991,1715411632020,2.12,-2.08,0.2,31.8,-162.23,662.11
992,1715411632030,2.12,-2.08,0.2,31.8,-162.23,662.11
993,1715411632040,2.12,-2.08,0.2,31.8,-162.23,662.11
994,1715411632050,2.1663636363636365,-2.0634415584415584,0.16025974025974027,48.19532467532468,-155.39701298701297,638.5140909090909
995,1715411632060,2.26,-2.03,0.08,100.04,-133.79,563.9
996,1715411632070,2.26,-2.03,0.08,100.04,-133.79,563.9
997,1715411632080,2.2649999999999997,-2.0056,0.0822,100.04,-133.79,563.9
998,1715411632090,2.51,-0.81,0.19,21.918536585365857,73.03329268292684,550.1420731707317
999,1715411632100,2.51,-0.81,0.19000000000000003,7.2,112.0,547.55
1000,1715411632110,2.51,-0.81,0.19,7.2,112.0,547.55
1001,1715411632120,2.527411764705882,-0.8281176470588235,0.1824705882352941,7.2,112.0,547.55
1002,1715411632130,3.25,-1.58,-0.13,-0.5265060240963855,74.2222891566265,457.8403614457831
1003,1715411632140,3.25,-1.58,-0.13,-4.46,54.99,412.17
1004,1715411632150,3.3882716049382715,-1.3708641975308642,-0.25962962962962965,-8.942962962962962,59.377469135802464,400.05172839506173
1005,1715411632160,4.05,-0.36999999999999994,-0.88,-47.18,96.8,296.69
1006,1715411632170,4.05,-0.37,-0.8800000000000001,-47.17999999999999,96.8,296.68999999999994
1007,1715411632180,4.05,-0.37,-0.88,-47.18,96.79999999999998,296.69
1008,1715411632190,4.0827884615384615,-0.45942307692307693,-0.5491346153846154,-54.66326923076924,35.56322115384616,212.55471153846153
1009,1715411632200,4.16,-0.67,0.23,-77.7,-152.95,-46.45
1010,1715411632210,4.16,-0.67,0.23,-77.7,-152.95,-46.45
1011,1715411632220,4.16,-0.67,0.23,-77.7,-152.95,-46.45
1012,1715411632230,4.049882352941177,-0.9840392156862745,0.3319607843137255,-57.85129411764706,12.375098039215702,-110.32615686274511
1013,1715411632240,3.8900000000000006,-1.44,0.4799999999999999,-28.56,256.35,-204.59
1014,1715411632250,3.89,-1.44,0.48000000000000004,-28.56,256.35,-204.59
1015,1715411632260,3.89,-1.44,0.48000000000000004,-28.56,256.35,-204.59
1016,1715411632270,3.487741935483871,-1.3336559139784947,-0.11645161290322585,-26.341290322580644,247.84290322580648,-236.38741935483873
1017,1715411632280,3.02,-1.21,-0.81,-23.13,235.53,-282.41
1018,1715411632290,3.02,-1.21,-0.81,-23.13,235.53,-282.41
1019,1715411632300,3.02,-1.21,-0.81,-23.13,235.53,-282.41
1020,1715411632310,2.8371171171171174,-1.1185585585585585,-0.4127027027027027,-16.5327027027027,198.28405405405405,-312.99378378378384
1021,1715411632320,2.44,-0.92,0.45,1.28,97.71999999999998,-395.57
1022,1715411632330,2.44,-0.92,0.45,1.28,97.72,-395.57
1023,1715411632340,2.44,-0.9200000000000002,0.45,1.28,97.72,-395.57
1024,1715411632350,2.2783673469387757,-0.8644387755102041,0.5005102040816327,27.177142857142858,125.00785714285715,-402.5
1025,1715411632360,2.12,-0.81,0.55,67.2,167.18,-413.21
1026,1715411632370,2.12,-0.81,0.55,67.2,167.18,-413.21
1027,1715411632380,2.12,-0.81,0.55,67.2,167.18000000000004,-413.21
1028,1715411632390,1.8881451612903228,-0.8749193548387096,0.6149193548387096,115.33709677419354,158.55903225806452,-482.218064516129
1029,1715411632400,1.87,-0.88,0.62,126.88999999999999,156.49,-498.7799999999999
1030,1715411632410,1.87,-0.88,0.62,126.88999999999999,156.49,-498.78
1031,1715411632420,1.8798222222222223,-0.9041777777777777,0.6313333333333334,127.3148,156.48595555555556,-498.93297777777775
1032,1715411632430,2.0,-1.2,0.77,222.47,155.58,-533.2
1033,1715411632440,2.0,-1.2,0.77,222.47,155.58,-533.2
1034,1715411632450,2.0,-1.2,0.77,222.47,155.58,-533.2
1035,1715411632460,2.0636909871244633,-1.2204721030042918,0.8041201716738198,224.9710729613734,153.6506008583691,-539.3645493562232
1036,1715411632470,2.28,-1.29,0.92,238.22,143.43,-572.02
1037,1715411632480,2.28,-1.29,0.92,238.22,143.43,-572.02
1038,1715411632490,2.28,-1.29,0.92,238.22,143.43,-572.02
1039,1715411632500,2.28,-1.29,0.92,238.22,143.43,-572.02
1040,1715411632510,2.3831034482758624,-1.4486206896551723,0.7613793103448275,281.57862068965517,148.90586206896552,-629.6062068965517
1041,1715411632520,2.41,-1.49,0.72,301.09,151.37,-655.52
1042,1715411632530,2.41,-1.49,0.72,301.09,151.37,-655.52
1043,1715411632540,2.369826086956522,-1.511304347826087,0.7114782608695651,301.09,151.37,-655.52
1044,1715411632550,1.75,-1.84,0.58,311.68157894736845,97.73315789473683,-661.6111278195489
1045,1715411632560,1.75,-1.84,0.58,312.01,96.07,-661.8
1046,1715411632570,1.75,-1.8400000000000003,0.5799999999999998,312.01,96.07,-661.8
1047,1715411632580,1.3026315789473684,-1.8370175438596492,0.2966666666666667,309.8621052631579,73.22421052631579,-650.6478947368421
1048,1715411632590,0.25,-1.83,-0.37,300.35,-27.95,-601.26
1049,1715411632600,0.25,-1.8300000000000003,-0.37,300.35,-27.95,-601.26
1050,1715411632610,0.25,-1.83,-0.37,300.35,-27.95,-601.26
1051,1715411632620,-0.10719178082191781,-1.9163013698630138,-0.3843835616438356,284.6296575342466,-55.49801369863014,-565.9912328767124
1052,1715411632630,-1.24,-2.19,-0.43,200.56,-202.82,-377.38
1053,1715411632640,-1.24,-2.19,-0.43,200.56,-202.82,-377.38
1054,1715411632650,-1.24,-2.19,-0.43,200.56,-202.82,-377.38
1055,1715411632660,-2.9888505747126435,-2.649195402298851,-0.9478160919540229,0.2062068965517228,-20.517241379310345,-106.93172413793103
1056,1715411632670,-3.03,-2.66,-0.96,-52.06,27.04,-36.38
1057,1715411632680,-3.03,-2.66,-0.96,-52.06,27.04,-36.38
1058,1715411632690,-3.03,-2.66,-0.96,-52.06,27.04,-36.38
1059,1715411632700,-2.510506329113924,-2.413924050632912,-0.7913924050632911,-72.94607594936708,4.323544303797467,90.42886075949367
1060,1715411632710,-1.89,-2.12,-0.59,-107.06,-32.78,297.55
1061,1715411632720,-1.89,-2.12,-0.59,-107.06000000000002,-32.78,297.55
1062,1715411632730,-1.89,-2.12,-0.59,-107.06,-32.78,297.55
1063,1715411632740,-1.1308053691275166,-2.044832214765101,-0.27805369127516777,-141.07879194630874,-28.180671140939598,394.9442953020134
1064,1715411632750,0.13,-1.92,0.24,-199.21999999999997,-20.32,561.4
1065,1715411632760,0.13,-1.92,0.24,-199.22,-20.32,561.4
1066,1715411632770,0.13,-1.92,0.24,-199.22000000000003,-20.32,561.4
1067,1715411632780,0.871311475409836,-2.132581967213115,0.2563524590163935,-209.64340163934426,-24.681680327868854,640.3484426229508
1068,1715411632790,1.4900000000000002,-2.31,0.27,-224.91,-31.07,755.98
1069,1715411632800,1.49,-2.31,0.27,-224.91,-31.070000000000004,755.98
1070,1715411632810,1.4961016949152541,-2.3108474576271187,0.26754237288135596,-224.91,-31.07,755.98
1071,1715411632820,2.21,-2.41,-0.02,-93.30175182481752,-174.57072992700728,800.3484671532847
1072,1715411632830,2.21,-2.41,-0.02,-85.14,-183.47,803.1
1073,1715411632840,2.21,-2.41,-0.02,-85.14,-183.47,803.1
1074,1715411632850,2.21,-2.41,-0.02,-85.14,-183.47,803.1000000000001
1075,1715411632860,2.372745098039216,-1.9868627450980392,0.1264705882352941,-23.46313725490196,-220.9086274509804,729.0588235294117
1076,1715411632870,2.41,-1.89,0.16,-8.42,-230.04,711.0
1077,1715411632880,2.41,-1.8899999999999997,0.16,-8.42,-230.04000000000002,711.0
1078,1715411632890,2.2265048543689323,-1.7720388349514564,0.14252427184466018,15.66893203883495,-191.32,675.1207766990292
1079,1715411632900,1.99,-1.62,0.12,47.97,-139.4,627.01
1080,1715411632910,1.99,-1.62,0.12,47.97,-139.4,627.01
1081,1715411632920,1.99,-1.62,0.12,47.97,-139.4,627.01
1082,1715411632930,2.2164957264957263,-1.0302564102564102,0.19692307692307692,69.45102564102564,-113.1502564102564,570.4479487179487
1083,1715411632940,2.52,-0.24,0.3,121.88999999999999,-49.07,432.37
1084,1715411632950,2.52,-0.24,0.3,121.89,-49.07,432.37
1085,1715411632960,2.52,-0.23999999999999996,0.3,121.89,-49.07,432.37
1086,1715411632970,1.9885039370078739,-1.3915748031496062,0.05393700787401575,-375.62716535433066,376.41385826771653,486.63220472440946
1087,1715411632980,1.98,-1.41,0.05,-418.15,412.78,491.2699999999999
1088,1715411632990,1.98,-1.41,0.05,-418.15,412.78,491.27
1089,1715411633000,2.5627722772277224,-1.270990099009901,-0.13980198019801982,-364.84059405940593,344.46019801980196,471.4551485148515
1090,1715411633010,4.16,-0.89,-0.66,-59.2,-47.24,357.85
1091,1715411633020,4.16,-0.8899999999999999,-0.66,-59.2,-47.24000000000001,357.85
1092,1715411633030,4.16,-0.89,-0.66,-59.2,-47.24,357.85
1093,1715411633040,4.279800995024876,-0.7632338308457711,-0.5193034825870647,-38.87980099502488,-99.87024875621891,304.82830845771144
1094,1715411633050,5.0200000000000005,0.02,0.35,86.67,-425.05,-22.77
1095,1715411633060,5.02,0.02,0.35,86.67,-425.05,-22.77
1096,1715411633070,5.02,0.02,0.35,86.67,-425.05000000000007,-22.77
1097,1715411633080,5.02,0.02,0.35,86.67,-425.05,-22.77
1098,1715411633090,4.521708542713568,-0.7072361809045227,0.7472864321608039,73.59994974874373,-142.78135678391962,-142.85824120603016
1099,1715411633100,4.28,-1.06,0.94,67.26,-5.86,-201.11
1100,1715411633110,4.28,-1.06,0.94,67.26,-5.86,-201.11
1101,1715411633120,4.107522935779817,-0.9664220183486238,0.6794495412844037,67.26,-5.86,-201.11
1102,1715411633130,3.34,-0.55,-0.48,-86.18257668711657,285.57791411042945,-135.89147239263804
1103,1715411633140,3.34,-0.55,-0.48,-95.15,302.61,-132.08
1104,1715411633150,3.3399999999999994,-0.55,-0.4799999999999999,-95.15,302.61,-132.08
1105,1715411633160,2.9027722772277227,-0.45495049504950497,-0.2803960396039604,-95.15000000000002,302.61,-132.08
1106,1715411633170,2.42,-0.35,-0.06,6.563955555555555,154.24404444444443,-287.43164444444443
1107,1715411633180,2.42,-0.35,-0.06,9.829999999999998,149.48,-292.42
1108,1715411633190,2.42,-0.35,-0.06,9.83,149.48,-292.42
1109,1715411633200,2.0262499999999997,-0.35624999999999996,0.008750000000000003,28.535347222222224,138.36319444444445,-318.1590277777778
1110,1715411633210,1.79,-0.36,0.05,67.14,115.42,-371.28
1111,1715411633220,1.7900000000000003,-0.36,0.05,67.14,115.42,-371.28
1112,1715411633230,1.79,-0.36,0.05,67.14,115.42,-371.28
1113,1715411633240,1.7409999999999999,-0.19899999999999998,0.21100000000000002,66.923,117.002,-396.87199999999996
1114,1715411633250,1.72,-0.13,0.28,66.83,117.68,-407.84
1115,1715411633260,1.72,-0.13,0.28,66.83,117.68,-407.84
1116,1715411633270,1.7414285714285713,-0.21095238095238095,0.260952380952381,70.08028571428571,123.87428571428572,-422.82285714285706
1117,1715411633280,1.81,-0.47,0.2,81.05,144.78,-473.39
1118,1715411633290,1.81,-0.47,0.20000000000000004,81.05,144.78,-473.39
1119,1715411633300,1.81,-0.47,0.2,81.05,144.78,-473.39
1120,1715411633310,1.930967741935484,-0.5425806451612903,0.3354838709677419,84.31177419354839,141.5182258064516,-485.94500000000005
1121,1715411633320,2.31,-0.7700000000000001,0.76,103.52,122.31000000000002,-559.88
1122,1715411633330,2.31,-0.77,0.76,103.52000000000001,122.31,-559.88
1123,1715411633340,2.31,-0.77,0.76,103.52000000000001,122.31,-559.88
1124,1715411633350,2.4876623376623375,-0.997012987012987,0.7155844155844157,111.29229437229438,167.38930735930737,-573.2882251082252
1125,1715411633360,2.67,-1.23,0.67,122.62,233.09,-592.83
1126,1715411633370,2.67,-1.23,0.67,122.61999999999999,233.09000000000003,-592.83
1127,1715411633380,2.67,-1.23,0.67,122.62000000000002,233.09,-592.83
1128,1715411633390,2.67,-1.23,0.67,122.62,233.09,-592.83
1129,1715411633400,2.4334210526315787,-1.4747368421052631,0.7760526315789474,205.37980263157897,165.90980263157894,-653.426052631579
1130,1715411633410,2.38,-1.53,0.8,228.33,147.27999999999997,-670.23
1131,1715411633420,2.38,-1.53,0.8,228.33,147.28,-670.23
1132,1715411633430,1.3632407407407408,-1.837222222222222,0.17092592592592593,313.49666666666667,121.11166666666666,-673.2166666666667
1133,1715411633440,0.99,-1.9500000000000002,-0.060000000000000005,374.33,102.42,-675.35
1134,1715411633450,0.9900000000000001,-1.9499999999999997,-0.06,374.33,102.42,-675.35
1135,1715411633460,0.8101666666666667,-1.9817777777777776,-0.0953888888888889,374.33,102.41999999999999,-675.35
1136,1715411633470,-1.5,-2.39,-0.55,312.26976,-3.0135199999999984,-503.92352
1137,1715411633480,-1.5,-2.39,-0.55,303.16,-18.49,-478.76
1138,1715411633490,-1.5,-2.39,-0.55,303.16,-18.49,-478.76
1139,1715411633500,-2.014607843137255,-2.554901960784314,-0.837156862745098,267.34627450980395,-6.931470588235292,-435.275
1140,1715411633510,-3.3100000000000005,-2.97,-1.56,22.16,72.2,-137.57
1141,1715411633520,-3.31,-2.97,-1.56,22.159999999999997,72.2,-137.57
1142,1715411633530,-3.3099999999999996,-2.97,-1.56,22.16,72.2,-137.57
1143,1715411633540,-3.105714285714286,-2.827619047619048,-1.4506349206349207,-6.225396825396825,36.41767195767196,-57.842380952380935
1144,1715411633550,-2.32,-2.28,-1.03,-119.02,-105.77,258.97
1145,1715411633560,-2.32,-2.28,-1.03,-119.02,-105.77,258.97
1146,1715411633570,-2.32,-2.28,-1.03,-119.02,-105.77,258.97
1147,1715411633580,-2.32,-2.28,-1.03,-119.02,-105.77,258.97
1148,1715411633590,0.1369158878504673,-1.980140186915888,0.3822429906542056,-219.9022429906542,-131.62588785046728,500.3269158878504
1149,1715411633600,0.22,-1.97,0.43,-223.82,-132.63,509.7
1150,1715411633610,0.22,-1.97,0.43,-223.82,-132.63,509.7
1151,1715411633620,0.5859090909090909,-2.0336363636363637,0.45386363636363636,-214.95272727272726,-124.92818181818183,545.6672727272727
1152,1715411633630,1.6,-2.21,0.52,-175.05,-90.27,707.52
1153,1715411633640,1.6,-2.21,0.52,-175.05,-90.27,707.52
1154,1715411633650,1.6,-2.21,0.52,-175.05,-90.27,707.52
1155,1715411633660,2.36,-2.22,0.16,-33.08417475728155,-119.11155339805825,776.9755339805824
1156,1715411633670,2.36,-2.22,0.16000000000000003,-16.11,-122.56,785.28
1157,1715411633680,2.36,-2.22,0.16,-16.11,-122.56,785.28
1158,1715411633690,2.36,-2.22,0.16,-16.11,-122.56,785.28
1159,1715411633700,2.3104166666666663,-2.07125,0.125,-3.8629166666666666,-137.19291666666666,759.4120833333333
1160,1715411633710,2.19,-1.71,0.04,25.879999999999995,-172.73,696.59
1161,1715411633720,2.19,-1.71,0.04,25.88,-172.73,696.59
1162,1715411633730,2.19,-1.71,0.04,25.88,-172.73,696.59
1163,1715411633740,1.9808256880733945,-1.6489908256880732,0.09229357798165139,44.255,-126.4754128440367,648.8744036697248
1164,1715411633750,1.95,-1.64,0.1,48.77,-115.11,637.15
1165,1715411633760,1.95,-1.64,0.1,48.77,-115.11,637.15
1166,1715411633770,1.9549056603773585,-1.6336792452830187,0.09867924528301887,48.769999999999996,-115.11,637.15
1167,1715411633780,2.47,-0.97,-0.04,70.48979695431473,-27.51710659898477,580.6901015228426
1168,1715411633790,2.47,-0.97,-0.04,71.29,-24.29,578.61
1169,1715411633800,2.47,-0.9699999999999999,-0.04,71.29,-24.29,578.61
1170,1715411633810,2.260967741935484,-0.7183870967741935,-0.2954838709677419,19.873870967741937,14.905483870967746,527.3225806451613
1171,1715411633820,1.93,-0.32,-0.7,-80.51,91.43,427.19000000000005
1172,1715411633830,1.93,-0.32,-0.7,-80.51,91.43,427.19
1173,1715411633840,1.93,-0.32,-0.7,-80.51,91.43,427.19
1174,1715411633850,4.519026548672566,-1.0141592920353983,0.5663716814159292,-148.5757522123894,72.75637168141594,458.0969911504425
1175,1715411633860,4.69,-1.06,0.65,-188.84,61.71,476.38
1176,1715411633870,4.69,-1.06,0.65,-188.84,61.71000000000001,476.38
1177,1715411633880,4.69,-1.06,0.65,-188.84,61.71,476.38
1178,1715411633890,4.324782608695652,-1.0549275362318842,0.19855072463768117,-128.83149758454107,11.388067632850241,264.20995169082124
1179,1715411633900,3.97,-1.05,-0.24,-69.4,-38.45,54.08
1180,1715411633910,3.9699999999999998,-1.05,-0.23999999999999996,-69.4,-38.45,54.08
1181,1715411633920,3.97,-1.05,-0.24,-69.4,-38.45,54.08
1182,1715411633930,4.233076923076923,-0.9440384615384616,0.18750000000000003,-69.4,-38.45,54.08
1183,1715411633940,4.69,-0.76,0.93,25.51,14.4,-134.34
1184,1715411633950,4.69,-0.7599999999999999,0.93,25.51,14.400000000000002,-134.34
1185,1715411633960,4.69,-0.76,0.9300000000000002,25.51,14.4,-134.34
1186,1715411633970,3.1776981132075472,-0.8655094339622642,-0.300943396226415,2.943169811320755,220.63675471698116,-189.94622641509434
1187,1715411633980,2.97,-0.88,-0.47,-5.8,300.54,-211.49
1188,1715411633990,2.97,-0.88,-0.47,-5.8,300.54,-211.49
1189,1715411634000,2.97,-0.8800000000000001,-0.47,-5.8,300.54,-211.49
1190,1715411634010,2.1496341463414637,-0.5800813008130082,-0.17008130081300815,37.892804878048786,149.02231707317074,-271.2774390243902
1191,1715411634020,2.04,-0.54,-0.13,70.43,36.19,-315.8
1192,1715411634030,2.04,-0.54,-0.13,70.43,36.19,-315.8
1193,1715411634040,2.0397142857142856,-0.5285714285714286,-0.11342857142857143,70.43,36.19,-315.8
1194,1715411634050,2.03,-0.14,0.45,49.37235294117647,51.47470588235294,-362.8976470588235
