id,timestamp,acc_x,acc_y,acc_z,gyro_x,gyro_y,gyro_z
0,1715411608920,-1.09,-1.71,-0.36999999999999994,-196.4871028037383,-75.38355140186917,363.2982242990654
1,1715411608930,-1.09,-1.7099999999999997,-0.37,-197.45,-76.23,365.84
2,1715411608940,-1.09,-1.71,-0.37,-197.45,-76.23,365.84
3,1715411608950,0.7084732824427481,-2.117022900763359,0.34938931297709924,-221.39946564885494,-100.95,537.1187786259542
4,1715411608960,0.81,-2.14,0.39,-227.90999999999997,-107.67,583.68
5,1715411608970,0.8100000000000002,-2.14,0.39,-227.91000000000003,-107.66999999999999,583.68
6,1715411608980,1.2830555555555556,-2.3241666666666667,0.3105555555555556,-208.5573888888889,-110.78033333333333,619.1767222222222
7,1715411608990,2.12,-2.65,0.17,-115.54,-125.73,789.7900000000001
8,1715411609000,2.12,-2.65,0.17,-115.54,-125.72999999999999,789.79
9,1715411609010,2.2417647058823533,-2.648235294117647,0.13294117647058826,-101.33545454545454,-132.4218181818182,791.5272727272727
10,1715411609020,2.81,-2.64,-0.04,40.71,-199.34,808.9
11,1715411609030,2.81,-2.64,-0.04,40.71,-199.34,808.9
12,1715411609040,2.81,-2.64,-0.04,40.71,-199.34,808.9
13,1715411609050,2.768045112781955,-2.55609022556391,-0.011578947368421052,42.219022556390975,-199.31518796992484,805.614887218045
14,1715411609060,2.5,-2.02,0.17,74.16,-198.79,736.08
15,1715411609070,2.5,-2.02,0.17,74.16,-198.79,736.08
16,1715411609080,2.5,-2.02,0.17,74.16,-198.79,736.08
17,1715411609090,2.3279411764705884,-1.9358823529411766,0.1585294117647059,53.70335294117647,-171.79511764705882,715.4696470588236
18,1715411609100,2.05,-1.8,0.14,-15.01,-81.12,646.24
19,1715411609110,2.05,-1.8,0.14,-15.01,-81.12,646.24
20,1715411609120,2.05,-1.8,0.14,-15.010000000000002,-81.12,646.24
21,1715411609130,2.3152830188679245,-1.810754716981132,0.10415094339622642,-12.604999999999999,-72.02009433962264,656.8268867924529
22,1715411609140,2.79,-1.8300000000000003,0.04,-8.12,-55.05,676.57
23,1715411609150,2.79,-1.83,0.04,-8.12,-55.050000000000004,676.57
24,1715411609160,2.79,-1.83,0.04,-8.12,-55.05,676.57
25,1715411609170,3.0741363636363634,-0.8445909090909091,0.17904545454545454,-84.38945454545454,17.713090909090912,533.8489090909092
26,1715411609180,3.26,-0.2,0.27,-134.28,65.31,440.49
27,1715411609190,3.26,-0.2,0.27,-134.28,65.31,440.49
28,1715411609200,3.2837885462555065,-0.22022026431718061,0.25136563876651985,-134.28,65.31,440.49
29,1715411609210,3.86,-0.71,-0.19999999999999998,-257.31269461077846,151.3931137724551,401.8234131736527
30,1715411609220,3.86,-0.71,-0.2,-261.11,154.05,400.63
31,1715411609230,3.86,-0.71,-0.2,-261.11,154.05,400.63
32,1715411609240,3.8599999999999994,-0.71,-0.19999999999999998,-261.11,154.05,400.63
33,1715411609250,4.913134328358209,-0.8562686567164178,0.9603980099502487,-30.11223880597015,-142.5289054726368,-2.4665671641791036
34,1715411609260,4.94,-0.86,0.9899999999999999,23.74,-211.67,-96.44
35,1715411609270,4.94,-0.86,0.99,23.74,-211.67,-96.44
36,1715411609280,4.94,-0.8600000000000001,0.99,23.74,-211.67,-96.44
37,1715411609290,4.103436123348017,-1.0644933920704847,0.33004405286343613,-2.3659471365638773,220.20775330396475,-158.7283259911894
38,1715411609300,4.04,-1.08,0.28,-6.65,291.08,-168.95
39,1715411609310,4.04,-1.08,0.28,-6.65,291.08,-168.95
40,1715411609320,4.04,-1.08,0.28,-6.65,291.08,-168.95
41,1715411609330,3.003687943262411,-1.1298226950354608,-0.8360283687943262,53.854680851063826,200.39319148936173,-297.16787234042556
42,1715411609340,3.0,-1.13,-0.84,57.98,194.21,-305.91
43,1715411609350,3.0,-1.13,-0.84,57.97999999999999,194.21,-305.91
44,1715411609360,2.964146341463415,-1.0978048780487804,-0.7675609756097561,58.572073170731706,182.88865853658538,-310.3575609756098
45,1715411609370,2.51,-0.69,0.15,67.69,8.54,-378.85
46,1715411609380,2.51,-0.69,0.15,67.69,8.54,-378.85
47,1715411609390,2.51,-0.69,0.15,67.69,8.54,-378.85
48,1715411609400,2.4408636363636362,-0.5623636363636364,0.19786363636363638,69.59254545454546,49.42490909090909,-405.5203181818182
49,1715411609410,2.3799999999999994,-0.45,0.24,71.53,91.06,-432.68
50,1715411609420,2.38,-0.44999999999999996,0.24,71.53,91.06,-432.68
51,1715411609430,2.357142857142857,-0.4630612244897959,0.2413061224489796,72.22755102040816,91.64428571428573,-434.5173469387755
52,1715411609440,2.03,-0.65,0.26,105.71,119.69,-522.71
53,1715411609450,2.03,-0.65,0.26,105.71000000000001,119.69,-522.71
54,1715411609460,2.03,-0.65,0.26,105.71,119.69,-522.71
55,1715411609470,2.03,-0.65,0.26,105.71,119.68999999999998,-522.71
56,1715411609480,2.343054187192118,-0.8408866995073893,0.3821674876847291,118.54182266009853,148.02408866995074,-561.5752216748768
57,1715411609490,2.44,-0.9,0.42,124.45,161.07,-579.47
58,1715411609500,2.44,-0.9,0.42,124.45,161.07,-579.47
59,1715411609510,2.44,-0.8999999999999999,0.42000000000000004,124.44999999999999,161.07,-579.47
60,1715411609520,2.4223529411764706,-1.2441176470588236,0.3405882352941177,121.52326203208555,179.4855080213904,-606.457165775401
61,1715411609530,2.42,-1.29,0.33,120.24,187.56,-618.29
62,1715411609540,2.42,-1.29,0.33,120.24,187.56,-618.29
63,1715411609550,2.42,-1.29,0.33,120.24000000000001,187.56,-618.29
64,1715411609560,2.5464285714285713,-1.2619047619047619,0.41896825396825393,151.50936507936507,179.4952380952381,-628.2328571428571
65,1715411609570,2.69,-1.23,0.52,188.17,170.04,-639.89
66,1715411609580,2.69,-1.23,0.52,188.17,170.04,-639.89
67,1715411609590,2.5573291925465838,-1.2985714285714285,0.4633540372670808,189.7035403726708,166.3949689440994,-642.1247826086957
68,1715411609600,1.8,-1.69,0.14,237.55000000000004,52.67,-711.85
69,1715411609610,1.8,-1.69,0.14,237.55,52.67,-711.85
70,1715411609620,1.8000000000000003,-1.69,0.14,237.55,52.67,-711.8500000000001
71,1715411609630,1.8,-1.69,0.14,237.55,52.67,-711.85
72,1715411609640,0.48424242424242425,-2.1390909090909087,0.013939393939393942,225.60666666666668,67.84833333333333,-686.9483333333334
73,1715411609650,0.13,-2.26,-0.02,165.89,143.74,-562.44
74,1715411609660,0.13,-2.26,-0.02,165.89,143.74,-562.44
75,1715411609670,-0.9759701492537314,-2.3585074626865667,-0.655820895522388,134.8444776119403,119.85417910447762,-492.3004477611941
76,1715411609680,-2.34,-2.48,-1.44,27.22,37.05,-249.15
77,1715411609690,-2.34,-2.48,-1.44,27.22,37.05,-249.15000000000003
78,1715411609700,-2.34,-2.48,-1.44,27.22,37.05,-249.15
79,1715411609710,-2.5076470588235296,-2.506470588235294,-1.2811764705882354,34.355714285714285,-6.864957983193279,-147.54302521008404
80,1715411609720,-2.72,-2.54,-1.08,50.17,-104.19,77.64
81,1715411609730,-2.72,-2.54,-1.08,50.17,-104.19,77.64
82,1715411609740,-2.72,-2.54,-1.08,50.17,-104.19,77.64
83,1715411609750,-1.561353711790393,-2.2246288209606986,-0.394410480349345,-22.43576419213974,-93.02698689956333,284.7437554585153
84,1715411609760,-1.03,-2.08,-0.08,-67.75,-86.06,414.0
85,1715411609770,-1.03,-2.08,-0.08,-67.75,-86.06,414.0
86,1715411609780,-1.0066279069767443,-2.0813953488372094,-0.07593023255813953,-67.75,-86.06,414.0
87,1715411609790,0.98,-2.2,0.27,-141.68912621359223,-30.845436893203882,646.9466990291263
88,1715411609800,0.98,-2.2,0.27,-153.32,-22.16,683.59
89,1715411609810,0.98,-2.2,0.27,-153.32,-22.160000000000004,683.59
90,1715411609820,0.98,-2.2,0.27,-153.32,-22.160000000000004,683.59
91,1715411609830,2.4904,-2.59648,0.12840000000000001,-122.04096,-44.4904,841.41072
92,1715411609840,2.58,-2.62,0.12,-115.35999999999999,-49.26,875.1200000000001
93,1715411609850,2.58,-2.62,0.12,-115.36,-49.26,875.12
94,1715411609860,2.68,-2.56,0.04666666666666666,-88.05555555555556,-67.88222222222221,865.0555555555555
95,1715411609870,2.88,-2.44,-0.1,7.51,-133.06,829.8300000000002
96,1715411609880,2.88,-2.44,-0.1,7.51,-133.06,829.83
97,1715411609890,2.88,-2.44,-0.1,7.51,-133.06,829.83
98,1715411609900,2.675744680851064,-2.216595744680851,0.0021276595744680817,-2.4603191489361707,-150.50117021276597,794.1328723404256
99,1715411609910,2.56,-2.09,0.06,-17.82,-177.37,739.14
100,1715411609920,2.56,-2.09,0.06,-17.82,-177.37,739.14
101,1715411609930,2.56,-2.09,0.06,-17.82,-177.37,739.14
102,1715411609940,2.56,-2.09,0.06,-17.82,-177.37,739.14
103,1715411609950,2.6462222222222223,-1.666074074074074,0.3258518518518519,-34.11666666666667,-124.55333333333334,686.79
104,1715411609960,2.68,-1.5,0.43,-66.71,-18.92,582.09
105,1715411609970,2.68,-1.5,0.43,-66.71,-18.92,582.09
106,1715411609980,2.415,-1.29,0.125,-113.590625,33.52525,571.91775
107,1715411609990,2.15,-1.08,-0.18,-180.36,108.22,557.43
108,1715411610000,2.15,-1.08,-0.18,-180.36,108.21999999999998,557.43
109,1715411610010,2.15,-1.08,-0.18,-180.36,108.22,557.43
110,1715411610020,2.15,-1.08,-0.18,-180.36,108.22,557.43
111,1715411610030,3.352837837837838,-1.0613513513513515,0.40743243243243243,-133.7477027027027,37.476351351351354,350.7283783783784
112,1715411610040,3.4399999999999995,-1.06,0.44999999999999996,-130.37,32.35,335.75
113,1715411610050,3.4400000000000004,-1.06,0.45,-130.37,32.35,335.75
114,1715411610060,3.187450980392157,-0.7533333333333334,0.04411764705882353,-150.7621568627451,59.25196078431373,260.9343137254902
115,1715411610070,3.16,-0.72,-156.37,66.65,240.36000000000004
116,1715411610080,3.1599999999999997,-0.72,-156.37,66.65,240.36
117,1715411610090,3.16,-0.72,-156.37,66.65,240.36
118,1715411610100,3.9079113924050635,-0.6977848101265822,0.555379746835443,-81.4863924050633,-7.712088607594935,54.70575949367089
119,1715411610110,4.17,-0.69,0.75,-41.5,-47.42,-44.43
120,1715411610120,4.17,-0.69,0.75,-41.5,-47.42,-44.43
121,1715411610130,4.17,-0.69,0.75,-41.5,-47.42,-44.43
122,1715411610140,3.6349315068493144,-1.1905479452054795,0.3875342465753425,11.687397260273972,109.88219178082191,-148.87760273972603
123,1715411610150,3.5499999999999994,-1.27,0.33,27.22,155.82,-179.38
124,1715411610160,3.55,-1.27,0.32999999999999996,27.219999999999995,155.82,-179.38
125,1715411610170,3.4741891891891887,-1.226891891891892,0.2527027027027027,27.22,155.82,-179.38
126,1715411610180,3.04,-0.98,-0.19,19.515365853658537,167.26731707317074,-239.6485365853658
127,1715411610190,3.04,-0.98,-0.19,17.03,170.96,-259.09
128,1715411610200,3.04,-0.9800000000000001,-0.19,17.03,170.96,-259.09
129,1715411610210,2.8017834394904457,-0.909936305732484,-0.10031847133757962,25.111847133757962,156.78471337579617,-273.75503184713375
130,1715411610220,2.19,-0.73,0.13,55.48,103.52,-328.86
131,1715411610230,2.19,-0.73,0.13,55.47999999999999,103.52,-328.86
132,1715411610240,2.1645270270270274,-0.6261486486486486,0.12804054054054054,55.48,103.52,-328.86
133,1715411610250,2.06,-0.2,0.12,106.63564102564102,61.33782051282052,-371.4567948717949
134,1715411610260,2.06,-0.2,0.12,107.29999999999998,60.78999999999999,-372.01
135,1715411610270,2.06,-0.2,0.12,107.30000000000001,60.790000000000006,-372.01
136,1715411610280,2.0707042253521126,-0.21338028169014084,0.17753521126760563,104.38323943661972,66.93281690140844,-383.8633802816901
137,1715411610290,2.14,-0.3,0.55,84.29,109.25,-465.52000000000004
138,1715411610300,2.14,-0.3,0.55,84.29,109.25,-465.52
139,1715411610310,2.14,-0.3,0.55,84.29,109.25,-465.52000000000004
140,1715411610320,2.1220359281437124,-0.43473053892215563,0.4646706586826348,95.32473053892217,119.72688622754491,-474.61449101796404
141,1715411610330,2.1,-0.6,0.36,138.49,160.71,-510.19000000000005
142,1715411610340,2.1,-0.6,0.36000000000000004,138.49,160.71,-510.19
143,1715411610350,2.1,-0.6,0.36,138.49,160.71,-510.19
144,1715411610360,2.716,-0.9039999999999999,0.5599999999999999,108.66208163265307,168.14020408163265,-562.3219183673469
145,1715411610370,2.87,-0.98,0.61,93.92999999999999,171.81,-588.07
146,1715411610380,2.87,-0.9800000000000001,0.61,93.93,171.81,-588.07
147,1715411610390,2.87,-0.98,0.61,93.93,171.81,-588.07
148,1715411610400,3.3367164179104476,-1.1223880597014924,0.4834328358208955,102.05865671641791,228.60022388059699,-626.6291791044777
149,1715411610410,3.4600000000000004,-1.16,0.45,106.45,259.28,-647.46
150,1715411610420,3.46,-1.16,0.45,106.45,259.28,-647.46
151,1715411610430,3.46,-1.16,0.45,106.45,259.28,-647.4599999999999
152,1715411610440,3.353691275167785,-1.9484563758389262,0.21966442953020138,133.91107382550337,282.218255033557,-726.223422818792
153,1715411610450,3.34,-2.05,0.19000000000000003,142.03,289.0,-749.5099999999999
154,1715411610460,3.34,-2.05,0.19,142.03,289.0,-749.51
155,1715411610470,3.327397260273972,-2.0523287671232877,0.18431506849315069,142.03,289.0,-749.51
156,1715411610480,1.5,-2.39,-0.64,203.2674025974026,292.1418181818182,-678.1177922077921
157,1715411610490,1.5,-2.39,-0.64,207.52,292.36,-673.16
158,1715411610500,1.5,-2.39,-0.64,207.52,292.36,-673.16
159,1715411610510,0.6197986577181208,-2.450604026845638,-0.8477852348993289,199.82281879194633,255.4845637583893,-633.9336912751678
160,1715411610520,-1.55,-2.6,-1.36,166.56,96.12999999999998,-464.42
161,1715411610530,-1.55,-2.6,-1.36,166.56,96.13000000000001,-464.42
162,1715411610540,-1.55,-2.6,-1.36,166.56,96.13,-464.42
163,1715411610550,-2.0852439024390246,-2.6486585365853657,-1.5094512195121952,151.1107317073171,79.01884146341463,-414.48195121951227
164,1715411610560,-3.0899999999999994,-2.74,-1.79,56.4,-25.880000000000003,-108.33999999999999
165,1715411610570,-3.09,-2.74,-1.79,56.4,-25.88,-108.34
166,1715411610580,-3.09,-2.74,-1.7899999999999998,56.39999999999999,-25.88,-108.34000000000002
167,1715411610590,-2.7526771653543305,-2.5680314960629924,-1.5353543307086615,7.20708661417323,-50.140787401574805,18.926614173228348
168,1715411610600,-2.07,-2.22,-1.02,-92.35,-99.24,276.49
169,1715411610610,-2.07,-2.22,-1.02,-92.34999999999998,-99.24,276.49
170,1715411610620,-2.07,-2.22,-1.02,-92.35,-99.24000000000001,276.49
171,1715411610630,0.10148936170212769,-2.021808510638298,-0.10659574468085106,-154.98234042553193,-121.01914893617023,431.22872340425533
172,1715411610640,0.45000000000000007,-1.9899999999999998,0.04,-205.57,-138.61,556.21
173,1715411610650,0.45,-1.9899999999999998,0.04,-205.57,-138.61,556.21
174,1715411610660,0.5493333333333333,-2.0193333333333334,0.05533333333333334,-205.57,-138.61,556.21
175,1715411610670,1.94,-2.43,0.27,-159.51596153846154,-133.55596153846153,708.4303846153846
176,1715411610680,1.94,-2.43,0.27,-147.16,-132.2,749.2700000000001
177,1715411610690,1.94,-2.43,0.27,-147.16,-132.2,749.27
178,1715411610700,1.94,-2.43,0.27,-147.16,-132.2,749.27
179,1715411610710,2.7118796992481204,-2.758270676691729,-0.02278195488721804,-23.893834586466166,-145.98015037593981,846.9572180451128
180,1715411610720,2.81,-2.8,-0.06,4.64,-149.17,869.5700000000002
181,1715411610730,2.81,-2.8,-0.06,4.64,-149.17,869.57
182,1715411610740,2.7078658536585367,-2.595731707317073,-0.0926829268292683,33.19317073170732,-158.31780487804878,840.9553658536585
183,1715411610750,2.56,-2.3,-0.14,88.26,-175.96,785.77
184,1715411610760,2.56,-2.3,-0.14,88.25999999999999,-175.96,785.77
185,1715411610770,2.56,-2.3,-0.14,88.26,-175.96,785.77
186,1715411610780,2.2797468354430377,-2.113164556962025,-0.07772151898734178,63.06915611814347,-141.20898734177214,745.224641350211
187,1715411610790,2.02,-1.94,-0.02,38.09,-106.75,705.02
188,1715411610800,2.02,-1.94,-0.02,38.09,-106.75,705.02
189,1715411610810,2.02,-1.94,-0.02,38.09,-106.75,705.02
190,1715411610820,2.118252427184466,-1.946407766990291,-0.002912621359223302,28.715436893203883,-97.45446601941747,691.3308737864078
191,1715411610830,2.48,-1.9699999999999998,0.06,-5.8,-63.22999999999999,640.93
192,1715411610840,2.48,-1.97,0.06,-5.8,-63.23,640.93
193,1715411610850,2.48,-1.97,0.06,-5.8,-63.23,640.93
194,1715411610860,2.5563302752293575,-1.655137614678899,-0.08311926605504588,-5.799999999999999,-63.23,640.93
195,1715411610870,2.64,-1.31,-0.24,-143.262421875,78.50976562500001,624.915625
196,1715411610880,2.64,-1.31,-0.24,-246.83,185.3,612.85
197,1715411610890,2.64,-1.31,-0.24,-246.83,185.3,612.85
198,1715411610900,3.8370212765957445,-1.715886524822695,0.02141843971631207,-260.0864539007092,77.19397163120567,499.5343971631206
199,1715411610910,4.38,-1.9,0.14,-269.35,1.65,420.35
200,1715411610920,4.38,-1.8999999999999997,0.14,-269.35,1.6499999999999997,420.3500000000001
201,1715411610930,4.38,-1.9,0.14,-269.35,1.65,420.35
202,1715411610940,4.37015625,-0.96484375,0.37625000000000003,-82.506484375,-120.08484375,58.38125
203,1715411610950,4.37,-0.95,0.38,-64.94,-131.53,24.35
204,1715411610960,4.37,-0.95,0.38,-64.94,-131.53,24.35
205,1715411610970,4.331212121212121,-1.1697979797979796,0.4995959595959596,-51.05388888888889,-69.18833333333333,-53.28333333333334
206,1715411610980,4.25,-1.63,0.75,-14.95,92.9,-255.13
207,1715411610990,4.25,-1.6300000000000001,0.75,-14.95,92.9,-255.12999999999997
208,1715411611000,4.25,-1.63,0.75,-14.95,92.9,-255.13
209,1715411611010,3.7937037037037036,-1.7175720164609054,0.03559670781893002,-17.988024691358024,231.04123456790123,-234.24703703703705
210,1715411611020,3.26,-1.82,-0.8,-22.639999999999997,442.57,-202.27
211,1715411611030,3.2600000000000002,-1.8200000000000003,-0.8,-22.64,442.57000000000005,-202.27
212,1715411611040,3.26,-1.82,-0.8,-22.64,442.57,-202.27
213,1715411611050,2.9933707865168535,-1.5722471910112361,-0.7292134831460675,-8.824831460674158,397.2868539325843,-229.2834831460674
214,1715411611060,2.13,-0.77,-0.5,59.33,173.89,-362.55
215,1715411611070,2.13,-0.77,-0.5,59.33,173.89,-362.55
216,1715411611080,2.13,-0.77,-0.5,59.33,173.89,-362.55
217,1715411611090,2.138571428571429,-0.7100000000000001,-0.11000000000000001,88.98551020408162,140.5534013605442,-385.9731292517007
218,1715411611100,2.15,-0.63,0.41,195.56,20.75,-470.1499999999999
219,1715411611110,2.15,-0.63,0.41,195.56,20.75,-470.15
220,1715411611120,2.15,-0.63,0.41,195.56,20.75,-470.15
221,1715411611130,2.1406134969325152,-0.6769325153374234,0.381840490797546,190.25791411042945,31.103128834355825,-473.69110429447846
222,1715411611140,2.12,-0.7799999999999999,0.32,123.54,161.38,-518.25
223,1715411611150,2.12,-0.78,0.32,123.54,161.38,-518.25
224,1715411611160,2.12,-0.78,0.32,123.54000000000002,161.38,-518.25
225,1715411611170,2.198387096774194,-1.058709677419355,0.24161290322580645,163.54717741935485,156.98887096774192,-577.5062903225806
226,1715411611180,2.21,-1.1,0.22999999999999998,173.65,155.88,-592.47
227,1715411611190,2.21,-1.1,0.23,173.65,155.88,-592.47
228,1715411611200,2.21,-1.1,0.23000000000000004,173.65,155.88,-592.47
229,1715411611210,2.547078651685393,-1.1926966292134833,0.3564044943820225,155.3567415730337,147.38078651685393,-628.1682022471911
230,1715411611220,2.61,-1.21,0.38,149.35,144.59,-639.89
231,1715411611230,2.61,-1.21,0.38,149.35,144.59,-639.89
232,1715411611240,2.6600719424460433,-1.1996402877697843,0.381726618705036,149.35,144.59,-639.89
233,1715411611250,2.9,-1.15,0.39,163.02868852459017,121.2260655737705,-691.8873770491803
234,1715411611260,2.9,-1.15,0.39,164.25,119.13999999999999,-696.53
235,1715411611270,2.9,-1.15,0.39,164.25,119.14,-696.53
236,1715411611280,2.8030263157894737,-1.2455263157894736,0.36828947368421056,163.7032894736842,120.99131578947369,-696.5826315789474
237,1715411611290,2.23,-1.81,0.24,155.94,147.28,-697.33
238,1715411611300,2.23,-1.81,0.24,155.94,147.28,-697.33
239,1715411611310,2.23,-1.81,0.24,155.94,147.28,-697.33
240,1715411611320,1.02,-1.93,-0.19,248.17421052631576,29.08,-699.4931578947369
241,1715411611330,1.02,-1.93,-0.19000000000000003,272.77,-2.44,-700.07
242,1715411611340,1.02,-1.9300000000000002,-0.19,272.77,-2.44,-700.07
243,1715411611350,1.02,-1.9299999999999997,-0.19,272.77,-2.44,-700.07
244,1715411611360,0.8204672897196262,-1.9882242990654204,-0.22598130841121494,258.38728971962615,0.21542056074766353,-678.4445794392524
245,1715411611370,-2.03,-2.82,-0.74,52.92000000000001,38.15,-369.51
246,1715411611380,-2.03,-2.82,-0.74,52.92,38.15,-369.51
247,1715411611390,-2.03,-2.82,-0.74,52.919999999999995,38.15,-369.51
248,1715411611400,-2.64015625,-2.8532812499999998,-0.834296875,9.4371875,4.946874999999999,-195.515
249,1715411611410,-3.13,-2.88,-0.91,-28.93,-24.35,-41.99
250,1715411611420,-3.13,-2.88,-0.91,-28.93,-24.35,-41.99
251,1715411611430,-2.981034482758621,-2.8055172413793104,-0.8427586206896552,-28.930000000000003,-24.35,-41.99
252,1715411611440,-1.69,-2.16,-0.26,-29.741764705882353,-69.58823529411765,276.3982352941176
253,1715411611450,-1.69,-2.16,-0.26,-29.850000000000005,-75.62,318.85
254,1715411611460,-1.69,-2.16,-0.26,-29.85,-75.62,318.85
255,1715411611470,-1.69,-2.16,-0.26,-29.85,-75.62,318.85
256,1715411611480,0.21327868852459017,-1.9386885245901637,0.28885245901639345,-41.810819672131146,-33.118524590163936,536.3377049180328
257,1715411611490,0.46,-1.91,0.36,-44.74,-22.71,589.6
258,1715411611500,0.46,-1.91,0.36,-44.74,-22.71,589.6
259,1715411611510,1.493125,-2.14109375,0.26484375,-70.061484375,11.924687499999997,709.95609375
260,1715411611520,1.9799999999999998,-2.25,0.22,-90.39,39.73,806.58
261,1715411611530,1.98,-2.25,0.22,-90.39,39.73,806.58
262,1715411611540,1.9800000000000002,-2.25,0.22000000000000003,-90.39,39.73,806.58
263,1715411611550,2.1337226277372263,-2.275620437956204,0.1943795620437956,-92.78474452554745,33.49700729927007,813.8833576642336
264,1715411611560,2.52,-2.34,0.13,-104.06,4.15,848.27
265,1715411611570,2.52,-2.34,0.13,-104.06,4.15,848.27
266,1715411611580,2.4963157894736843,-2.3242105263157895,0.1387719298245614,-104.6825,3.13171052631579,847.1288157894737
267,1715411611590,2.25,-2.16,0.23,-151.37,-73.24,761.54
268,1715411611600,2.25,-2.16,0.23,-151.37,-73.24,761.54
269,1715411611610,2.25,-2.16,0.23,-151.37,-73.24,761.54
270,1715411611620,2.25,-2.16,0.23,-151.37,-73.24,761.54
271,1715411611630,1.8111538461538461,-2.0415811965811965,-0.05559829059829059,-105.02435897435898,-130.44205128205127,685.6761538461539
272,1715411611640,1.62,-1.99,-0.18,-77.09,-164.92,639.95
273,1715411611650,1.62,-1.99,-0.18,-77.09,-164.92,639.95
274,1715411611660,1.62,-1.99,-0.18,-77.09,-164.92,639.95
275,1715411611670,2.065,-1.6855263157894738,0.14008771929824562,26.26333333333333,-222.65999999999997,554.75
276,1715411611680,2.19,-1.6,0.23,77.94,-251.53,512.15
277,1715411611690,2.19,-1.6,0.23,77.94,-251.53,512.15
278,1715411611700,2.19,-1.6,0.22999999999999998,77.94,-251.53000000000003,512.15
279,1715411611710,2.5113868613138686,-1.374160583941606,0.04759124087591241,-20.106131386861318,-23.410875912408756,526.7037226277372
280,1715411611720,2.56,-1.34,0.02,-57.74,64.15,532.29
281,1715411611730,2.56,-1.34,0.02,-57.74000000000001,64.15,532.29
282,1715411611740,2.8996296296296293,-1.3037037037037038,-0.0059259259259259265,-97.36708994708995,114.27211640211641,529.6761375661375
283,1715411611750,3.87,-1.2,-0.08000000000000002,-278.02,342.77,517.76
284,1715411611760,3.87,-1.2,-0.08,-278.02,342.77,517.76
285,1715411611770,3.8699999999999997,-1.2,-0.08,-278.02,342.77,517.76
286,1715411611780,3.87,-1.2,-0.08,-278.02,342.77,517.76
287,1715411611790,3.9969491525423733,-0.9944632768361581,-0.5575706214689266,-64.97084745762712,-85.81389830508475,199.82355932203387
288,1715411611800,4.08,-0.86,-0.87,81.12,-379.7,-18.19
289,1715411611810,4.088225806451613,-0.8664112903225807,-0.8449596774193548,81.12,-379.7,-18.19
290,1715411611820,4.76,-1.39,1.2,0.5294545454545482,-161.68763636363636,-54.68927272727273
291,1715411611830,4.76,-1.39,1.2,-89.36,81.47999999999999,-95.4
292,1715411611840,4.76,-1.39,1.2,-89.36,81.48,-95.4
293,1715411611850,4.76,-1.39,1.2,-89.36,81.48,-95.4
294,1715411611860,4.055078534031414,-1.341937172774869,0.10523560209424082,-56.193246073298425,179.7981151832461,-136.03497382198952
295,1715411611870,3.44,-1.3,-0.85,5.19,361.76,-211.24000000000004
296,1715411611880,3.44,-1.3,-0.8499999999999999,5.19,361.76,-211.24
297,1715411611890,3.44,-1.3,-0.85,5.19,361.76,-211.24
298,1715411611900,2.9636781609195406,-1.0940229885057473,-0.5732183908045977,53.61482758620689,200.28689655172414,-318.6993103448276
299,1715411611910,2.7,-0.98,-0.42,92.96,69.09,-406.01
300,1715411611920,2.7,-0.98,-0.42,92.96,69.09,-406.01
301,1715411611930,2.7,-0.98,-0.42,92.96,69.09,-406.01
302,1715411611940,2.6908661417322834,-0.7836220472440945,-0.05464566929133857,75.11700787401574,106.94527559055118,-420.6972440944882
303,1715411611950,2.68,-0.55,0.38,53.89,151.98,-438.17
304,1715411611960,2.6800000000000006,-0.55,0.38,53.89,151.98,-438.17
305,1715411611970,2.68,-0.55,0.38,53.89,151.98,-438.17
306,1715411611980,2.4600675675675676,-0.8202027027027027,0.25432432432432434,58.01054054054054,184.5518918918919,-458.00270270270266
307,1715411611990,2.33,-0.98,0.18,67.75,261.54,-504.87999999999994
308,1715411612000,2.33,-0.98,0.18,67.75,261.54,-504.88
309,1715411612010,2.3391477272727275,-0.9923295454545454,0.19232954545454548,67.75,261.54,-504.88000000000005
310,1715411612020,2.56,-1.29,0.49,181.38282051282053,205.2446153846154,-568.5353846153846
311,1715411612030,2.56,-1.29,0.49,206.24000000000004,192.93,-582.46
312,1715411612040,2.56,-1.29,0.49,206.24,192.93,-582.46
313,1715411612050,2.540842105263158,-1.3577894736842107,0.462,206.5482105263158,195.2403157894737,-583.588
314,1715411612060,2.43,-1.75,0.3,213.56,247.8,-609.25
315,1715411612070,2.43,-1.75,0.3,213.56,247.79999999999998,-609.25
316,1715411612080,2.43,-1.75,0.3,213.56,247.79999999999998,-609.25
317,1715411612090,2.43,-1.75,0.3,213.56,247.8,-609.25
318,1715411612100,2.3976282051282047,-1.68525641025641,0.3453205128205128,226.76121794871796,204.53185897435898,-613.0051282051281
319,1715411612110,2.38,-1.6500000000000001,0.37,233.95000000000002,180.97,-615.05
320,1715411612120,2.38,-1.65,0.37,233.95,180.97,-615.05
321,1715411612130,2.359285714285714,-1.5533333333333332,0.38726190476190475,230.07285714285712,171.00880952380953,-626.0790476190476
322,1715411612140,2.32,-1.37,0.42000000000000004,219.79000000000002,144.59,-655.33
323,1715411612150,2.32,-1.37,0.42,219.79,144.59,-655.33
324,1715411612160,2.32,-1.37,0.42000000000000004,219.79000000000002,144.59,-655.33
325,1715411612170,1.6195857988165678,-1.422662721893491,0.28307692307692306,285.8522485207101,88.09461538461538,-654.775325443787
326,1715411612180,0.99,-1.47,0.16,349.61,33.57,-654.24
327,1715411612190,0.99,-1.47,0.16,349.61,33.57,-654.24
328,1715411612200,0.9900000000000001,-1.47,0.16,349.61,33.57,-654.24
329,1715411612210,-0.3154716981132076,-1.6166037735849055,-0.39849056603773586,230.86735849056606,15.768364779874215,-552.0239622641509
330,1715411612220,-0.88,-1.68,-0.64,154.97,4.39,-486.69
331,1715411612230,-0.88,-1.68,-0.64,154.97,4.39,-486.69
332,1715411612240,-0.88,-1.68,-0.64,154.97,4.39,-486.69
333,1715411612250,-2.1094545454545455,-2.4512727272727273,-0.9225454545454546,77.45666666666666,16.436666666666667,-288.2033333333334
334,1715411612260,-2.49,-2.69,-1.01,38.7,22.46,-188.96
335,1715411612270,-2.49,-2.69,-1.01,38.7,22.46,-188.96
336,1715411612280,-2.49,-2.69,-1.01,38.7,22.46,-188.96
337,1715411612290,-2.2547619047619047,-2.346190476190476,-0.9647619047619047,-24.693809523809524,-28.97714285714285,111.00095238095238
338,1715411612300,-2.23,-2.31,-0.96,-39.61,-41.08,181.58
339,1715411612310,-2.23,-2.31,-0.9600000000000001,-39.61,-41.08,181.58
340,1715411612320,-1.7293370165745856,-2.208342541436464,-0.7414364640883977,-57.49563535911603,-42.687734806629834,227.94243093922654
341,1715411612330,-0.26,-1.91,-0.1,-147.52,-50.78,461.3
342,1715411612340,-0.26,-1.91,-0.1,-147.52,-50.78,461.29999999999995
343,1715411612350,-0.26,-1.91,-0.1,-147.52,-50.78,461.3
344,1715411612360,0.24588832487309645,-1.9770050761421318,0.027309644670050766,-176.23167512690355,-29.331675126903555,527.7589847715736
345,1715411612370,1.25,-2.11,0.28,-233.22,13.24,659.67
346,1715411612380,1.25,-2.11,0.28,-233.21999999999997,13.24,659.67
347,1715411612390,1.25,-2.11,0.28,-233.22,13.24,659.67
348,1715411612400,1.6309132420091326,-2.296027397260274,0.16926940639269406,-227.08109589041098,-39.01598173515982,701.0832420091324
349,1715411612410,2.11,-2.53,0.03,-219.36000000000004,-104.74,753.17
350,1715411612420,2.11,-2.53,0.03,-219.36,-104.74,753.17
351,1715411612430,2.1624354243542436,-2.549261992619926,0.02785977859778598,-213.66287822878232,-112.06132841328413,755.2728782287822
352,1715411612440,2.6,-2.71,0.01,-90.7,-270.08,800.66
353,1715411612450,2.6,-2.71,0.009999999999999998,-90.7,-270.08,800.66
354,1715411612460,2.6,-2.71,0.01,-90.7,-270.08,800.66
355,1715411612470,2.6,-2.71,0.01,-90.7,-270.08,800.66
356,1715411612480,2.422869955156951,-2.2707174887892374,0.18713004484304935,-18.512107623318386,-246.98403587443948,741.9252466367714
357,1715411612490,2.35,-2.09,0.26,20.32,-234.56,710.33
358,1715411612500,2.35,-2.09,0.26,20.32,-234.56,710.33
359,1715411612510,2.3516806722689076,-2.087647058823529,0.2573109243697479,20.32,-234.56,710.33
360,1715411612520,2.4,-2.02,0.18,48.786086956521736,-198.3891304347826,678.1047826086957
361,1715411612530,2.4,-2.02,0.18,60.0,-184.14,665.41
362,1715411612540,2.4,-2.02,0.18000000000000002,60.0,-184.14,665.41
363,1715411612550,2.4183076923076925,-1.948923076923077,0.17515384615384616,58.890076923076926,-182.478,664.9207692307692
364,1715411612560,2.74,-0.7,0.09,-84.29,31.92,601.81
365,1715411612570,2.74,-0.7,0.09,-84.29,31.92,601.81
366,1715411612580,2.74,-0.7,0.09,-84.29,31.92,601.81
367,1715411612590,2.798611111111111,-0.715,0.11722222222222221,-84.29,31.92,601.81
368,1715411612600,4.85,-1.24,1.07,-266.7266013071895,230.71398692810456,507.22542483660123
369,1715411612610,4.85,-1.24,1.07,-272.89,237.43,504.03
370,1715411612620,4.85,-1.24,1.07,-272.89,237.43,504.0299999999999
371,1715411612630,4.4155707762557075,-1.0487214611872147,0.5253424657534247,-214.81383561643833,171.16360730593607,394.87602739726026
372,1715411612640,3.51,-0.65,-0.61,-67.75,3.36,118.47
373,1715411612650,3.5100000000000002,-0.65,-0.61,-67.75,3.36,118.47
374,1715411612660,3.51,-0.65,-0.61,-67.75,3.36,118.47
375,1715411612670,4.184594594594595,-0.8705405405405405,0.36729729729729726,-17.78572072072072,-60.33513513513514,3.856441441441446
376,1715411612680,5.07,-1.16,1.65,56.88000000000001,-155.52,-167.42
377,1715411612690,5.07,-1.16,1.65,56.88000000000001,-155.52,-167.42
378,1715411612700,4.5828030303030305,-1.142121212121212,1.0510606060606058,32.70272727272727,32.808409090909095,-166.00522727272727
379,1715411612710,3.98,-1.12,0.31,-14.040000000000001,396.91,-163.27
380,1715411612720,3.98,-1.12,0.31,-14.04,396.91,-163.27
381,1715411612730,3.98,-1.12,0.31,-14.04,396.91,-163.27
382,1715411612740,3.059473684210526,-1.01,-0.23421052631578945,47.99228070175439,262.3822807017544,-219.99701754385964
383,1715411612750,2.39,-0.93,-0.63,112.24,123.04999999999998,-278.75
384,1715411612760,2.3899999999999997,-0.93,-0.63,112.24,123.05,-278.75
385,1715411612770,2.39,-0.93,-0.63,112.24,123.05,-278.75
386,1715411612780,2.39,-0.93,-0.63,112.24,123.05,-278.75
387,1715411612790,,,,,,
388,1715411612800,2.52,-0.2,0.5,154.85,-36.25,-378.85
389,1715411612810,2.52,-0.2,0.5,154.85,-36.25,-378.85
390,1715411612820,2.306993865030675,-0.3168098159509202,0.403803680981595,107.57147239263804,90.77607361963189,-413.95920245398776
391,1715411612830,2.21,-0.37,0.36,73.73,181.7,-439.09000000000003
392,1715411612840,2.21,-0.37,0.35999999999999993,73.73,181.7,-439.09
393,1715411612850,2.21,-0.37,0.36,73.73,181.7,-439.09
394,1715411612860,2.2011678832116788,-0.7056204379562044,0.307007299270073,123.45029197080294,180.06145985401457,-508.02956204379564
395,1715411612870,2.2,-0.75,0.3,147.77,179.26,-541.75
396,1715411612880,2.2,-0.75,0.3,147.77,179.26,-541.75
397,1715411612890,2.2,-0.75,0.3,147.77,179.26,-541.75
398,1715411612900,2.496319018404908,-1.352515337423313,0.43828220858895706,175.2310429447853,212.17717791411042,-583.6946012269939
399,1715411612910,2.5,-1.36,0.43999999999999995,178.22,215.76,-588.26
400,1715411612920,2.5,-1.36,0.44,178.22,215.76,-588.26
401,1715411612930,2.502268041237113,-1.36,0.4377319587628866,180.2186082474227,218.2145360824742,-591.781855670103
402,1715411612940,2.51,-1.36,0.43,191.59,232.18,-611.82
403,1715411612950,2.51,-1.36,0.43,191.59,232.17999999999998,-611.82
404,1715411612960,2.51,-1.36,0.43,191.59,232.18,-611.82
405,1715411612970,2.388,-1.3384705882352943,0.4012941176470588,205.2810588235294,214.5063529411765,-619.0302352941177
406,1715411612980,2.34,-1.33,0.39,229.13,183.72,-631.59
407,1715411612990,2.3400000000000003,-1.3299999999999998,0.39,229.13,183.71999999999997,-631.59
408,1715411613000,2.34,-1.33,0.39,229.13000000000002,183.72,-631.59
409,1715411613010,1.9808163265306122,-1.4497278911564626,0.348843537414966,235.69666666666663,170.08666666666664,-641.2685714285715
410,1715411613020,1.38,-1.65,0.28,256.71,126.46000000000001,-672.24
411,1715411613030,1.38,-1.65,0.28,256.71,126.46,-672.24
412,1715411613040,1.38,-1.65,0.28,256.71,126.46,-672.24
413,1715411613050,0.3147368421052631,-1.5168421052631578,-0.29315789473684206,265.66233918128654,64.44976608187135,-573.152865497076
414,1715411613060,-0.45999999999999996,-1.42,-0.71,274.72,1.71,-472.9
415,1715411613070,-0.46,-1.42,-0.71,274.72,1.71,-472.9
416,1715411613080,-0.46,-1.42,-0.71,274.72,1.71,-472.9
417,1715411613090,-1.7354014598540146,-1.8181021897810217,-0.6067883211678832,176.3102189781022,-3.497080291970803,-359.14576642335766
418,1715411613100,-2.19,-1.96,-0.57,104.06,-7.32,-275.63
419,1715411613110,-2.19,-1.96,-0.57,104.06,-7.32,-275.63
420,1715411613120,-2.19,-1.96,-0.57,104.06,-7.32,-275.63
421,1715411613130,-2.607073170731707,-2.1639024390243904,-0.7646341463414634,-76.93871951219512,47.78908536585366,48.182865853658534
422,1715411613140,-2.64,-2.18,-0.78,-112.61,58.65,112.0
423,1715411613150,-2.64,-2.18,-0.78,-112.61,58.64999999999999,112.0
424,1715411613160,-2.0655882352941175,-2.1161764705882353,-0.6766666666666666,-119.30176470588236,50.33588235294118,149.46117647058824
425,1715411613170,-0.75,-1.9699999999999998,-0.44000000000000006,-169.49,-12.02,430.4200000000001
426,1715411613180,-0.75,-1.97,-0.44,-169.49,-12.02,430.42
427,1715411613190,-0.75,-1.97,-0.44,-169.49,-12.02,430.42
428,1715411613200,0.2169135802469136,-2.1275308641975306,-0.21728395061728398,-174.78382716049381,-31.466913580246917,475.462962962963
429,1715411613210,1.03,-2.26,-0.03,-196.29,-110.47,658.45
430,1715411613220,1.03,-2.26,-0.03,-196.29,-110.46999999999998,658.45
431,1715411613230,1.03,-2.26,-0.029999999999999995,-196.29,-110.47,658.45
432,1715411613240,2.163370786516854,-2.6925842696629214,-0.06460674157303371,-136.19325842696628,-158.1679775280899,802.311797752809
433,1715411613250,2.34,-2.76,-0.07,-116.46000000000001,-173.83,849.55
434,1715411613260,2.34,-2.76,-0.07,-116.46000000000001,-173.83,849.55
435,1715411613270,2.34,-2.76,-0.07,-116.46,-173.83,849.55
436,1715411613280,2.5255214723926382,-2.541349693251534,-0.14950920245398774,-96.56171779141104,-178.26092024539878,834.1961349693252
437,1715411613290,2.62,-2.43,-0.19,-72.63,-183.59000000000003,815.73
438,1715411613300,2.62,-2.43,-0.19,-72.63,-183.59,815.73
439,1715411613310,2.62,-2.43,-0.19,-72.63,-183.59,815.73
440,1715411613320,2.1823387096774196,-2.089596774193548,0.02072580645161291,-56.61,-155.71249999999998,694.6575
441,1715411613330,2.08,-2.01,0.07,-51.27,-146.42,654.3
442,1715411613340,2.08,-2.01,0.07,-51.27,-146.42,654.3
443,1715411613350,2.08,-2.01,0.07,-51.27,-146.42,654.3
444,1715411613360,2.052,-2.0846666666666667,-0.12600000000000003,-48.262424242424245,-119.60181818181817,641.9969696969696
445,1715411613370,2.05,-2.09,-0.14,-47.3,-111.02,638.06
446,1715411613380,2.05,-2.09,-0.14,-47.300000000000004,-111.02,638.06
447,1715411613390,2.1304878048780487,-1.9089024390243903,-0.12591463414634146,-32.20975609756098,-126.95871951219512,613.8791463414634
448,1715411613400,2.45,-1.19,-0.07,60.3,-224.67,465.64
449,1715411613410,2.45,-1.19,-0.07,60.3,-224.67,465.63999999999993
450,1715411613420,2.45,-1.19,-0.07,60.3,-224.67,465.64000000000004
451,1715411613430,2.8338926174496644,-1.1738926174496644,0.07228187919463087,-39.61067114093961,-62.18134228187918,517.5597315436241
452,1715411613440,3.88,-1.13,0.46,-321.41,396.12,664.0
453,1715411613450,3.88,-1.13,0.46,-321.41,396.12,664.0
454,1715411613460,3.88,-1.13,0.4600000000000001,-321.41,396.12,664.0
455,1715411613470,3.7983098591549296,-1.113661971830986,0.1659154929577465,-215.8691549295775,221.45281690140848,486.1905633802817
456,1715411613480,3.6800000000000006,-1.09,-0.26,4.39,-143.07,115.11
457,1715411613490,3.68,-1.09,-0.26,4.39,-143.07,115.11
458,1715411613500,3.68,-1.09,-0.26,4.39,-143.07,115.11
459,1715411613510,4.073225806451613,-0.8562903225806452,0.26306451612903226,-24.029999999999998,-85.78564516129032,89.53153225806452
460,1715411613520,4.74,-0.45999999999999996,1.15,-117.13,101.87,5.74
461,1715411613530,4.739999999999999,-0.46,1.15,-117.13,101.87,5.739999999999999
462,1715411613540,4.74,-0.46,1.15,-117.13,101.87,5.740000000000001
463,1715411613550,4.261785714285714,-1.0032142857142856,0.6346428571428571,-58.964499999999994,154.49835714285715,-80.99642857142857
464,1715411613560,3.71,-1.63,0.04,42.54,246.34,-232.36
465,1715411613570,3.71,-1.63,0.04,42.54,246.34000000000003,-232.36
466,1715411613580,3.71,-1.63,0.04,42.54,246.34000000000003,-232.35999999999999
467,1715411613590,3.425172413793103,-1.2882068965517242,-0.008827586206896552,42.54,246.34000000000003,-232.36000000000004
468,1715411613600,3.01,-0.79,-0.08,30.894649681528662,217.5346496815287,-304.83541401273885
469,1715411613610,3.01,-0.79,-0.08,30.82,217.35,-305.3
470,1715411613620,3.01,-0.79,-0.08,30.82,217.35,-305.3
471,1715411613630,2.7561139896373055,-0.7341450777202072,0.00632124352331606,48.299170984455955,167.9205699481865,-364.11481865284975
472,1715411613640,2.51,-0.68,0.09,71.96,101.01,-443.73
473,1715411613650,2.51,-0.68,0.09,71.96,101.01,-443.73
474,1715411613660,2.4587745098039213,-0.6233823529411765,0.21132352941176472,73.87323529411765,99.80289215686275,-444.99985294117647
475,1715411613670,2.32,-0.47,0.54,150.02,51.76,-495.54
476,1715411613680,2.32,-0.47,0.54,150.02,51.76,-495.54
477,1715411613690,2.32,-0.47,0.54,150.02,51.76,-495.54
478,1715411613700,2.27125,-0.63875,0.51375,150.02,51.76,-495.5400000000001
479,1715411613710,2.19,-0.9199999999999999,0.47000000000000003,154.70243243243243,150.6018918918919,-586.8805405405406
480,1715411613720,2.19,-0.92,0.47,154.97,156.25,-592.1
481,1715411613730,2.19,-0.9200000000000002,0.47,154.97,156.25,-592.1
482,1715411613740,2.1632857142857143,-0.9382142857142857,0.4432857142857142,161.938,150.4042857142857,-591.4371428571428
483,1715411613750,1.9699999999999998,-1.07,0.25,215.94000000000003,105.1,-586.3
484,1715411613760,1.97,-1.07,0.25,215.94,105.1,-586.3
485,1715411613770,1.97,-1.07,0.25,215.94,105.1,-586.3
486,1715411613780,2.252736842105263,-0.9826842105263158,0.4038421052631579,190.53663157894735,109.64526315789473,-589.8181052631578
487,1715411613790,2.65,-0.86,0.62,144.96,117.8,-596.13
488,1715411613800,2.65,-0.8599999999999999,0.62,144.96,117.8,-596.13
489,1715411613810,2.65,-0.86,0.62,144.96,117.79999999999998,-596.13
490,1715411613820,2.65,-0.9804854368932039,0.4286407766990291,186.8557281553398,76.03825242718446,-611.9397087378641
491,1715411613830,2.65,-1.03,0.35,238.77,24.29,-631.53
492,1715411613840,2.65,-1.03,0.35,238.77,24.290000000000003,-631.53
493,1715411613850,2.65,-1.03,0.35,238.77,24.29,-631.53
494,1715411613860,2.5858992805755396,-1.1724460431654675,0.3571223021582734,256.2263309352518,-28.579712230215826,-704.4973381294965
495,1715411613870,2.56,-1.23,0.36,266.66,-60.17999999999999,-748.11
496,1715411613880,2.56,-1.23,0.36,266.66,-60.18000000000001,-748.11
497,1715411613890,2.56,-1.23,0.36,266.66,-60.18,-748.11
498,1715411613900,0.7819999999999999,-2.084,0.262,233.93500000000003,-107.605,-689.835
499,1715411613910,0.02,-2.45,0.22,219.91,-127.93,-664.86
500,1715411613920,0.020000000000000004,-2.45,0.22000000000000003,219.90999999999997,-127.93,-664.8600000000001
501,1715411613930,0.02,-2.45,0.22000000000000003,219.91,-127.93,-664.86
502,1715411613940,-0.5163095238095238,-2.587619047619048,0.06619047619047619,155.67833333333334,-95.0977380952381,-581.6794047619047
503,1715411613950,-2.63,-3.13,-0.54,-97.47,34.3,-253.84999999999997
504,1715411613960,-2.63,-3.13,-0.54,-97.47,34.3,-253.85
505,1715411613970,-2.654,-3.0507999999999997,-0.4752,-97.47,34.3,-253.85
506,1715411613980,-2.73,-2.8,-0.27,-132.3529746835443,-17.456518987341774,79.88373417721519
507,1715411613990,-2.73,-2.8,-0.27,-137.7,-25.39,131.04
508,1715411614000,-2.73,-2.8,-0.27,-137.7,-25.39,131.04
509,1715411614010,-2.3728571428571428,-2.6374999999999997,-0.17714285714285719,-149.33928571428572,-23.079285714285714,189.08999999999997
510,1715411614020,-0.73,-1.89,0.25,-202.88,-12.45,456.12
511,1715411614030,-0.73,-1.8900000000000001,0.25,-202.88,-12.45,456.12
512,1715411614040,-0.73,-1.89,0.25,-202.88,-12.45,456.12
513,1715411614050,-0.13280487804878044,-1.8864024390243903,0.2607926829268293,-220.6879268292683,-21.738902439024393,514.0227439024391
514,1715411614060,0.9300000000000002,-1.88,0.28,-252.37999999999997,-38.27,617.07
515,1715411614070,0.9299999999999999,-1.88,0.28,-252.38,-38.27,617.07
516,1715411614080,0.93,-1.8800000000000001,0.28,-252.38,-38.27,617.07
517,1715411614090,1.7033333333333331,-2.313333333333333,0.2066666666666667,-145.11063829787233,-108.53085106382979,705.3593617021277
518,1715411614100,2.09,-2.53,0.17,-58.470000000000006,-165.28,776.67
519,1715411614110,2.09,-2.53,0.17,-58.47,-165.28,776.6699999999998
520,1715411614120,2.290762711864407,-2.5046610169491523,0.07059322033898305,-43.8343220338983,-165.45694915254236,781.5910169491525
521,1715411614130,3.1199999999999997,-2.3999999999999995,-0.34,133.42,-167.59999999999997,841.19
522,1715411614140,3.12,-2.4,-0.34,133.42,-167.6,841.19
523,1715411614150,3.12,-2.4,-0.34,133.42,-167.59999999999997,841.1900000000002
524,1715411614160,3.12,-2.4,-0.34,133.42,-167.6,841.19
525,1715411614170,2.501845238095238,-1.8095238095238095,-0.08166666666666667,83.10511904761904,-67.15779761904761,728.9967857142858
526,1715411614180,2.45,-1.76,-0.06,71.72,-44.43,703.61
527,1715411614190,2.45,-1.76,-0.05999999999999999,71.72,-44.43,703.61
528,1715411614200,2.45,-1.7599999999999998,-0.06,71.72,-44.43,703.61
529,1715411614210,2.020063694267516,-1.7504458598726114,-0.27974522292993625,75.50343949044587,-32.77394904458598,653.1163694267516
530,1715411614220,2.0,-1.75,-0.29,75.68,-32.23,650.76
531,1715411614230,2.0,-1.75,-0.29,75.68,-32.23,650.76
532,1715411614240,2.0,-1.75,-0.29,75.68,-32.23,650.76
533,1715411614250,1.891523178807947,-1.3109271523178807,-0.5327814569536424,50.6476821192053,-42.380331125827816,581.8720529801324
534,1715411614260,1.79,-0.9,-0.76,27.22,-51.88,517.4
535,1715411614270,1.79,-0.9000000000000001,-0.76,27.22,-51.88,517.4
536,1715411614280,2.273896103896104,-1.1120779220779222,-0.44038961038961044,-3.6342207792207812,-38.71896103896104,533.1996753246754
537,1715411614290,3.41,-1.61,0.31,-78.37,-6.84,571.47
538,1715411614300,3.4099999999999997,-1.61,0.31,-78.37,-6.84,571.47
539,1715411614310,3.4099999999999997,-1.61,0.31,-78.37,-6.84,571.47
540,1715411614320,3.6263190184049083,-1.564723926380368,-0.5401840490797546,-91.18901840490797,2.6765644171779144,495.3804294478528
541,1715411614330,3.84,-1.52,-1.38,-108.22,15.319999999999999,394.29
542,1715411614340,3.84,-1.52,-1.38,-108.22,15.32,394.28999999999996
543,1715411614350,3.84,-1.52,-1.38,-108.22,15.32,394.29
544,1715411614360,3.8399999999999994,-1.52,-1.38,-108.22,15.319999999999999,394.29
545,1715411614370,3.84,-1.52,-1.38,-108.22,15.32,394.29
546,1715411614380,3.84,-1.52,-1.38,-108.22,15.320000000000002,394.29
547,1715411614390,3.84,-1.52,-1.38,-108.22,15.32,394.29
548,1715411614400,3.84,-1.5200000000000002,-1.38,-108.21999999999998,15.32,394.29
549,1715411614410,3.8838317757009344,-1.538785046728972,-0.6285981308411214,-68.82336448598132,172.41691588785048,57.855794392523364
550,1715411614420,3.91,-1.55,-0.18,-44.31,271.55,-146.3
551,1715411614430,3.2636,-1.2172,-0.5448,-23.175600000000003,328.31096,-192.22736
552,1715411614440,2.9,-1.03,-0.75,-8.61,367.43,-223.88
553,1715411614450,2.9,-1.03,-0.75,-8.61,367.43,-223.88
554,1715411614460,2.9,-1.03,-0.75,-8.61,367.43,-223.87999999999997
555,1715411614470,2.9,-1.03,-0.75,-8.61,367.43,-223.88
556,1715411614480,2.9,-1.03,-0.75,-8.61,367.43,-223.88
557,1715411614490,2.9,-1.03,-0.75,-8.61,367.43,-223.88
558,1715411614500,2.9,-1.03,-0.75,-8.61,367.43,-223.87999999999997
559,1715411614510,2.9,-1.03,-0.75,-8.61,367.43,-223.88
560,1715411614520,2.9,-1.03,-0.75,-8.61,367.43,-223.88
561,1715411614530,2.1791044776119404,-0.5261940298507463,-0.023432835820895514,85.79462686567165,146.83253731343285,-391.3881343283582
562,1715411614540,1.96,-0.37,0.2,114.93,79.35,-442.57
563,1715411614550,1.9599999999999997,-0.37,0.2,114.93,79.35,-442.57000000000005
564,1715411614560,1.995772357723577,-0.39682926829268295,0.24113821138211383,114.93,79.35,-442.57
565,1715411614570,2.16,-0.52,0.43,114.93,79.35,-442.57
566,1715411614580,2.0185714285714287,-0.7452380952380951,0.3357142857142857,153.1577777777778,134.70555555555555,-509.0746031746031
567,1715411614590,1.89,-0.95,0.25,190.97999999999996,160.95,-549.8
568,1715411614600,1.89,-0.95,0.25,190.98,160.95,-549.8
569,1715411614610,2.058859649122807,-0.9315789473684211,0.3482456140350877,184.66701754385963,160.82456140350877,-554.3249122807017
570,1715411614620,2.44,-0.8900000000000001,0.57,135.62,159.85,-589.48
571,1715411614630,2.44,-0.8899999999999999,0.57,135.62,159.85,-589.48
572,1715411614640,2.44,-0.89,0.57,135.62,159.85,-589.48
573,1715411614650,2.4254838709677418,-0.9770967741935483,0.5438709677419354,135.62,159.85,-589.48
574,1715411614660,2.39,-1.19,0.48,178.72823529411764,169.3505882352941,-597.6798039215687
575,1715411614670,2.39,-1.19,0.48,206.54,175.48,-602.97
576,1715411614680,2.39,-1.19,0.48,206.54,175.48,-602.97
577,1715411614690,2.448676470588236,-1.199264705882353,0.5386764705882353,211.39970588235295,150.49110294117648,-617.4134558823529
578,1715411614700,2.58,-1.22,0.67,222.66,92.59,-650.88
579,1715411614710,2.58,-1.22,0.67,222.66,92.59,-650.88
580,1715411614720,2.5799999999999996,-1.22,0.67,222.66,92.59,-650.88
581,1715411614730,1.8431612903225807,-1.3200645161290323,0.24245161290322584,232.76322580645163,73.57909677419354,-679.9660645161291
582,1715411614740,1.77,-1.33,0.2,240.66,58.72,-702.7
583,1715411614750,1.7699999999999998,-1.33,0.19999999999999998,240.66,58.72,-702.7
584,1715411614760,1.7699999999999998,-1.33,0.2,240.66,58.72,-702.7
585,1715411614770,-0.23496969696969694,-1.9028484848484846,-0.22121212121212122,236.80472727272726,4.9566060606060605,-609.7676363636364
586,1715411614780,-0.61,-2.01,-0.3,235.53,-12.82,-579.04
587,1715411614790,-0.61,-2.01,-0.3,235.53,-12.82,-579.04
588,1715411614800,-0.8278125,-2.0641875,-0.391375,235.53000000000003,-12.819999999999999,-579.04
589,1715411614810,-2.66,-2.52,-1.16,-28.87,32.78,-204.9
590,1715411614820,-2.66,-2.52,-1.16,-28.870000000000005,32.78,-204.9
591,1715411614830,-2.66,-2.52,-1.16,-28.87,32.78,-204.9
592,1715411614840,-2.6477333333333335,-2.4816666666666665,-1.1216666666666666,-37.266666666666666,20.049333333333333,-156.192
593,1715411614850,-2.58,-2.27,-0.91,-86.12,-54.02,127.2
594,1715411614860,-2.58,-2.27,-0.91,-86.12,-54.02,127.2
595,1715411614870,-2.58,-2.27,-0.9100000000000001,-86.12,-54.02,127.2
596,1715411614880,-2.049161676646707,-2.1379640718562873,-0.6647904191616767,-94.57862275449102,-56.59526946107784,177.07826347305388
597,1715411614890,-0.61,-1.78,-134.83,-68.85,414.43
598,1715411614900,-0.61,-1.78,-134.83,-68.85,414.43
599,1715411614910,-0.61,-1.7800000000000002,-134.83,-68.85,414.43000000000006
600,1715411614920,0.12901639344262295,-1.798360655737705,0.1836065573770492,-134.83,-68.85,414.43
601,1715411614930,1.0,-1.8200000000000003,0.4,-209.7762068965517,-10.384896551724138,628.7108275862068
602,1715411614940,1.0,-1.82,0.4000000000000001,-219.73000000000002,-2.62,657.17
603,1715411614950,1.3787735849056604,-1.9393396226415094,0.31698113207547174,-218.9358490566038,-13.165283018867925,704.6064150943396
604,1715411614960,1.73,-2.05,0.24000000000000002,-217.9,-26.92,766.48
605,1715411614970,1.73,-2.05,0.23999999999999996,-217.9,-26.919999999999998,766.48
606,1715411614980,1.73,-2.05,0.24000000000000002,-217.9,-26.92,766.48
607,1715411614990,1.913253012048193,-2.169819277108434,0.021506024096385537,-167.4222891566265,-89.86096385542169,763.9812048192771
608,1715411615000,1.99,-2.22,-0.07,-119.32000000000001,-149.84,761.6000000000001
609,1715411615010,1.99,-2.22,-0.07,-119.32,-149.84,761.6
610,1715411615020,1.99,-2.22,-0.07,-119.32,-149.84,761.6
611,1715411615030,1.92875,-1.9925,0.008749999999999999,-24.29411458333333,-217.36635416666664,677.8503125
612,1715411615040,1.92,-1.9600000000000002,0.02,-3.11,-232.42,659.18
613,1715411615050,1.92,-1.9600000000000002,0.02,-3.11,-232.41999999999996,659.18
614,1715411615060,1.7457142857142858,-1.6695238095238096,-0.004897959183673469,57.69326530612245,-206.41183673469388,608.6844897959185
615,1715411615070,1.71,-1.61,-0.01,79.65,-197.02,590.45
616,1715411615080,1.71,-1.61,-0.01,79.65,-197.02,590.45
617,1715411615090,1.7918518518518516,-1.534567901234568,0.006049382716049382,81.25864197530865,-192.45024691358026,586.3623456790124
618,1715411615100,2.22,-1.14,0.09,105.71,-122.99,524.23
619,1715411615110,2.22,-1.14,0.09,105.70999999999998,-122.99,524.23
620,1715411615120,2.22,-1.14,0.09,105.71,-122.99,524.23
621,1715411615130,2.22,-1.14,0.09,105.71,-122.99,524.23
622,1715411615140,3.036029411764706,-0.7539215686274509,-0.20833333333333334,-46.38735294117647,6.135686274509807,547.8509803921568
623,1715411615150,3.15,-0.7,-0.25,-67.63,24.17,551.15
624,1715411615160,3.15,-0.7,-0.25,-67.63,24.17,551.15
625,1715411615170,3.973333333333333,-0.7625925925925926,-0.033333333333333326,-171.49893004115225,144.34090534979424,474.8282716049382
626,1715411615180,4.86,-0.8299999999999998,0.2,-312.68,307.68,371.0899999999999
627,1715411615190,4.86,-0.83,0.2,-312.68,307.68,371.09
628,1715411615200,4.86,-0.83,0.2,-312.68,307.68,371.0899999999999
629,1715411615210,4.86,-0.83,0.2,-312.68,307.68,371.09
630,1715411615220,4.86,-0.83,0.2,-312.68,307.68,371.09
631,1715411615230,5.011384615384615,-0.5745384615384617,0.569,5.568307692307691,-188.8993846153846,-67.159
632,1715411615240,5.02,-0.56,0.59,23.68,-217.16,-92.1
633,1715411615250,4.640592105263158,-0.9653947368421053,0.6731578947368421,5.9838815789473685,-28.36388157894736,-144.55177631578945
634,1715411615260,4.29,-1.34,0.75,-21.91,269.23,-227.23
635,1715411615270,4.29,-1.34,0.75,-21.91,269.23,-227.23
636,1715411615280,4.29,-1.34,0.75,-21.91,269.23,-227.23
637,1715411615290,4.29,-1.34,0.75,-21.91,269.23,-227.23
638,1715411615300,4.29,-1.34,0.75,-21.91,269.23,-227.23
639,1715411615310,3.4471317829457364,-0.9989922480620156,0.016511627906976738,8.407519379844963,300.24883720930234,-237.56317829457362
640,1715411615320,2.98,-0.8100000000000002,-0.39,25.21,317.44,-243.29
641,1715411615330,2.98,-0.81,-0.39,25.21,317.44,-243.29
642,1715411615340,2.3124770642201833,-0.643119266055046,0.31678899082568807,119.87064220183485,104.2645871559633,-386.4834862385321
643,1715411615350,2.3,-0.64,0.33,121.64,100.28,-389.16
644,1715411615360,2.0008421052631578,-0.5368421052631579,0.38673684210526316,133.9681052631579,103.03463157894736,-399.2835789473684
645,1715411615370,1.72,-0.44,0.44,151.67,106.99,-413.82
646,1715411615380,1.72,-0.44,0.44,151.67,106.99,-413.82
647,1715411615390,1.72,-0.44,0.44,151.67,106.99,-413.82
648,1715411615400,1.6923809523809523,-0.44,0.4261904761904762,156.05285714285714,112.88952380952381,-456.06380952380954
649,1715411615410,1.68,-0.44,0.42,158.75,116.52,-482.06
650,1715411615420,1.68,-0.44,0.42,158.75,116.52,-482.06
651,1715411615430,1.68,-0.44,0.42,158.75,116.52,-482.06
652,1715411615440,1.845,-0.695,0.5925,166.97684210526316,151.9740789473684,-510.1963157894738
653,1715411615450,1.9,-0.78,0.65,171.51,171.51,-525.7
654,1715411615460,1.9,-0.78,0.65,171.51,171.51,-525.7
655,1715411615470,1.9,-1.0075916230366493,0.40554973821989526,189.1016230366492,229.07544502617802,-528.330890052356
656,1715411615480,1.9,-1.05,0.36,193.91,244.81,-529.05
657,1715411615490,1.9,-1.05,0.36,193.91,244.81000000000003,-529.05
658,1715411615500,1.9776785714285714,-1.1859374999999999,0.4648660714285714,209.85656250000002,245.90312500000002,-547.7465625
659,1715411615510,2.1,-1.4,0.63,240.3,247.99,-583.44
660,1715411615520,2.1,-1.4,0.63,240.3,247.99,-583.44
661,1715411615530,2.1,-1.4,0.63,240.3,247.99,-583.44
662,1715411615540,2.1057731958762886,-1.4028865979381442,0.6135051546391752,240.3,247.99000000000004,-583.44
663,1715411615550,2.24,-1.47,0.23,111.15907142857144,385.55035714285714,-538.0465714285715
664,1715411615560,2.24,-1.47,0.23,110.23,386.54,-537.72
665,1715411615570,2.24,-1.47,0.23000000000000004,110.23000000000002,386.54,-537.72
666,1715411615580,1.8050000000000002,-1.71,0.020000000000000014,142.0847368421053,396.1378947368421,-527.9536842105263
667,1715411615590,0.79,-2.27,-0.47,261.54,432.12999999999994,-491.33
668,1715411615600,0.79,-2.27,-0.47,261.54,432.13,-491.33
669,1715411615610,0.7899999999999999,-2.27,-0.47,261.54,432.13,-491.33
670,1715411615620,-0.14604519774011293,-2.1540677966101693,-1.5219774011299434,260.1479096045198,395.67169491525425,-376.61451977401134
671,1715411615630,-1.39,-2.0,-2.92,257.69,331.3,-174.07
672,1715411615640,-1.39,-2.0,-2.92,257.69,331.3,-174.07
673,1715411615650,-1.39,-2.0,-2.92,257.69,331.3,-174.07
674,1715411615660,-1.5626027397260274,-1.7657534246575344,-3.0778082191780824,197.61191780821918,234.62027397260272,-128.36479452054795
675,1715411615670,-2.09,-1.05,-3.56,14.04,-60.79,11.29
676,1715411615680,-2.09,-1.05,-3.56,14.04,-60.79,11.29
677,1715411615690,-2.09,-1.05,-3.56,14.04,-60.79,11.29
678,1715411615700,-1.50843537414966,-1.202448979591837,-2.679183673469388,-119.06326530612247,-185.75482993197278,91.29782312925171
679,1715411615710,-1.06,-1.32,-2.0,-261.54,-319.52,176.94
680,1715411615720,-1.06,-1.32,-2.0,-261.54,-319.52,176.94
681,1715411615730,-1.06,-1.32,-2.0,-261.54,-319.52,176.94
682,1715411615740,0.24995575221238936,-1.9200442477876103,-0.48721238938053096,-372.1531858407079,-402.3624778761062,310.8199115044248
683,1715411615750,0.49,-2.03,-0.21,-405.21000000000004,-427.12000000000006,350.83
684,1715411615760,0.49,-2.03,-0.20999999999999996,-405.21,-427.11999999999995,350.83
685,1715411615770,0.49,-2.03,-0.21,-405.21,-427.12,350.83
686,1715411615780,1.6356521739130434,-2.5980124223602488,0.5505590062111801,-386.52950310559004,-412.2673291925465,547.6367080745342
687,1715411615790,1.68,-2.62,0.58,-384.03,-410.28,573.97
688,1715411615800,1.68,-2.62,0.58,-384.03000000000003,-410.28000000000003,573.97
689,1715411615810,1.7847321428571428,-2.6533928571428573,0.5147321428571429,-359.9646428571428,-420.9782142857143,595.5507142857143
690,1715411615820,2.37,-2.84,0.15,-159.42,-510.13,775.3899999999999
691,1715411615830,2.37,-2.8400000000000003,0.15,-159.42,-510.12999999999994,775.39
692,1715411615840,2.37,-2.84,0.15,-159.42,-510.13000000000005,775.39
693,1715411615850,2.674615384615384,-2.609230769230769,0.08538461538461538,-77.3276923076923,-527.0332820512821,785.5920512820513
694,1715411615860,3.03,-2.34,0.01,116.58,-566.96,809.6900000000002
695,1715411615870,3.03,-2.34,0.01,116.58,-566.96,809.69
696,1715411615880,3.03,-2.34,0.01,116.58,-566.96,809.69
697,1715411615890,2.622272727272727,-1.8632727272727274,-0.027636363636363636,163.2486818181818,-406.65990909090914,729.0239545454547
698,1715411615900,2.38,-1.58,-0.05,196.17,-293.58,672.12
699,1715411615910,2.38,-1.58,-0.05,196.17,-293.58,672.12
700,1715411615920,2.38,-1.58,-0.05,196.17,-293.58,672.12
701,1715411615930,2.28875,-1.3381875,-0.03175,183.99374999999998,-185.93625,604.14
702,1715411615940,2.18,-1.05,-0.01,163.69999999999996,-6.529999999999999,490.84
703,1715411615950,2.18,-1.05,-0.01,163.7,-6.53,490.84
704,1715411615960,2.18,-1.05,-0.01,163.69999999999996,-6.53,490.84
705,1715411615970,2.516734693877551,-1.0091836734693878,-0.17836734693877554,-36.720408163265304,202.28632653061226,535.9828571428571
706,1715411615980,2.84,-0.97,-0.34,-327.33,505.07000000000005,601.44
707,1715411615990,2.84,-0.9699999999999999,-0.34,-327.33,505.07,601.44
708,1715411616000,2.84,-0.97,-0.34,-327.33,505.06999999999994,601.44
709,1715411616010,3.215,-1.5616666666666665,-0.865,-127.83158730158729,-174.1325396825397,323.0006349206349
710,1715411616020,3.29,-1.68,-0.97,-85.63,-317.81,264.1
711,1715411616030,3.29,-1.68,-0.97,-85.63,-317.81,264.1
712,1715411616040,3.29,-1.68,-0.97,-85.63,-317.81,264.1
713,1715411616050,4.675882352941176,-0.5858823529411764,1.236470588235294,-62.20088235294117,-313.4102205882353,160.77338235294118
714,1715411616060,4.81,-0.4799999999999999,1.45,-25.51,-306.52,-1.04
715,1715411616070,4.81,-0.48,1.45,-25.51,-306.52,-1.04
716,1715411616080,4.81,-0.48,1.45,-25.51,-306.52,-1.04
717,1715411616090,4.658941176470588,-0.6564705882352941,1.325764705882353,-31.62123529411765,-225.19741176470586,-29.587058823529414
718,1715411616100,3.7399999999999998,-1.73,0.57,-70.68,294.56,-212.04
719,1715411616110,3.7400000000000007,-1.73,0.57,-70.68,294.56,-212.04
720,1715411616120,3.613846153846154,-1.806923076923077,0.1638461538461538,-70.68,294.56,-212.04
721,1715411616130,3.33,-1.98,-0.75,7.0741935483870915,319.4696774193548,-288.481935483871
722,1715411616140,3.33,-1.9800000000000002,-0.75,63.23,337.46,-343.69
723,1715411616150,3.3300000000000005,-1.98,-0.75,63.23,337.46,-343.69
724,1715411616160,3.3300000000000005,-1.98,-0.75,63.22999999999999,337.46,-343.69
725,1715411616170,3.2710185185185185,-1.9462962962962962,-0.7273148148148147,62.43138888888888,332.9994444444444,-346.0872222222222
726,1715411616180,2.42,-1.46,-0.4,34.48,176.88,-429.99
727,1715411616190,2.42,-1.46,-0.4,34.48,176.88,-429.99
728,1715411616200,2.3860986547085203,-1.445560538116592,-0.3704932735426009,37.255470852017936,171.40775784753365,-429.9725112107623
729,1715411616210,1.88,-1.23,0.07,82.09,83.01,-429.69
730,1715411616220,1.88,-1.23,0.07,82.09,83.01,-429.69
731,1715411616230,1.88,-1.23,0.07,82.09,83.01,-429.69
732,1715411616240,1.7433333333333332,-0.875909090909091,0.1756060606060606,119.03666666666666,53.95545454545454,-445.4433333333333
733,1715411616250,1.66,-0.66,0.23999999999999996,153.81,26.61,-460.2699999999999
734,1715411616260,1.66,-0.66,0.24,153.81,26.61,-460.27
735,1715411616270,1.66,-0.66,0.24,153.81,26.61,-460.27
736,1715411616280,1.826829268292683,-0.8004878048780488,0.46829268292682924,151.5509756097561,34.96463414634146,-500.6158536585366
737,1715411616290,1.85,-0.8199999999999998,0.5,149.6,42.18,-535.46
738,1715411616300,1.8499999999999999,-0.82,0.5,149.6,42.18,-535.46
739,1715411616310,1.85,-0.82,0.5,149.6,42.18,-535.46
740,1715411616320,2.269496855345912,-0.8747169811320755,0.6459119496855346,93.8274213836478,123.05345911949685,-538.6559748427673
741,1715411616330,2.31,-0.88,0.66,80.32,142.64,-539.43
742,1715411616340,2.31,-0.88,0.66,80.32,142.64,-539.43
743,1715411616350,2.620204081632653,-1.0146938775510204,0.713061224489796,73.62367346938774,155.6742857142857,-545.732857142857
744,1715411616360,3.07,-1.21,0.79,-1.71,302.31,-616.64
745,1715411616370,3.07,-1.21,0.79,-1.7100000000000002,302.31,-616.64
746,1715411616380,3.07,-1.21,0.79,-1.71,302.31,-616.64
747,1715411616390,3.013946360153257,-1.571800766283525,0.7441379310344828,35.04632183908046,326.53842911877393,-640.2897318007663
748,1715411616400,2.96,-1.92,0.7,79.59,355.9,-668.95
749,1715411616410,2.96,-1.92,0.6999999999999998,79.59,355.8999999999999,-668.9500000000002
750,1715411616420,2.96,-1.92,0.7,79.59,355.9,-668.95
751,1715411616430,1.712626728110599,-2.327557603686636,-0.2015668202764977,225.3851612903226,316.35308755760366,-658.4979723502304
752,1715411616440,0.9400000000000001,-2.58,-0.76,443.24,257.26,-642.88
753,1715411616450,0.94,-2.58,-0.7599999999999999,443.24,257.26,-642.88
754,1715411616460,0.94,-2.58,-0.76,443.24,257.26,-642.88
755,1715411616470,-1.3787577639751554,-2.8831055900621116,-1.828447204968944,435.4447204968944,40.065341614906835,-535.023354037267
756,1715411616480,-2.12,-2.98,-2.17,431.4,-72.63,-479.06
757,1715411616490,-2.12,-2.98,-2.17,431.4,-72.63,-479.06000000000006
758,1715411616500,-2.276508875739645,-2.96094674556213,-2.0366272189349113,431.3999999999999,-72.63,-479.06
759,1715411616510,-3.27,-2.84,-1.19,53.650000000000006,-110.90000000000002,-88.44
760,1715411616520,-3.27,-2.84,-1.19,53.65,-110.9,-88.44
761,1715411616530,-3.27,-2.84,-1.19,53.65,-110.9,-88.43999999999998
762,1715411616540,-3.218051948051948,-2.8185714285714285,-1.1685714285714284,47.728896103896105,-110.84253246753246,-75.63642857142857
763,1715411616550,-1.67,-2.18,-0.53,-128.72,-109.13,305.91
764,1715411616560,-1.67,-2.18,-0.53,-128.72,-109.13,305.91
765,1715411616570,-1.67,-2.18,-0.53,-128.72,-109.13,305.91
766,1715411616580,-1.67,-2.18,-0.53,-128.72,-109.13,305.91
767,1715411616590,-0.024405594405594384,-1.8927972027972029,0.01335664335664336,-171.1716783216783,-103.25398601398601,497.35783216783216
768,1715411616600,0.45,-1.81,0.17,-183.41,-101.56,552.55
769,1715411616610,0.45,-1.81,0.17,-183.41,-101.56,552.55
770,1715411616620,0.7410152284263959,-1.9208629441624367,0.19771573604060916,-182.15096446700505,-96.43583756345178,571.0161421319797
771,1715411616630,1.92,-2.37,0.31,-168.82,-42.18,766.54
772,1715411616640,1.92,-2.37,0.31,-168.82,-42.18,766.54
773,1715411616650,1.92,-2.37,0.31,-168.82,-42.18,766.54
774,1715411616660,2.158851674641148,-2.4557416267942584,0.17526315789473684,-156.74727272727273,-51.16909090909091,775.0345454545454
775,1715411616670,2.7,-2.65,-0.13,-89.97,-100.89,822.0200000000001
776,1715411616680,2.7,-2.65,-0.13,-89.97,-100.88999999999999,822.02
777,1715411616690,2.7,-2.65,-0.13,-89.97,-100.89,822.02
778,1715411616700,2.7,-2.65,-0.13,-89.97,-100.89,822.02
779,1715411616710,2.4071005917159765,-2.3038461538461537,-0.07674556213017752,20.07840236686391,-247.36846153846153,712.729822485207
780,1715411616720,2.37,-2.26,-0.07,34.85,-267.03,698.06
781,1715411616730,2.37,-2.26,-0.07,34.85,-267.03,698.06
782,1715411616740,2.3959883720930235,-2.1820348837209305,-0.00936046511627907,125.90697674418605,-286.4693023255814,650.846976744186
783,1715411616750,2.4,-2.17,153.5,-292.36,636.54
784,1715411616760,2.4,-2.17,153.5,-292.36,636.54
785,1715411616770,2.6335955056179774,-1.9151685393258426,-0.00943820224719101,154.52191011235956,-291.06314606741574,635.6285393258427
786,1715411616780,3.39,-1.09,-0.04,244.45,-176.94,555.42
787,1715411616790,3.39,-1.09,-0.04,244.45,-176.94,555.42
788,1715411616800,3.39,-1.09,-0.04,244.45,-176.94,555.42
789,1715411616810,3.424353312302839,-0.8495268138801262,-0.020914826498422714,100.82854889589905,-9.033880126182963,549.8750157728707
790,1715411616820,3.48,-0.46,0.01,-229.8,377.5,537.11
791,1715411616830,3.48,-0.46,0.01,-229.8,377.5,537.11
792,1715411616840,3.48,-0.46,0.01,-229.8,377.5,537.11
793,1715411616850,3.6078707224334603,-0.39498098859315595,-0.052851711026615976,-239.37353612167303,357.2565019011407,512.1468060836503
794,1715411616860,4.07,-0.16,-0.28,-299.74,229.61,354.74
795,1715411616870,4.07,-0.16,-0.28,-299.74,229.61,354.74
796,1715411616880,4.07,-0.16,-0.28,-299.74,229.61000000000004,354.74
797,1715411616890,4.1476963350785345,-0.25157068062827226,-0.035811518324607355,-254.09052356020942,144.07994764397907,263.37905759162305
798,1715411616900,4.35,-0.48999999999999994,0.6,-64.09,-211.91,-116.88
799,1715411616910,4.35,-0.49,0.6,-64.09,-211.91,-116.88
800,1715411616920,4.35,-0.49,0.6,-64.09,-211.91,-116.88
801,1715411616930,4.34020979020979,-0.6393006993006993,0.7101398601398601,-48.894615384615385,-117.16412587412586,-134.87622377622378
802,1715411616940,4.31,-1.1,1.05,-0.18,186.58,-192.57
803,1715411616950,4.31,-1.1,1.05,-0.18,186.58,-192.57
804,1715411616960,4.31,-1.1,1.05,-0.18,186.58,-192.57
805,1715411616970,3.6566666666666663,-1.0883333333333334,0.005833333333333357,16.480892857142855,208.54303571428574,-200.30499999999998
806,1715411616980,3.19,-1.08,-0.74,71.59,281.19,-225.89000000000001
807,1715411616990,3.19,-1.08,-0.74,71.59,281.19,-225.89
808,1715411617000,3.19,-1.08,-0.74,71.59,281.19,-225.88999999999996
809,1715411617010,2.9779237288135594,-0.9422881355932203,-0.4480508474576271,86.91915254237288,226.5572881355932,-251.07254237288134
810,1715411617020,2.42,-0.58,0.32,153.81,-11.84,-360.9599999999999
811,1715411617030,2.42,-0.58,0.32,153.81,-11.84,-360.96
812,1715411617040,2.4104850746268656,-0.5736567164179104,0.33649253731343287,153.81,-11.84,-360.96
813,1715411617050,2.27,-0.48,0.58,76.01717948717949,170.79384615384612,-378.68358974358966
814,1715411617060,2.27,-0.48,0.58,73.97,175.6,-379.15
815,1715411617070,2.27,-0.48,0.58,73.97,175.6,-379.15
816,1715411617080,2.27,-0.48,0.58,73.97,175.6,-379.15
817,1715411617090,2.1076086956521736,-0.4709782608695652,0.25521739130434784,159.34233695652173,150.5795108695652,-465.62826086956517
818,1715411617100,2.09,-0.47,0.22,176.64,145.51,-483.15
819,1715411617110,2.09,-0.47,0.22,176.64,145.51,-483.15
820,1715411617120,2.222727272727272,-0.5263636363636364,0.2909090909090909,177.9338961038961,136.92785714285714,-504.7447402597403
821,1715411617130,2.8199999999999994,-0.78,0.61,184.02000000000004,96.56,-606.32
822,1715411617140,2.82,-0.78,0.61,184.02,96.56,-606.32
823,1715411617150,2.82,-0.78,0.61,184.02,96.56,-606.32
824,1715411617160,2.896285714285714,-1.0851428571428572,0.4828571428571428,183.02057142857143,137.64971428571428,-647.2588571428572
825,1715411617170,2.94,-1.26,0.41,182.43,161.93,-671.45
826,1715411617180,2.94,-1.26,0.41,182.43,161.93,-671.45
827,1715411617190,2.958715596330275,-1.3062385321100918,0.4127522935779816,182.42999999999998,161.92999999999998,-671.45
828,1715411617200,3.28,-2.1,0.45999999999999996,173.21378048780485,213.17731707317074,-713.9552439024391
829,1715411617210,3.2799999999999994,-2.1,0.4600000000000001,173.1,213.81,-714.48
830,1715411617220,3.28,-2.1,0.46,173.1,213.81,-714.48
831,1715411617230,2.91905604719764,-2.2736873156342186,0.2374631268436578,194.98433628318585,192.10368731563423,-709.0974041297935
832,1715411617240,1.95,-2.74,-0.36,277.59,110.17,-688.78
833,1715411617250,1.95,-2.74,-0.36,277.59,110.17,-688.78
834,1715411617260,1.9499999999999997,-2.74,-0.36,277.59,110.17,-688.78
835,1715411617270,1.95,-2.74,-0.36,277.59,110.17,-688.78
836,1715411617280,-0.8415887850467288,-3.336261682242991,-0.8659190031152649,366.7728660436137,-41.17439252336448,-610.3661370716511
837,1715411617290,-1.14,-3.3999999999999995,-0.92,399.41,-96.56,-581.67
838,1715411617300,-1.14,-3.4,-0.92,399.41,-96.56,-581.67
839,1715411617310,-1.14,-3.4,-0.9199999999999999,399.41,-96.56,-581.67
840,1715411617320,-2.483787878787879,-2.6204545454545456,-0.25181818181818183,288.6221212121212,-257.20848484848483,-324.2093939393939
841,1715411617330,-2.95,-2.35,-0.02,216.61,-361.63,-156.86
842,1715411617340,-2.95,-2.35,-0.02,216.61,-361.63,-156.86
843,1715411617350,-2.7255172413793107,-2.152241379310345,0.3087068965517242,122.08939655172415,-275.71991379310344,-57.11750000000001
844,1715411617360,-2.11,-1.61,1.21,-137.08,-40.16,216.37
845,1715411617370,-2.11,-1.61,1.21,-137.08,-40.16,216.37
846,1715411617380,-2.11,-1.61,1.21,-137.08,-40.16,216.37
847,1715411617390,-1.4133793103448276,-1.61,0.7430344827586206,-95.29862068965518,29.283310344827587,373.1749655172414
848,1715411617400,-1.2,-1.61,0.6,-72.63,66.96,458.25
849,1715411617410,-1.2,-1.61,0.6,-72.63,66.96,458.25
850,1715411617420,-1.2,-1.61,0.6,-72.63,66.96,458.25
851,1715411617430,-0.15238095238095234,-1.7936734693877552,0.40272108843537413,2.959897959183676,35.13836734693877,550.4429591836735
852,1715411617440,0.34,-1.8799999999999997,0.31,67.14,8.12,628.72
853,1715411617450,0.34,-1.8799999999999997,0.31,67.14,8.12,628.72
854,1715411617460,0.6883279742765273,-2.0463987138263664,0.2678456591639871,77.60945337620579,5.803279742765272,645.7746623794212
855,1715411617470,1.91,-2.63,0.12,132.26,-6.29,734.8
856,1715411617480,1.9100000000000001,-2.63,0.12,132.26,-6.29,734.8
857,1715411617490,1.91,-2.63,0.11999999999999998,132.26,-6.29,734.8
858,1715411617500,1.9100000000000001,-2.63,0.11999999999999998,132.26,-6.29,734.8
859,1715411617510,2.678728323699422,-2.696127167630058,0.06213872832369942,113.69479768786128,25.095606936416186,786.4122543352602
860,1715411617520,2.84,-2.71,0.05,109.8,31.680000000000003,797.2399999999999
861,1715411617530,2.84,-2.71,0.05,109.8,31.68,797.24
862,1715411617540,2.879867549668874,-2.630264900662252,0.018675496688741723,110.02476821192052,32.140794701986756,796.7743046357616
863,1715411617550,2.98,-2.43,-0.05999999999999999,126.77,66.47,762.0799999999999
864,1715411617560,2.9799999999999995,-2.43,-0.060000000000000005,126.77,66.47,762.08
865,1715411617570,2.98,-2.43,-0.06,126.76999999999998,66.47,762.08
866,1715411617580,2.8886633663366337,-2.191633663366337,-0.1156930693069307,126.77000000000001,66.47,762.08
867,1715411617590,2.57,-1.36,-0.31,119.1257627118644,62.454350282485876,743.8429378531074
868,1715411617600,2.57,-1.36,-0.31,47.18,24.66,572.2
869,1715411617610,2.57,-1.36,-0.31,47.18,24.66,572.2
870,1715411617620,2.575224489795918,-1.3423673469387756,-0.27277551020408164,37.2469387755102,35.37020408163266,570.6261224489797
871,1715411617630,2.65,-1.09,0.26,-104.92,188.66,548.1
872,1715411617640,2.6499999999999995,-1.09,0.26,-104.92,188.66,548.1
873,1715411617650,2.65,-1.09,0.26,-104.92,188.66,548.1
874,1715411617660,2.616985645933014,-0.6443062200956937,-0.1086602870813397,-75.95636363636363,137.80354066985646,496.84736842105264
875,1715411617670,2.59,-0.28,-0.41,-37.66,70.56,429.08
876,1715411617680,2.59,-0.28,-0.41,-37.66,70.56,429.08
877,1715411617690,2.59,-0.28,-0.41,-37.66,70.56,429.08
878,1715411617700,2.70030303030303,-0.27212121212121215,0.07848484848484848,-141.52521212121212,116.57115151515153,364.657696969697
879,1715411617710,2.73,-0.27,0.20999999999999996,-223.94000000000003,153.08,313.54
880,1715411617720,2.73,-0.27,0.21,-223.94000000000003,153.08,313.54
881,1715411617730,2.7299999999999995,-0.27,0.21,-223.94,153.08,313.54
882,1715411617740,2.861958762886598,-0.7071134020618557,-0.06216494845360824,-97.25474226804123,-72.26103092783505,124.50329896907216
883,1715411617750,2.89,-0.8,-0.12,-40.53,-173.16,39.86
884,1715411617760,2.89,-0.8,-0.12,-40.53,-173.16,39.86
885,1715411617770,3.24,-0.6759090909090909,0.1090909090909091,-25.784545454545455,-135.73272727272726,13.003181818181817
886,1715411617780,3.9899999999999998,-0.4099999999999999,0.6,24.35,-8.48,-78.31
887,1715411617790,3.99,-0.41000000000000003,0.6,24.35,-8.48,-78.31
888,1715411617800,3.99,-0.41,0.6,24.35,-8.48,-78.31
889,1715411617810,3.9538536585365858,-0.6782439024390243,0.3888292682926829,23.573414634146342,8.412097560975608,-95.77341463414633
890,1715411617820,3.8,-1.82,-0.51,14.400000000000002,207.95,-302.06
891,1715411617830,3.8,-1.82,-0.51,14.4,207.95,-302.06
892,1715411617840,3.8,-1.82,-0.51,14.4,207.95,-302.06
893,1715411617850,3.3178181818181813,-1.6809090909090907,-0.3338181818181818,17.319999999999997,131.5787272727273,-353.58472727272726
894,1715411617860,3.2799999999999994,-1.67,-0.32,17.7,121.64000000000001,-360.29
895,1715411617870,3.28,-1.67,-0.32,17.7,121.64,-360.29
896,1715411617880,3.28,-1.67,-0.32,17.7,121.63999999999999,-360.29
897,1715411617890,2.594181818181818,-0.7555757575757576,-0.02181818181818182,39.3579393939394,108.90763636363636,-433.7520606060606
898,1715411617900,2.59,-0.75,-0.02,39.49,108.83,-434.2
899,1715411617910,2.59,-0.75,-0.02,39.49,108.83,-434.2
900,1715411617920,2.59,-0.75,-0.02,39.49,108.83,-434.2
901,1715411617930,2.5140000000000002,-0.7100000000000001,0.068,65.394,111.146,-457.296
902,1715411617940,2.4,-0.65,0.19999999999999998,104.25,114.62,-491.94
903,1715411617950,2.4,-0.65,0.2,104.25,114.62000000000002,-491.94
904,1715411617960,2.3951724137931034,-0.65,0.22896551724137934,104.8390909090909,124.82921630094044,-505.48570532915363
905,1715411617970,2.38,-0.65,0.32,107.73,174.93,-571.96
906,1715411617980,2.38,-0.65,0.32,107.72999999999999,174.93,-571.96
907,1715411617990,2.38,-0.65,0.32,107.73,174.93,-571.96
908,1715411618000,2.4170447761194027,-0.7676716417910449,0.32,112.09298507462687,179.4505970149254,-581.4224477611941
909,1715411618010,2.55,-1.19,0.32,138.18,206.48,-638.0
910,1715411618020,2.55,-1.19,0.32,138.18,206.48,-638.0
911,1715411618030,2.55,-1.19,0.32,138.18,206.48000000000002,-638.0
912,1715411618040,2.5299703264094955,-1.2821364985163204,0.34804154302670626,151.9479525222552,196.06100890207713,-647.4038575667656
913,1715411618050,2.5,-1.42,0.39,180.36,174.56,-666.81
914,1715411618060,2.5,-1.42,0.39,180.36,174.56,-666.81
915,1715411618070,2.5,-1.42,0.38999999999999996,180.36,174.56,-666.81
916,1715411618080,2.5,-1.42,0.39,180.36,174.56,-666.81
917,1715411618090,2.5,-1.42,0.39,180.36,174.56,-666.81
918,1715411618100,2.5,-1.42,0.39,180.36,174.56,-666.81
919,1715411618110,2.4941379310344827,-1.5079310344827586,0.42224137931034483,182.20195402298853,181.3473563218391,-663.6864367816092
920,1715411618120,1.9415822784810126,-1.78873417721519,0.2479746835443038,220.3294936708861,134.57999999999998,-653.9045569620253
921,1715411618130,1.54,-1.84,0.06,253.05,72.57,-651.92
922,1715411618140,1.54,-1.84,0.05999999999999999,253.05,72.57,-651.92
923,1715411618150,1.54,-1.8399999999999999,0.06,253.05,72.57,-651.92
924,1715411618160,0.05945945945945946,-2.183963963963964,-0.28396396396396395,221.9868768768769,94.07054054054053,-525.6993393393393
925,1715411618170,-0.44000000000000006,-2.3,-0.4,207.28000000000003,104.25,-465.93999999999994
926,1715411618180,-0.44,-2.3,-0.39999999999999997,207.28,104.25,-465.94
927,1715411618190,-0.43999999999999995,-2.3,-0.4,207.27999999999997,104.25,-465.94000000000005
928,1715411618200,-0.44,-2.3,-0.39999999999999997,207.28,104.25,-465.94
929,1715411618210,-1.9567630057803471,-2.536763005780347,-1.132485549132948,207.28,104.25,-465.94
930,1715411618220,-2.49,-2.62,-1.39,207.27999999999997,104.25,-465.94000000000005
931,1715411618230,-2.49,-2.62,-1.39,207.28,104.25,-465.94
932,1715411618240,-2.49,-2.62,-1.39,158.92478527607364,-27.33,-254.5620245398773
933,1715411618250,-2.4546464646464647,-2.5104040404040404,-1.1814141414141415,93.0330303030303,-67.87868686868687,-84.94090909090909
934,1715411618260,-2.39,-2.31,-0.8,-4.15,-78.61,123.34999999999998
935,1715411618270,-1.6105228758169936,-2.0540522875816998,-0.4858823529411765,-62.96764705882352,-61.89431372549019,258.9994117647059
936,1715411618280,-1.05,-1.8699999999999999,-0.26,-140.5,-39.86,437.81
937,1715411618290,-1.05,-1.87,-0.26,-140.5,-39.86,437.81
938,1715411618300,-1.05,-1.87,-0.26,-140.5,-39.86,437.81
939,1715411618310,-0.09494845360824745,-1.9491752577319588,-0.04721649484536083,-157.89701030927836,-40.784742268041235,495.9881443298969
940,1715411618320,0.88,-2.03,0.17,-213.87,-43.76,683.17
941,1715411618330,0.88,-2.03,0.17,-213.87000000000003,-43.76,683.17
942,1715411618340,0.8800000000000001,-2.03,0.17,-213.87,-43.76,683.17
943,1715411618350,0.88,-2.03,0.17,-213.87000000000003,-43.76,683.17
944,1715411618360,,,,,,
945,1715411618370,1.8719999999999999,-2.4859999999999998,0.162,-193.558,-114.904,789.858
946,1715411618380,2.3081818181818186,-2.6081818181818184,0.10272727272727272,-168.43801652892563,-150.41561983471075,816.2407438016528
947,1715411618390,2.81,-2.63,-0.05,-15.259999999999998,-285.89,814.03
948,1715411618400,2.81,-2.63,-0.05,-15.259999999999998,-285.89,814.03
949,1715411618410,2.81,-2.63,-0.05,-15.26,-285.89,814.03
950,1715411618420,2.7305610561056106,-2.4464686468646866,0.05957095709570956,-5.018745874587459,-269.716798679868,787.2267656765677
951,1715411618430,2.52,-1.96,0.35,34.79,-206.85,683.04
952,1715411618440,2.52,-1.9600000000000002,0.35,34.79,-206.84999999999997,683.04
953,1715411618450,2.52,-1.96,0.35,34.79,-206.85000000000002,683.04
954,1715411618460,2.52,-1.9600000000000002,0.35,34.79,-206.85,683.04
955,1715411618470,2.52,-1.96,0.35,34.79,-206.85,683.04
956,1715411618480,2.52,-1.96,0.35,34.79,-206.85,683.04
957,1715411618490,2.3594642857142856,-1.9289285714285715,0.054821428571428556,71.71880952380953,-156.82666666666665,647.2373809523809
958,1715411618500,2.5357142857142856,-1.1285714285714286,-0.18,111.688,-61.8062,570.4296285714286
959,1715411618510,2.78,-0.55,-0.15,116.03,-18.62,531.49
960,1715411618520,2.78,-0.55,-0.15,116.03,-18.62,531.49
961,1715411618530,2.78,-0.55,-0.15,116.03,-18.62,531.49
962,1715411618540,2.8166666666666664,-0.5950000000000001,-0.15583333333333332,109.19222222222223,-13.294444444444444,530.0591666666667
963,1715411618550,3.22,-1.09,-0.22,-130.13,173.1,479.97999999999996
964,1715411618560,3.22,-1.09,-0.21999999999999997,-130.13,173.1,479.98
965,1715411618570,3.22,-1.09,-0.22,-130.13,173.1,479.97999999999996
966,1715411618580,3.429403973509934,-0.36721854304635765,-0.24026490066225167,-153.43960264900662,166.18576158940397,326.96079470198674
967,1715411618590,3.53,-0.02,-0.25,-167.18,162.11,236.76000000000002
968,1715411618600,3.5299999999999994,-0.02,-0.25,-167.18,162.11,236.76
969,1715411618610,3.53,-0.02,-0.25,-167.18,162.11,236.76
970,1715411618620,3.9437931034482765,-0.7731034482758621,-0.018275862068965518,-52.158369905956114,-127.78278996865204,50.080689655172414
971,1715411618630,4.03,-0.93,0.029999999999999995,3.4799999999999995,-268.01,-40.22
972,1715411618640,4.03,-0.9299999999999999,0.029999999999999995,3.48,-268.01,-40.22
973,1715411618650,4.03,-0.9300000000000002,0.03,3.48,-268.01,-40.22
974,1715411618660,4.061511254019293,-1.0087781350482317,0.5578135048231511,8.21877813504823,53.98369774919614,-183.54450160771705
975,1715411618670,4.07,-1.03,0.7,9.52,142.4,-222.9
976,1715411618680,4.07,-1.03,0.7,9.52,142.4,-222.9
977,1715411618690,4.07,-1.03,0.7,9.52,142.4,-222.90000000000003
978,1715411618700,3.173914373088685,-1.3352599388379207,-0.9740061162079511,38.76311926605505,281.868623853211,-239.2948623853211
979,1715411618710,3.16,-1.34,-1.0,40.77,291.44,-240.41999999999996
980,1715411618720,3.16,-1.34,-1.0,40.77,291.44,-240.42
981,1715411618730,2.9878260869565216,-1.2575,-0.8529347826086956,39.262880434782616,278.3446195652174,-245.64141304347825
982,1715411618740,2.2,-0.8800000000000001,-0.18,15.56,72.39,-327.76
983,1715411618750,2.2,-0.8799999999999999,-0.18,15.56,72.39,-327.76
984,1715411618760,2.2,-0.88,-0.18,15.56,72.39,-327.76
985,1715411618770,2.1564024390243905,-0.7412804878048781,-0.041280487804878044,23.50280487804878,70.68634146341464,-333.40890243902436
986,1715411618780,2.09,-0.53,0.17,74.77,59.68999999999999,-369.87
987,1715411618790,2.09,-0.53,0.17,74.77,59.690000000000005,-369.87
988,1715411618800,2.09,-0.53,0.17,74.77,59.69,-369.87
989,1715411618810,1.9866666666666666,-0.5185185185185185,0.21592592592592594,75.31975308641975,76.1104938271605,-394.5412962962963
990,1715411618820,1.91,-0.51,0.25,75.99,96.13,-424.62
991,1715411618830,1.91,-0.51,0.25,75.99,96.13,-424.62
992,1715411618840,1.9100000000000001,-0.51,0.25,75.99,96.12999999999998,-424.61999999999995
993,1715411618850,1.9508284023668638,-0.5984615384615385,0.3180473372781065,97.69414201183433,107.07082840236687,-477.20579881656806
994,1715411618860,1.97,-0.64,0.35,112.67,114.62,-513.49
995,1715411618870,1.97,-0.64,0.35,112.67,114.62,-513.49
996,1715411618880,1.97,-0.64,0.35,112.67,114.62000000000002,-513.49
997,1715411618890,2.2222950819672134,-0.965327868852459,0.4429508196721311,114.72868852459015,119.79081967213115,-541.9398360655738
998,1715411618900,2.35,-1.13,0.49,118.65,129.64,-596.13
999,1715411618910,2.35,-1.13,0.49,118.65,129.64,-596.13
1000,1715411618920,2.3581012658227847,-1.131518987341772,0.4910126582278481,118.65,129.64,-596.13
1001,1715411618930,2.67,-1.19,0.53,174.4581920903955,127.15858757062146,-648.4189265536722
1002,1715411618940,2.67,-1.19,0.53,177.8,127.01,-651.55
1003,1715411618950,2.67,-1.19,0.53,177.8,127.01,-651.55
1004,1715411618960,2.6235802469135803,-1.2915432098765431,0.5241975308641975,178.03432098765433,118.56641975308644,-665.2048148148148
1005,1715411618970,2.51,-1.54,0.51,179.26,74.4,-736.63
1006,1715411618980,2.51,-1.5400000000000003,0.51,179.26,74.4,-736.63
1007,1715411618990,2.51,-1.54,0.51,179.26,74.4,-736.63
1008,1715411619000,2.0475182481751824,-1.9735766423357664,0.3727007299270073,186.63401459854015,98.6521897810219,-738.7938686131387
1009,1715411619010,1.87,-2.14,0.32,192.38,117.55000000000001,-740.48
1010,1715411619020,1.87,-2.14,0.32,192.38,117.55,-740.48
1011,1715411619030,1.87,-2.14,0.32,192.38,117.54999999999998,-740.48
1012,1715411619040,-1.7306944444444443,-3.4447222222222225,-0.46791666666666665,239.41833333333332,126.01444444444445,-600.3038888888889
1013,1715411619050,-2.38,-3.6799999999999997,-0.61,257.51,129.27,-546.39
1014,1715411619060,-2.38,-3.68,-0.61,257.51,129.27,-546.39
1015,1715411619070,-2.4326027397260273,-3.574794520547946,-0.6768493150684931,257.51,129.27,-546.39
1016,1715411619080,-2.86,-2.72,-1.22,38.17375,40.5625,-155.99124999999998
1017,1715411619090,-2.86,-2.72,-1.22,6.84,27.89,-100.22
1018,1715411619100,-2.86,-2.72,-1.22,6.839999999999999,27.890000000000004,-100.22
1019,1715411619110,-2.86,-2.72,-1.22,6.840000000000001,27.889999999999997,-100.22
1020,1715411619120,-2.2250632911392407,-2.431392405063291,-0.9458227848101266,-122.57518987341774,25.881561181434602,158.69645569620255
1021,1715411619130,-1.9800000000000002,-2.32,-0.84,-173.58,25.09,260.74
1022,1715411619140,-1.98,-2.32,-0.84,-173.58,25.09,260.74
1023,1715411619150,-1.98,-2.32,-0.84,-173.58,25.09,260.74
1024,1715411619160,-0.5581818181818182,-2.145123966942149,-0.22413223140495867,-242.9601652892562,-35.569173553719004,456.16016528925616
1025,1715411619170,-0.11,-2.09,-0.029999999999999995,-264.83,-54.68999999999999,517.76
1026,1715411619180,-0.11,-2.09,-0.03,-264.83,-54.69,517.76
1027,1715411619190,0.5760182370820668,-2.2717021276595744,0.13686930091185412,-282.17711246200605,-72.65863221884499,586.967537993921
1028,1715411619200,1.74,-2.58,0.42,-324.28,-116.27,754.94
1029,1715411619210,1.74,-2.58,0.42,-324.28,-116.27,754.94
1030,1715411619220,1.7400000000000002,-2.58,0.42,-324.28,-116.27,754.94
1031,1715411619230,2.2115915915915916,-2.8293993993993993,0.2612912912912913,-289.6072972972973,-170.58207207207207,814.5266666666666
1032,1715411619240,2.78,-3.13,0.07,-230.40999999999997,-263.31,916.26
1033,1715411619250,2.78,-3.1299999999999994,0.07,-230.41,-263.31,916.2599999999999
1034,1715411619260,2.78,-3.13,0.07,-230.41,-263.31,916.26
1035,1715411619270,2.9530674846625766,-2.7894478527607363,-0.14214723926380368,-81.09383435582822,-325.8918404907975,872.1541104294478
1036,1715411619280,3.09,-2.52,-0.31,57.62,-384.03,831.1800000000001
1037,1715411619290,3.09,-2.52,-0.31,57.61999999999999,-384.03,831.18
1038,1715411619300,3.09,-2.52,-0.31,57.62,-384.03,831.18
1039,1715411619310,2.801587982832618,-2.102832618025751,-0.07824034334763948,99.50412017167382,-303.2188412017167,722.6778540772532
1040,1715411619320,2.53,-1.71,0.14,155.21,-195.74,578.37
1041,1715411619330,2.53,-1.7099999999999997,0.14,155.21,-195.74,578.37
1042,1715411619340,2.53,-1.71,0.14,155.21,-195.73999999999998,578.37
1043,1715411619350,2.920239520958084,-1.9648502994011976,0.18778443113772456,111.44458083832335,-42.55769461077845,588.2314071856288
1044,1715411619360,3.0200000000000005,-2.03,0.2,89.66,33.69,593.14
1045,1715411619370,3.02,-2.03,0.2,89.66,33.69,593.14
1046,1715411619380,3.02,-2.03,0.2,89.66,33.69,593.14
1047,1715411619390,2.207460815047022,-0.4771473354231974,-0.8653291536050157,-85.71896551724139,193.4637931034483,583.5958620689655
1048,1715411619400,2.12,-0.31,-0.98,-152.53,254.33,579.96
1049,1715411619410,2.12,-0.31,-0.9800000000000001,-152.53,254.33,579.96
1050,1715411619420,2.12,-0.31,-0.9800000000000001,-152.53,254.32999999999998,579.96
1051,1715411619430,3.5206042296072506,-1.6276737160120847,-0.04012084592145015,-33.15190332326284,-81.71561933534743,366.5109063444109
1052,1715411619440,3.6399999999999997,-1.74,0.04,-3.42,-165.41,313.35
1053,1715411619450,3.6400000000000006,-1.74,0.04,-3.42,-165.41,313.35
1054,1715411619460,3.6399999999999997,-1.7400000000000002,0.04,-3.4200000000000004,-165.41,313.35
1055,1715411619470,3.5934636871508383,-0.8225698324022347,-0.1860335195530726,-48.86,-56.885,244.995
1056,1715411619480,3.57,-0.36,-0.3,-94.3,51.64,176.64
1057,1715411619490,3.5700000000000003,-0.36,-0.3,-94.3,51.64,176.64
1058,1715411619500,3.5889090909090906,-0.5561818181818181,-0.15345454545454543,-86.716,41.931999999999995,139.69854545454544
1059,1715411619510,3.65,-1.19,0.32,-24.78,-37.35,-161.99
1060,1715411619520,3.65,-1.19,0.32,-24.78,-37.35,-161.99
1061,1715411619530,3.65,-1.19,0.32,-24.78,-37.35,-161.99
1062,1715411619540,3.5380952380952384,-1.327482993197279,0.1729251700680272,-22.852040816326532,-17.421428571428574,-166.06326530612247
1063,1715411619550,3.3000000000000003,-1.6199999999999999,-0.14,6.71,288.15,-228.52000000000004
1064,1715411619560,3.3,-1.62,-0.14,6.71,288.15,-228.52
1065,1715411619570,3.3,-1.62,-0.14,6.709999999999999,288.15,-228.52
1066,1715411619580,2.851818181818182,-1.3089090909090908,-0.4616363636363636,-2.162424242424243,272.0659393939394,-243.2640606060606
1067,1715411619590,2.45,-1.03,-0.75,-15.14,248.54,-264.83
1068,1715411619600,2.45,-1.03,-0.75,-15.14,248.54,-264.83
1069,1715411619610,2.45,-1.03,-0.75,-15.14,248.53999999999996,-264.83
1070,1715411619620,2.111458333333333,-0.8607291666666667,-0.30078125,18.164062499999996,135.861875,-318.82093749999996
1071,1715411619630,1.9299999999999997,-0.77,-0.06,47.55,36.44,-366.46
1072,1715411619640,1.93,-0.77,-0.05999999999999999,47.55,36.44,-366.46
1073,1715411619650,1.93,-0.77,-0.06,47.55,36.44,-366.46
1074,1715411619660,1.9078343949044585,-0.3784076433121019,0.09515923566878981,32.70254777070064,67.42407643312102,-398.73324840764326
1075,1715411619670,1.9000000000000001,-0.24000000000000002,0.15,27.28,78.74,-410.52
1076,1715411619680,1.8999999999999997,-0.24000000000000002,0.15,27.279999999999998,78.74,-410.52
1077,1715411619690,1.8941258741258742,-0.2772027972027972,0.1529370629370629,27.28,78.74,-410.52
1078,1715411619700,1.8399999999999999,-0.62,0.18,57.608888888888885,85.62888888888888,-502.5377777777777
1079,1715411619710,1.84,-0.62,0.18,61.4,86.49,-514.04
1080,1715411619720,1.84,-0.62,0.18,61.39999999999999,86.49,-514.04
1081,1715411619730,1.84,-0.62,0.18,61.4,86.49,-514.04
1082,1715411619740,2.121494252873563,-0.8288505747126437,0.30712643678160917,113.282183908046,113.14390804597701,-560.3008620689654
1083,1715411619750,2.15,-0.85,0.32,118.89999999999999,116.03,-565.31
1084,1715411619760,2.15,-0.8499999999999999,0.32,118.9,116.03,-565.31
1085,1715411619770,2.15,-0.85,0.32,118.89999999999999,116.03,-565.31
1086,1715411619780,2.4693865030674846,-1.051717791411043,0.3620245398773006,114.21092024539878,106.76030674846626,-599.9858282208589
1087,1715411619790,2.53,-1.09,0.37,113.28,104.92000000000002,-606.87
1088,1715411619800,2.53,-1.09,0.37,113.28,104.92000000000002,-606.87
1089,1715411619810,2.7021739130434783,-1.1984057971014492,0.3891304347826087,128.91333333333333,97.54971014492754,-637.801884057971
1090,1715411619820,2.8,-1.26,0.4,144.1,90.39000000000001,-667.85
1091,1715411619830,2.8,-1.26,0.4,144.1,90.39,-667.85
1092,1715411619840,2.8,-1.26,0.4,144.1,90.39,-667.85
1093,1715411619850,2.6383636363636365,-1.4139393939393938,0.654,111.83927272727273,89.54254545454546,-703.2659393939394
1094,1715411619860,2.59,-1.46,0.73,76.72,88.62,-741.82
1095,1715411619870,2.59,-1.46,0.73,76.72,88.62,-741.82
1096,1715411619880,2.4548192771084336,-1.5176506024096386,0.6392168674698795,76.72,88.62,-741.82
1097,1715411619890,0.55,-2.33,-0.64,66.76931506849314,267.34657534246577,-690.6112328767123
1098,1715411619900,0.55,-2.33,-0.64,65.37,292.48,-683.41
1099,1715411619910,0.55,-2.33,-0.64,65.37,292.48,-683.41
1100,1715411619920,0.10793721973094175,-2.4134080717488793,-0.6691928251121075,68.09609865470853,281.7631390134529,-675.9428251121076
1101,1715411619930,-2.63,-2.93,-0.85,166.69,-105.83,-405.88
1102,1715411619940,-2.63,-2.93,-0.85,166.69,-105.83,-405.88
1103,1715411619950,-2.63,-2.93,-0.85,166.69,-105.83,-405.88
1104,1715411619960,-2.635889570552147,-2.9286503067484664,-0.8507361963190183,166.69,-105.83,-405.88
1105,1715411619970,-3.11,-2.82,-0.91,36.04085227272728,-68.78170454545455,-116.38710227272728
1106,1715411619980,-3.11,-2.82,-0.91,-33.26,-49.13,37.17
1107,1715411619990,-3.11,-2.82,-0.91,-33.26,-49.13,37.17
1108,1715411620000,-2.8597260273972602,-2.7226027397260273,-0.799041095890411,-43.83214611872146,-47.26132420091325,80.19109589041096
1109,1715411620010,-1.08,-2.03,-0.01,-122.31,-33.39,399.54
1110,1715411620020,-1.08,-2.03,-0.01,-122.31,-33.39,399.54
1111,1715411620030,-1.08,-2.03,-0.01,-122.31,-33.39,399.54
1112,1715411620040,-1.08,-2.03,-0.01,-122.31,-33.39,399.54
1113,1715411620050,0.5881675392670157,-1.9088481675392668,0.25094240837696336,-138.9998952879581,20.62743455497382,610.6796858638743
1114,1715411620060,0.71,-1.9,0.27,-140.32,24.9,627.38
1115,1715411620070,0.71,-1.9,0.27,-140.32,24.9,627.38
1116,1715411620080,0.71,-1.8999999999999997,0.27,-140.32,24.899999999999995,627.38
1117,1715411620090,1.7558947368421054,-2.1517894736842105,0.12473684210526316,-140.02142105263158,-0.7296315789473684,764.4662631578947
1118,1715411620100,1.7899999999999998,-2.16,0.12,-140.01,-1.7100000000000002,769.71
1119,1715411620110,1.79,-2.16,0.12,-140.01,-1.71,769.71
1120,1715411620120,2.0240886699507388,-2.20256157635468,0.04551724137931035,-110.05172413793103,-68.05931034482758,773.7624137931035
1121,1715411620130,2.23,-2.24,-0.02,-73.18,-149.72,778.75
1122,1715411620140,2.23,-2.24,-0.02,-73.18,-149.72,778.75
1123,1715411620150,2.23,-2.24,-0.02,-73.18,-149.72,778.75
1124,1715411620160,2.1431601731601733,-2.0356709956709955,0.0412987012987013,-0.31584415584415576,-180.41857142857143,724.5855844155843
1125,1715411620170,2.06,-1.84,0.1,70.68,-210.33,671.81
1126,1715411620180,2.06,-1.84,0.1,70.68,-210.33,671.81
1127,1715411620190,2.06,-1.84,0.1,70.68,-210.33,671.81
1128,1715411620200,1.64,-1.49,-0.02,237.10574257425742,-196.25079207920794,523.5723762376238
1129,1715411620210,1.64,-1.49,-0.02,238.77,-196.11,522.09
1130,1715411620220,1.6400000000000001,-1.49,-0.02,238.77,-196.11,522.09
1131,1715411620230,2.0425157232704403,-1.1566666666666667,0.11836477987421384,221.7111320754717,-122.81339622641511,491.91339622641516
1132,1715411620240,2.28,-0.96,0.2,206.48000000000002,-57.370000000000005,464.9700000000001
1133,1715411620250,2.28,-0.96,0.2,206.48,-57.37,464.97
1134,1715411620260,2.28,-0.96,0.2,206.48,-57.37,464.97
1135,1715411620270,2.9223529411764706,-0.9188235294117648,-0.5823529411764706,-103.43905882352944,321.224,542.49
1136,1715411620280,3.06,-0.91,-0.75,-255.68,507.2,580.57
1137,1715411620290,3.0600000000000005,-0.91,-0.75,-255.68,507.2,580.57
1138,1715411620300,3.06,-0.9100000000000001,-0.75,-255.68,507.19999999999993,580.57
1139,1715411620310,4.427413793103447,-1.3006896551724139,-0.5102586206896551,-213.18362068965516,-91.92258620689654,374.35689655172416
1140,1715411620320,4.6,-1.35,-0.48,-207.81999999999996,-167.54,348.33
1141,1715411620330,4.6,-1.35,-0.48,-207.82000000000002,-167.53999999999996,348.3299999999999
1142,1715411620340,4.6,-1.35,-0.4799999999999999,-207.82,-167.54,348.33
1143,1715411620350,4.614624999999999,-1.221625,-0.176125,-214.386625,-145.958375,292.15212499999996
1144,1715411620360,4.69,-0.56,1.39,-248.23,-34.73,2.62
1145,1715411620370,4.69,-0.56,1.39,-248.22999999999996,-34.73,2.62
1146,1715411620380,4.69,-0.56,1.39,-248.23,-34.73,2.62
1147,1715411620390,4.172954545454545,-1.2395454545454545,0.7695454545454545,-39.000795454545454,190.6535227272727,-127.69198863636362
1148,1715411620400,3.9900000000000007,-1.48,0.55,37.23,272.77,-175.17
1149,1715411620410,3.9899999999999998,-1.48,0.55,37.23,272.77,-175.17
1150,1715411620420,3.5916463414634143,-1.3147256097560975,0.0033231707317073465,46.923170731707316,274.5203658536585,-205.1908536585366
1151,1715411620430,3.05,-1.09,-0.74,62.87,277.4,-254.58000000000004
1152,1715411620440,3.05,-1.09,-0.74,62.87,277.4,-254.58
1153,1715411620450,3.05,-1.09,-0.74,62.87,277.4,-254.58000000000004
1154,1715411620460,2.6505988023952094,-0.9858083832335329,-0.44479041916167666,76.97251497005988,175.11688622754488,-292.92107784431136
1155,1715411620470,2.13,-0.85,-0.06,95.58000000000001,40.16,-343.51
1156,1715411620480,2.13,-0.85,-0.06,95.58000000000001,40.16,-343.51
1157,1715411620490,2.13,-0.8500000000000001,-0.06,95.58,40.16,-343.51
1158,1715411620500,2.0596941896024465,-0.4153822629969419,0.13174311926605503,83.88397553516819,54.137981651376144,-350.9323241590214
1159,1715411620510,2.02,-0.17,0.24,66.16,75.32,-362.18
1160,1715411620520,2.02,-0.17,0.24,66.16,75.32,-362.18
1161,1715411620530,2.02,-0.17,0.24,66.16,75.32,-362.18
1162,1715411620540,1.9729051987767583,-0.37183486238532104,0.2601834862385321,82.58813455657493,96.74507645259939,-444.4185321100917
1163,1715411620550,1.95,-0.47,0.27,93.02,110.35,-496.63999999999993
1164,1715411620560,1.95,-0.4699999999999999,0.27,93.02,110.35000000000001,-496.64
1165,1715411620570,1.95,-0.4699999999999999,0.27,93.02,110.35000000000001,-496.64
1166,1715411620580,2.173151515151515,-0.9402121212121213,0.4373636363636363,86.57400000000001,153.67533333333333,-526.9853333333333
1167,1715411620590,2.23,-1.06,0.48000000000000004,84.23,169.43,-538.02
1168,1715411620600,2.23,-1.06,0.4799999999999999,84.23,169.43,-538.02
1169,1715411620610,2.23,-1.06,0.48,84.23,169.43,-538.02
1170,1715411620620,2.2568181818181814,-1.3192424242424243,0.26545454545454544,132.24666666666667,196.84666666666666,-593.62
1171,1715411620630,2.26,-1.35,0.24,141.85,202.33,-604.74
1172,1715411620640,2.26,-1.35,0.24,141.85,202.33,-604.74
1173,1715411620650,2.271176470588235,-1.3533529411764706,0.2634705882352941,141.85,202.32999999999998,-604.74
1174,1715411620660,2.36,-1.38,0.45,234.15341317365272,66.23350299401199,-675.6275149700599
1175,1715411620670,2.36,-1.38,0.45,234.99,65.0,-676.27
1176,1715411620680,2.36,-1.38,0.45,234.99,65.0,-676.27
1177,1715411620690,2.36,-1.38,0.45000000000000007,234.99,65.0,-676.27
1178,1715411620700,2.0448125,-1.5952499999999998,0.33468749999999997,215.949125,85.509625,-703.594625
1179,1715411620710,1.95,-1.66,0.3,202.58000000000004,99.90999999999998,-722.7799999999999
1180,1715411620720,1.95,-1.66,0.3,202.58000000000004,99.90999999999998,-722.7799999999999
1181,1715411620730,1.1801675977653632,-1.7798324022346368,-0.0522346368715084,203.5905027932961,84.5168156424581,-693.8596648044692
1182,1715411620740,-0.17,-1.99,-0.67,207.34,27.4,-586.55
1183,1715411620750,-0.17,-1.99,-0.67,207.34,27.4,-586.55
1184,1715411620760,-0.17,-1.99,-0.67,207.34,27.4,-586.55
1185,1715411620770,-1.2601666666666667,-2.3206666666666664,-0.5718333333333334,160.2688888888889,-8.105555555555556,-488.1883333333333
1186,1715411620780,-2.28,-2.63,-0.48000000000000004,86.3,-63.89999999999999,-333.62
1187,1715411620790,-2.28,-2.63,-0.4799999999999999,86.3,-63.9,-333.62
1188,1715411620800,-2.28,-2.63,-0.48000000000000004,86.3,-63.9,-333.62
1189,1715411620810,-2.952440476190476,-2.4682738095238097,-0.7608928571428573,-0.25392857142857345,-19.173392857142858,-39.58410714285715
1190,1715411620820,-3.07,-2.44,-0.8099999999999999,-31.919999999999998,-2.81,67.99
1191,1715411620830,-3.07,-2.44,-0.81,-31.92,-2.81,67.99
1192,1715411620840,-3.07,-2.44,-0.81,-31.92,-2.81,67.99
