id,timestamp,acc_x,acc_y,acc_z,gyro_x,gyro_y,gyro_z
0,1715411350430,5.769047619047619,-2.669047619047619,5.038095238095238,-5.651428571428572,-246.5492857142857,-105.79357142857143
1,1715411350440,5.25,-2.05,4.6,-99.12,137.39,56.15
2,1715411350450,5.25,-2.05,4.6,-99.12,137.39,56.150000000000006
3,1715411350460,5.25,-2.05,4.6,-99.12,137.39,56.15
4,1715411350470,4.796258992805755,-1.3102877697841726,3.387482014388489,-168.41669064748203,191.50309352517982,121.37604316546764
5,1715411350480,4.06,-0.11,1.42,-352.6,335.33,294.74
6,1715411350490,4.06,-0.11000000000000001,1.42,-352.6,335.33,294.74
7,1715411350500,4.01688,0.05128,1.28,-352.6,335.33,294.74
8,1715411350510,3.29,2.77,-1.08,-400.62950819672136,312.27426229508194,481.80229508196726
9,1715411350520,3.29,2.77,-1.08,-401.43,311.89,484.92
10,1715411350530,3.2900000000000005,2.77,-1.08,-401.43,311.89,484.92
11,1715411350540,3.29,2.77,-1.08,-401.43,311.89,484.92
12,1715411350550,2.6749044585987263,3.4737579617834395,-1.190828025477707,-349.1728025477707,316.01891719745225,470.96840764331216
13,1715411350560,2.18,4.04,-1.28,-179.69,329.40999999999997,425.72
14,1715411350570,2.18,4.04,-1.28,-179.69,329.41,425.71999999999997
15,1715411350580,2.18,4.04,-1.28,-179.69,329.41,425.72
16,1715411350590,1.9503703703703705,4.247407407407407,-1.042962962962963,-227.63913580246913,319.94351851851854,422.5405555555556
17,1715411350600,1.87,4.32,-0.96,-259.77,313.6,420.41
18,1715411350610,1.8700000000000003,4.32,-0.96,-259.77,313.6,420.41
19,1715411350620,1.845438596491228,4.211228070175439,-0.872280701754386,-259.77,313.6,420.41
20,1715411350630,1.73,3.7,-0.46,-417.8194736842105,190.41926315789476,483.7608421052631
21,1715411350640,1.73,3.6999999999999997,-0.46,-440.67,172.61,492.92
22,1715411350650,1.73,3.7,-0.46,-440.67,172.61,492.92
23,1715411350660,1.73,3.7,-0.46,-440.67,172.61,492.92
24,1715411350670,1.8722155688622752,3.018862275449102,-0.16059880239520957,-362.84281437125753,139.9459281437126,464.8364071856287
25,1715411350680,1.9200000000000002,2.79,-0.060000000000000005,-326.66,124.76000000000002,451.78
26,1715411350690,1.92,2.79,-0.06,-326.66,124.76000000000002,451.78
27,1715411350700,1.93139896373057,2.77860103626943,-0.06284974093264249,-278.3899481865285,148.4561658031088,439.99575129533673
28,1715411350710,1.96,2.75,-0.07,-114.93,228.7,400.09
29,1715411350720,1.9599999999999997,2.75,-0.07,-114.93,228.70000000000002,400.09
30,1715411350730,1.96,2.75,-0.07,-114.93000000000002,228.69999999999996,400.09
31,1715411350740,2.0648756218905473,3.3484079601990047,-0.39696517412935317,-131.8302985074627,209.44825870646764,402.70890547263684
32,1715411350750,2.13,3.72,-0.6,-145.26,194.15,404.79
33,1715411350760,2.13,3.7199999999999998,-0.6,-145.26,194.15000000000003,404.79
34,1715411350770,2.13,3.72,-0.6,-145.26,194.15,404.79
35,1715411350780,2.0176439790575915,4.006701570680628,-0.5031413612565445,-285.7980104712042,97.10151832460733,458.04287958115185
36,1715411350790,1.84,4.46,-0.35,-508.0,-56.34,542.24
37,1715411350800,1.8400000000000003,4.46,-0.35,-508.0,-56.34000000000001,542.24
38,1715411350810,1.84,4.46,-0.35,-508.0,-56.34,542.24
39,1715411350820,0.7558469945355191,5.551147540983606,-2.4623497267759564,-257.2573224043716,17.721311475409838,420.39142076502736
40,1715411350830,0.29,6.02,-3.37,-101.93,63.6,344.91
41,1715411350840,0.29,6.02,-3.37,-101.92999999999999,63.6,344.91
42,1715411350850,0.29,6.02,-3.37,-101.93,63.60000000000001,344.91
43,1715411350860,-1.252857142857143,6.38734693877551,-3.6565306122448975,-103.92234693877552,-14.62316326530612,202.34489795918367
44,1715411350870,-1.81,6.5200000000000005,-3.7600000000000002,-104.67999999999999,-44.37,148.13
45,1715411350880,-1.8100000000000003,6.5200000000000005,-3.7600000000000002,-104.67999999999999,-44.37,148.13
46,1715411350890,-1.81,6.52,-3.76,-104.68,-44.37,148.13
47,1715411350900,-1.4511347517730497,6.153333333333333,-3.2919148936170215,21.401063829787233,-79.0831914893617,-89.45595744680851
48,1715411350910,-1.35,6.05,-3.16,74.89,-93.81000000000002,-190.25
49,1715411350920,-1.35,6.05,-3.16,74.89,-93.81,-190.25
50,1715411350930,-1.35,6.05,-3.16,74.89,-93.81,-190.25
51,1715411350940,-0.024539877300613494,5.071472392638037,-1.7188957055214724,70.35300613496933,-133.18662576687115,-267.94411042944785
52,1715411350950,0.14,4.95,-1.54,65.98,-171.14,-342.83
53,1715411350960,0.1903448275862069,4.856896551724138,-1.5048275862068967,65.98,-171.14,-342.83
54,1715411350970,0.87,3.6,-1.03,16.49047619047619,-186.10698412698412,-401.53158730158725
55,1715411350980,0.8700000000000001,3.6,-1.03,-4.88,-192.57,-426.88
56,1715411350990,0.8700000000000001,3.6,-1.03,-4.88,-192.57,-426.88
57,1715411351000,0.9202816901408452,3.5461267605633804,-1.0072535211267606,-4.88,-192.57,-426.88
58,1715411351010,1.29,3.15,-0.84,83.17554140127388,-145.80974522292993,-508.32789808917204
59,1715411351020,1.29,3.15,-0.84,83.74,-145.51,-508.85
60,1715411351030,1.29,3.15,-0.84,83.74,-145.51,-508.85
61,1715411351040,1.3971428571428572,3.1264285714285713,-0.8185714285714285,83.77119047619047,-145.58261904761903,-509.4130952380953
62,1715411351050,1.79,3.04,-0.74,86.36,-151.61,-556.15
63,1715411351060,1.7900000000000003,3.04,-0.74,86.36,-151.61,-556.15
64,1715411351070,1.79,3.04,-0.74,86.35999999999999,-151.61,-556.15
65,1715411351080,1.9305555555555556,2.944166666666667,-0.7144444444444444,115.52916666666667,-132.93361111111113,-564.6830555555556
66,1715411351090,2.01,2.89,-0.7,148.13,-112.06,-574.22
67,1715411351100,2.01,2.89,-0.7,148.13,-112.06,-574.22
68,1715411351110,2.01,2.89,-0.7,148.13,-112.06,-574.22
69,1715411351120,1.920263157894737,2.9675,-0.850921052631579,175.0194736842105,-114.08421052631579,-561.7115789473685
70,1715411351130,1.7900000000000003,3.08,-1.07,233.28,-118.47,-534.61
71,1715411351140,1.7899999999999998,3.08,-1.07,233.27999999999997,-118.46999999999998,-534.61
72,1715411351150,1.79,3.08,-1.07,233.28,-118.47,-534.61
73,1715411351160,1.7306122448979593,3.0470068027210884,-1.0370068027210884,249.52408163265306,-110.63448979591837,-525.2922448979592
74,1715411351170,1.7,3.03,-1.02,262.76,-104.25,-517.7
75,1715411351180,1.6999999999999997,3.03,-1.02,262.76,-104.25,-517.7
76,1715411351190,1.7,3.03,-1.02,262.76,-104.25,-517.7
77,1715411351200,1.3988847583643123,2.795799256505576,-1.7560594795539033,302.30684014869894,-104.48308550185874,-455.05438661710036
78,1715411351210,1.34,2.75,-1.8999999999999997,313.66,-104.55,-437.07
79,1715411351220,1.34,2.75,-1.9,313.66,-104.54999999999998,-437.07
80,1715411351230,1.3400000000000003,2.75,-1.9,313.66,-104.55,-437.07
81,1715411351240,1.52,2.61,-1.4,299.335625,-256.11604166666666,-365.99458333333337
82,1715411351250,1.52,2.61,-1.4,297.67,-273.74,-357.73
83,1715411351260,1.52,2.61,-1.4,297.67,-273.74,-357.73
84,1715411351270,1.5457627118644068,2.5584745762711862,-1.3552542372881355,297.67,-273.74,-357.73
85,1715411351280,1.9,1.85,-0.7400000000000001,266.09030303030306,-282.1871212121212,-312.96722222222223
86,1715411351290,1.9,1.85,-0.74,265.93,-282.23,-312.74
87,1715411351300,1.9,1.85,-0.74,265.93,-282.23,-312.74
88,1715411351310,2.1651785714285716,1.5660714285714288,-0.33375,265.93,-282.23,-312.74
89,1715411351320,4.87,-1.33,3.81,175.24843137254902,-292.7067647058824,-256.298137254902
90,1715411351330,4.87,-1.33,3.81,172.97,-292.97,-254.88
91,1715411351340,4.87,-1.33,3.81,172.97,-292.97,-254.88000000000002
92,1715411351350,4.852171428571428,-1.4548,3.8936571428571427,172.97,-292.97,-254.88
93,1715411351360,4.61,-3.15,5.03,42.40053892215568,-203.8050898203593,-131.80724550898202
94,1715411351370,4.61,-3.15,5.03,-125.73,-88.99000000000001,26.67
95,1715411351380,4.61,-3.15,5.03,-125.73,-88.99,26.67
96,1715411351390,4.327454545454546,-2.852181818181818,4.285454545454545,-150.20030303030302,-40.68575757575757,66.13303030303031
97,1715411351400,3.8700000000000006,-2.37,3.08,-241.09,138.73,212.71
98,1715411351410,3.87,-2.37,3.08,-241.09,138.73,212.71000000000004
99,1715411351420,3.8699999999999997,-2.3699999999999997,3.08,-241.09,138.73,212.71000000000004
100,1715411351430,3.438587570621469,-1.2212994350282487,1.9780790960451977,-243.3844632768362,178.5202824858757,243.29892655367235
101,1715411351440,3.04,-0.16,0.96,-248.9,274.17,316.83
102,1715411351450,3.04,-0.16000000000000003,0.9599999999999999,-248.9,274.17,316.83
103,1715411351460,3.04,-0.16,0.9599999999999999,-248.9,274.17,316.83
104,1715411351470,2.5801869158878503,1.8095327102803738,-0.35813084112149535,-227.04355140186917,309.6780373831776,344.0984112149533
105,1715411351480,2.44,2.41,-0.7599999999999999,-211.18,335.45,363.89
106,1715411351490,2.44,2.41,-0.76,-211.18,335.45,363.89
107,1715411351500,2.4363948497854073,2.4304291845493564,-0.7636051502145923,-211.18,335.45,363.89
108,1715411351510,2.23,3.6,-0.9700000000000001,-141.16071856287425,392.46688622754493,298.32473053892215
109,1715411351520,2.23,3.6,-0.97,-135.25,397.28,292.79
110,1715411351530,2.23,3.6,-0.97,-135.25,397.28,292.79
111,1715411351540,2.23,3.6,-0.97,-135.25,397.28,292.79
112,1715411351550,1.6785365853658536,3.71609756097561,-1.00869918699187,-503.26609756097565,173.42536585365855,414.46430894308946
113,1715411351560,1.6600000000000001,3.72,-1.01,-518.86,163.94,419.62
114,1715411351570,1.6599999999999997,3.72,-1.01,-518.86,163.94,419.62
115,1715411351580,1.66,3.72,-1.01,-518.86,163.94,419.62
116,1715411351590,1.9269767441860464,2.5948837209302327,-0.352093023255814,-572.7718936877076,-74.54900332225914,544.9102325581395
117,1715411351600,1.94,2.54,-0.32,-578.74,-100.95,558.78
118,1715411351610,1.9400000000000002,2.54,-0.32,-578.74,-100.95,558.78
119,1715411351620,1.9648684210526313,2.4930263157894736,-0.277171052631579,-534.1719078947368,-83.46796052631579,548.5058552631579
120,1715411351630,2.12,2.2,-0.01,37.11,140.62,416.80999999999995
121,1715411351640,2.12,2.2,-0.01,37.11,140.62,416.81000000000006
122,1715411351650,2.12,2.2,-0.01,37.11,140.62,416.81
123,1715411351660,1.993204419889503,2.5569060773480663,-0.08044198895027625,44.70270718232044,164.774364640884,412.60856353591157
124,1715411351670,1.8500000000000003,2.96,-0.16,66.35,233.64000000000001,400.63
125,1715411351680,1.85,2.96,-0.16,66.35,233.64,400.63
126,1715411351690,1.85,2.9599999999999995,-0.16,66.35,233.64,400.62999999999994
127,1715411351700,1.96,2.8316666666666666,-0.3188888888888889,-82.84266666666667,136.48083333333332,446.293
128,1715411351710,2.03,2.75,-0.41999999999999993,-222.41,45.59000000000001,489.01
129,1715411351720,2.03,2.75,-0.42,-222.41,45.59,489.01
130,1715411351730,2.03,2.75,-0.42,-222.41,45.59000000000001,489.01
131,1715411351740,1.7274999999999998,3.818404255319149,-0.4071276595744681,-175.89723404255318,33.4368085106383,504.78872340425534
132,1715411351750,1.56,4.41,-0.4,-149.54,26.55,513.73
133,1715411351760,1.56,4.41,-0.4,-149.54,26.55,513.73
134,1715411351770,1.56,4.41,-0.4,-149.54,26.55,513.73
135,1715411351780,1.0205504587155962,5.084311926605505,-0.45779816513761473,-210.65880733944957,42.508623853211006,461.7267889908257
136,1715411351790,1.0,5.11,-0.46,-246.09,51.76,431.58
137,1715411351800,1.0,5.11,-0.46,-246.09000000000003,51.76,431.58
138,1715411351810,1.0,5.11,-0.46,-246.09,51.76,431.58
139,1715411351820,-0.6950000000000001,6.5125,-3.1375,-246.09,51.76,431.58
140,1715411351830,-1.26,6.980000000000001,-4.03,0.7929383886255905,125.51781990521326,218.99611374407584
141,1715411351840,-1.26,6.98,-4.03,28.08,133.67,195.5
142,1715411351850,-1.4875862068965517,6.735344827586207,-4.038534482758621,20.334181034482757,101.64405172413792,142.76375000000002
143,1715411351860,-2.06,6.119999999999999,-4.06,-15.75,-47.55,-102.91
144,1715411351870,-2.06,6.120000000000001,-4.06,-15.75,-47.55,-102.91
145,1715411351880,-2.06,6.12,-4.06,-15.75,-47.55,-102.91
146,1715411351890,-1.61,5.918618784530387,-3.530441988950276,-1.435966850828729,-64.49696132596685,-134.2653591160221
147,1715411351900,-0.25,5.31,-1.93,76.78,-157.1,-305.6
148,1715411351910,-0.25,5.3100000000000005,-1.93,76.78,-157.1,-305.6
149,1715411351920,-0.25,5.31,-1.93,76.78,-157.1,-305.6
150,1715411351930,0.17034482758620692,4.688620689655171,-1.6412413793103449,46.422758620689656,-164.27958620689657,-352.94510344827586
151,1715411351940,0.9,3.61,-1.14,-7.87,-177.12,-437.62
152,1715411351950,0.9,3.61,-1.14,-7.87,-177.12,-437.62
153,1715411351960,0.9,3.6099999999999994,-1.14,-7.869999999999999,-177.12,-437.62000000000006
154,1715411351970,0.9815139442231077,3.475896414342629,-1.019043824701195,31.722111553784856,-151.65083665338645,-462.76836653386454
155,1715411351980,1.21,3.1,-0.68,142.7,-80.26,-533.26
156,1715411351990,1.21,3.1,-0.68,142.7,-80.26,-533.26
157,1715411352000,1.21,3.1,-0.68,142.7,-80.26,-533.26
158,1715411352010,1.5004854368932037,3.000970873786408,-0.7658252427184467,131.4607766990291,-89.12407766990292,-540.0650485436894
159,1715411352020,1.6499999999999997,2.9500000000000006,-0.81,116.39,-101.01,-549.19
160,1715411352030,1.65,2.95,-0.8099999999999999,116.39,-101.01,-549.19
161,1715411352040,1.6716535433070865,2.967716535433071,-0.8346062992125984,117.76692913385827,-100.7007874015748,-549.6370472440946
162,1715411352050,1.87,3.13,-1.06,232.97,-74.83,-587.04
163,1715411352060,1.87,3.13,-1.06,232.97,-74.83,-587.04
164,1715411352070,1.87,3.13,-1.06,232.97,-74.83,-587.04
165,1715411352080,1.87,3.13,-1.06,232.97,-74.83,-587.04
166,1715411352090,1.8555276381909547,3.131809045226131,-1.0780904522613066,236.55195979899494,-81.9161809045226,-581.8050251256282
167,1715411352100,1.7100000000000002,3.15,-1.26,274.9,-157.78,-525.76
168,1715411352110,1.71,3.15,-1.26,274.9,-157.78,-525.76
169,1715411352120,1.7844827586206897,3.039655172413793,-1.243448275862069,273.1333620689655,-161.9794827586207,-521.9828448275862
170,1715411352130,1.98,2.75,-1.2,265.99,-178.96,-506.71
171,1715411352140,1.98,2.75,-1.2,265.99,-178.96,-506.71
172,1715411352150,1.9800000000000002,2.75,-1.2,265.99,-178.96,-506.7099999999999
173,1715411352160,1.8103658536585365,2.5934146341463413,-1.0695121951219513,300.900243902439,-184.94829268292682,-460.7621951219512
174,1715411352170,1.72,2.51,-1.0,331.05,-190.12,-421.08
175,1715411352180,1.72,2.51,-1.0,331.05,-190.12,-421.08
176,1715411352190,1.72,2.51,-1.0,331.05,-190.11999999999998,-421.08000000000004
177,1715411352200,1.72,2.51,-1.0,331.05,-190.12,-421.08
178,1715411352210,1.72,2.51,-1.0,331.05,-190.12,-421.08
179,1715411352220,1.7199999999999998,2.51,-1.0,331.05,-190.12,-421.08
180,1715411352230,1.7015086206896552,2.3649137931034483,-0.901853448275862,329.8437931034483,-206.32129310344828,-400.1306896551724
181,1715411352240,1.59,1.49,-0.31,322.57,-304.02,-273.8
182,1715411352250,1.5899999999999999,1.49,-0.31,322.57,-304.02,-273.8
183,1715411352260,1.59,1.49,-0.31,322.57,-304.02,-273.8
184,1715411352270,1.59,1.4900000000000002,-0.31,322.57,-304.02,-273.8
185,1715411352280,1.59,1.49,-0.31,322.57,-304.02,-273.8
186,1715411352290,1.59,1.49,-0.31,322.57,-304.02,-273.8
187,1715411352300,1.5899999999999999,1.49,-0.31,322.57000000000005,-304.02,-273.8
188,1715411352310,1.59,1.49,-0.31,322.57,-304.02,-273.8
189,1715411352320,1.59,1.49,-0.31,322.57,-304.02,-273.8
190,1715411352330,1.59,1.49,-0.31,322.57,-304.02,-273.8
191,1715411352340,3.0981773399014783,0.36763546798029556,2.8992610837438426,322.57,-304.02,-273.8
192,1715411352350,3.31,0.20999999999999996,3.35,322.57,-304.02,-273.8
193,1715411352360,3.5552272727272727,-0.7419318181818183,3.848068181818182,115.93426136363637,-189.13852272727271,-134.30982954545456
194,1715411352370,3.8599999999999994,-1.8200000000000003,4.15,-188.9,93.87,77.51
195,1715411352380,3.86,-1.82,4.15,-188.9,93.87,77.51
196,1715411352390,3.687008547008547,-1.3536752136752137,3.3113675213675213,-224.64153846153846,165.57871794871795,116.50829059829061
197,1715411352400,3.3999999999999995,-0.58,1.92,-283.94,284.55,181.21
198,1715411352410,3.2565,0.9438333333333333,0.5875,-334.74755555555555,301.82522222222224,236.40577777777779
199,1715411352420,3.19,1.65,-0.03,-377.26,316.28,282.59
200,1715411352430,3.19,1.65,-0.03,-377.26,316.28,282.59
201,1715411352440,3.1900000000000004,1.65,-0.03,-377.26,316.28,282.59
202,1715411352450,2.3372668810289388,3.0570096463022507,-1.110128617363344,-384.2595176848875,317.9459485530547,323.88398713826365
203,1715411352460,1.99,3.63,-1.55,-388.31,318.90999999999997,347.78000000000003
204,1715411352470,1.99,3.63,-1.55,-388.31,318.91,347.78
205,1715411352480,1.99,3.63,-1.55,-388.31,318.91,347.78
206,1715411352490,1.9860869565217392,3.6339751552795025,-1.5475155279503106,-388.6575776397516,317.8697515527951,348.52186335403724
207,1715411352500,1.36,4.27,-1.15,-444.27000000000004,151.43,467.22
208,1715411352510,1.36,4.27,-1.15,-444.27,151.43,467.22
209,1715411352520,1.366,4.169714285714285,-1.0574285714285714,-444.27,151.43,467.22
210,1715411352530,1.43,3.1,-0.07,-251.76999999999998,208.17573863636363,347.48420454545453
211,1715411352540,1.43,3.1,-0.07,-250.67,208.5,346.8
212,1715411352550,1.43,3.1,-0.07,-250.67,208.5,346.8
213,1715411352560,1.4594478527607362,2.952760736196319,-0.10926380368098158,-234.63141104294476,228.36092024539877,342.1161963190184
214,1715411352570,1.49,2.8,-0.15,-206.36,263.37,333.86
215,1715411352580,1.49,2.8,-0.15,-206.36,263.37,333.86
216,1715411352590,1.49,2.8,-0.15,-206.36,263.37,333.86
217,1715411352600,1.512686567164179,2.845373134328358,-0.2917910447761194,-250.6417910447761,228.98432835820896,365.82179104477615
218,1715411352610,1.53,2.8800000000000003,-0.4,-312.32,181.09,410.34
219,1715411352620,1.53,2.88,-0.4,-312.32,181.09,410.34
220,1715411352630,1.53,2.88,-0.4,-312.32,181.09,410.34
221,1715411352640,1.5197435897435898,2.833846153846154,-0.4153846153846154,-326.77241025641024,145.42425641025642,428.1309743589743
222,1715411352650,1.51,2.7900000000000005,-0.43000000000000005,-345.09,100.21999999999998,450.67999999999995
223,1715411352660,1.5100000000000002,2.79,-0.43,-345.09,100.22,450.68
224,1715411352670,1.51,2.7900000000000005,-0.43,-345.09,100.21999999999998,450.68
225,1715411352680,1.4623762376237623,3.1856435643564356,-0.4886138613861386,-364.11564356435645,50.796633663366336,484.9619801980198
226,1715411352690,1.38,3.87,-0.59,-416.26,-84.66,578.92
227,1715411352700,1.38,3.87,-0.59,-416.25999999999993,-84.66,578.92
228,1715411352710,1.38,3.87,-0.59,-416.26,-84.66,578.92
229,1715411352720,1.4044493392070485,4.090044052863436,-1.0300881057268723,-418.82872246696036,-73.35546255506607,549.1055506607929
230,1715411352730,1.43,4.32,-1.49,-428.16,-32.29,440.8
231,1715411352740,1.43,4.32,-1.4900000000000002,-428.16,-32.29,440.8
232,1715411352750,1.43,4.32,-1.49,-428.16,-32.29,440.8
233,1715411352760,0.06506726457399103,6.78914798206278,-1.8734080717488788,-223.00964125560537,-185.63991031390137,410.14511210762333
234,1715411352770,-0.35,7.54,-1.99,-129.15,-255.8,396.12
235,1715411352780,-0.35,7.54,-1.99,-129.15,-255.8,396.12000000000006
236,1715411352790,-0.35,7.540000000000001,-1.9899999999999998,-129.15,-255.8,396.12
237,1715411352800,-1.4672558139534884,7.299023255813953,-2.9904186046511625,-55.87446511627907,-120.05302325581395,79.84093023255814
238,1715411352810,-1.88,7.21,-3.36,-13.31,-41.2,-103.88
239,1715411352820,-1.88,7.21,-3.36,-13.31,-41.2,-103.88
240,1715411352830,-1.8711848341232227,7.202417061611374,-3.3510900473933645,-13.310000000000002,-41.2,-103.88
241,1715411352840,-0.02,5.610000000000001,-1.48,27.925849056603774,-210.84603773584905,-250.82000000000002
242,1715411352850,-0.02,5.610000000000001,-1.48,33.69,-234.56,-271.36
243,1715411352860,-0.02,5.61,-1.4799999999999998,33.69,-234.56000000000003,-271.36
244,1715411352870,0.25053763440860216,5.206845878136201,-1.1033691756272401,23.209677419354836,-221.16752688172042,-298.5381720430108
245,1715411352880,1.0,4.09,-0.06,-21.48,-164.06,-414.43
246,1715411352890,1.0,4.09,-0.06,-21.48,-164.06,-414.42999999999995
247,1715411352900,1.0,4.09,-0.06,-21.48,-164.06,-414.43
248,1715411352910,1.1298181818181818,3.4256363636363636,-0.24327272727272725,16.51781818181818,-111.14290909090909,-463.45181818181817
249,1715411352920,1.17,3.22,-0.3,58.9,-52.12,-518.13
250,1715411352930,1.17,3.22,-0.3,58.9,-52.12,-518.13
251,1715411352940,1.17,3.22,-0.3,58.9,-52.12,-518.13
252,1715411352950,1.5001369863013698,3.1737808219178083,-0.4386575342465754,81.32849315068492,-32.79835616438356,-556.8502191780822
253,1715411352960,1.67,3.15,-0.51,96.8,-19.47,-583.56
254,1715411352970,1.6699999999999997,3.15,-0.51,96.8,-19.47,-583.56
255,1715411352980,1.67,3.1499999999999995,-0.51,96.79999999999998,-19.47,-583.56
256,1715411352990,1.9847422680412372,2.996288659793814,-0.6490721649484535,194.70000000000002,-19.023333333333333,-620.42
257,1715411353000,2.1,2.94,-0.7,243.65,-18.8,-638.85
258,1715411353010,2.1,2.94,-0.6999999999999998,243.65,-18.8,-638.85
259,1715411353020,2.1,2.94,-0.7,243.65,-18.8,-638.85
260,1715411353030,2.1,2.94,-0.7,243.65000000000003,-18.8,-638.85
261,1715411353040,2.1,2.94,-0.7,243.65,-18.8,-638.85
262,1715411353050,2.1,2.94,-0.7,243.65,-18.8,-638.85
263,1715411353060,2.079281767955801,2.9744198895027623,-0.7837016574585635,247.68657458563538,-37.852541436464094,-620.6831491712708
264,1715411353070,1.99,2.99,-1.19,345.6906278026906,-73.74139013452914,-542.3733183856501
265,1715411353080,1.99,2.99,-1.19,346.07,-73.61,-542.3
266,1715411353090,1.9899999999999998,2.99,-1.19,346.07,-73.61,-542.3
267,1715411353100,1.7765248226950354,3.0396453900709224,-1.4729787234042553,371.0987234042553,-86.51780141843972,-514.6946808510638
268,1715411353110,1.56,3.09,-1.76,446.9,-125.61,-431.09
269,1715411353120,1.56,3.09,-1.76,446.9,-125.61,-431.09
270,1715411353130,1.56,3.09,-1.76,446.90000000000003,-125.61,-431.09000000000003
271,1715411353140,1.5599999999999998,3.09,-1.76,446.9,-125.61,-431.09000000000003
272,1715411353150,1.56,3.09,-1.76,446.8999999999999,-125.61,-431.09
273,1715411353160,1.56,3.0899999999999994,-1.76,446.9,-125.61,-431.09000000000003
274,1715411353170,1.56,3.09,-1.7599999999999998,446.8999999999999,-125.61000000000001,-431.09
275,1715411353180,1.56,3.09,-1.76,446.9,-125.61,-431.09
276,1715411353190,1.56,3.09,-1.76,446.9,-125.61,-431.09
277,1715411353200,1.5599999999999998,3.09,-1.76,446.9,-125.61,-431.09
278,1715411353210,1.56,3.09,-1.76,446.9,-125.61,-431.09
279,1715411353220,3.6588855421686746,1.1729216867469878,1.3497590361445784,188.3912951807229,-371.9105120481928,-322.5461746987952
280,1715411353230,4.51,0.57,2.5,121.58,-443.66,-300.29
281,1715411353240,4.51,0.57,2.5,121.58,-443.66,-300.29
282,1715411353250,4.51,0.57,2.5,121.58,-443.66,-300.29
283,1715411353260,4.520851063829786,0.4874468085106382,2.5429787234042553,117.55042553191488,-438.7148936170213,-294.9125531914894
284,1715411353270,5.02,-3.31,4.52,-67.81,-211.23999999999998,-47.54999999999999
285,1715411353280,4.849857954545454,-3.1880113636363636,4.276022727272727,-89.34636363636365,-151.16295454545454,1.5837500000000013
286,1715411353290,4.49,-2.9299999999999997,3.7599999999999993,-150.21,18.62,140.44
287,1715411353300,4.49,-2.93,3.76,-150.21,18.62,140.44
288,1715411353310,4.49,-2.93,3.76,-150.21,18.62,140.44
289,1715411353320,4.19020202020202,-2.1983501683501685,3.064040404040404,-194.69606060606063,63.535959595959596,196.0949494949495
290,1715411353330,3.65,-0.8800000000000001,1.8100000000000003,-307.5,177.43,337.22
291,1715411353340,3.6499999999999995,-0.88,1.81,-307.5,177.43,337.2200000000001
292,1715411353350,3.65,-0.88,1.81,-307.5,177.43,337.22
293,1715411353360,3.4910952380952383,0.005809523809523804,1.0661904761904761,-304.47942857142857,190.00714285714287,351.8611428571429
294,1715411353370,3.18,1.7399999999999998,-0.39,-281.07,287.48,465.33
295,1715411353380,3.18,1.74,-0.39,-281.07,287.48,465.33
296,1715411353390,3.18,1.74,-0.39,-281.07,287.48,465.33
297,1715411353400,2.52,2.86,-0.9750000000000001,-246.71948275862067,289.0601724137931,454.7955172413793
298,1715411353410,1.86,3.9800000000000004,-1.56,-196.29,291.38,439.33
299,1715411353420,1.86,3.98,-1.56,-196.29,291.38,439.33
300,1715411353430,1.86,3.98,-1.56,-196.29,291.38,439.33
301,1715411353440,1.7282553191489363,3.853744680851064,-1.060468085106383,-226.38000000000002,252.4391489361702,441.7823404255319
302,1715411353450,1.62,3.75,-0.65,-279.48,183.71999999999997,446.11
303,1715411353460,1.6200000000000003,3.75,-0.65,-279.48,183.72,446.11
304,1715411353470,1.62,3.75,-0.65,-279.48,183.72,446.11
305,1715411353480,1.8005014749262538,3.4387905604719764,-0.43215339233038347,-280.15297935103246,165.2020353982301,434.65831858407086
306,1715411353490,1.9100000000000001,3.25,-0.3,-280.7,150.15,425.35
307,1715411353500,1.91,3.25,-0.3,-280.7,150.15,425.35
308,1715411353510,1.9100000000000001,3.25,-0.3,-280.7,150.15,425.35
309,1715411353520,1.9175,2.8075,-0.18000000000000002,-230.7866346153846,147.2981730769231,421.5646153846154
310,1715411353530,1.92,2.66,-0.14,-202.64,145.69,419.42999999999995
311,1715411353540,1.92,2.66,-0.14,-202.63999999999996,145.69,419.43
312,1715411353550,1.92,2.66,-0.14,-202.64,145.69,419.43
313,1715411353560,1.793265306122449,2.5248163265306123,-0.27518367346938777,-147.77502040816324,192.2323673469388,399.39146938775514
314,1715411353570,1.7700000000000002,2.5,-0.3,-132.63,205.08,393.86
315,1715411353580,1.77,2.5,-0.3,-132.63,205.08,393.86
316,1715411353590,1.7709000000000001,2.5093,-0.31439999999999996,-132.63,205.08,393.86
317,1715411353600,1.8,2.81,-0.78,-229.23063953488372,99.78046511627907,451.9682558139535
318,1715411353610,1.8000000000000003,2.81,-0.7799999999999999,-238.45999999999998,89.72,457.52
319,1715411353620,1.8,2.81,-0.78,-238.46,89.72,457.52
320,1715411353630,1.7987854251012145,2.8152631578947367,-0.7788663967611336,-238.46,89.72,457.52
321,1715411353640,1.65,3.46,-0.64,-267.3464,-33.9664,513.1808
322,1715411353650,1.65,3.4599999999999995,-0.64,-268.55,-39.12,515.5
323,1715411353660,1.6499999999999997,3.4599999999999995,-0.64,-268.55,-39.12,515.5
324,1715411353670,1.6499999999999997,3.46,-0.6399999999999999,-268.55,-39.12,515.5
325,1715411353680,1.1764900662251654,4.880529801324504,-2.0131788079470194,-152.49271523178808,-108.13880794701986,447.1819867549669
326,1715411353690,1.15,4.96,-2.09,-146.0,-112.0,443.36
327,1715411353700,1.15,4.96,-2.09,-146.0,-112.0,443.36000000000007
328,1715411353710,-0.13037974683544307,5.739746835443038,-2.5108860759493674,-96.4393670886076,-48.996582278481014,351.20607594936706
329,1715411353720,-1.7399999999999998,6.720000000000001,-3.04,-10.99,59.63000000000001,192.32
330,1715411353730,-1.7400000000000002,6.72,-3.04,-10.99,59.629999999999995,192.32
331,1715411353740,-1.74,6.72,-3.04,-10.990000000000002,59.63,192.32
332,1715411353750,-1.7759067357512954,6.468652849740933,-3.029740932642487,-25.12341968911917,-14.56170984455958,106.10497409326425
333,1715411353760,-1.81,6.23,-3.02,-47.36,-131.29,-29.54
334,1715411353770,-1.81,6.2299999999999995,-3.02,-47.35999999999999,-131.29,-29.54
335,1715411353780,-1.8100000000000003,6.23,-3.02,-47.36,-131.29,-29.539999999999996
336,1715411353790,-0.6441880341880343,5.365042735042735,-1.8541880341880341,8.070000000000002,-133.30102564102563,-162.5802564102564
337,1715411353800,-0.26,5.08,-1.47,46.63,-134.7,-255.13000000000002
338,1715411353810,-0.26,5.08,-1.47,46.63,-134.7,-255.13
339,1715411353820,-0.26,5.08,-1.47,46.63,-134.7,-255.13
340,1715411353830,0.05636363636363636,4.447272727272727,-1.2845454545454544,0.4900000000000007,-157.94181818181818,-323.0772727272727
341,1715411353840,0.32,3.92,-1.13,-37.96,-177.30999999999997,-379.7
342,1715411353850,0.32,3.92,-1.13,-37.96,-177.31,-379.7
343,1715411353860,0.32,3.92,-1.13,-37.96,-177.31,-379.7
344,1715411353870,0.808372093023256,3.3404651162790695,-0.9216279069767442,0.5751744186046499,-135.5400581395349,-443.53197674418607
345,1715411353880,1.07,3.0299999999999994,-0.8099999999999999,28.989999999999995,-104.74,-490.6
346,1715411353890,1.07,3.03,-0.81,28.99,-104.74,-490.6
347,1715411353900,1.1237142857142857,3.0094285714285713,-0.8134285714285714,28.99,-104.74,-490.6
348,1715411353910,1.54,2.85,-0.84,75.67695652173913,-67.80492753623189,-567.9217391304348
349,1715411353920,1.54,2.85,-0.84,90.94,-55.73,-593.2
350,1715411353930,1.5913157894736842,2.85,-0.8663157894736842,90.94,-55.73,-593.2
351,1715411353940,1.93,2.85,-1.04,110.88166666666667,-80.74666666666666,-588.3666666666667
352,1715411353950,1.93,2.85,-1.04,114.87000000000002,-85.75,-587.4
353,1715411353960,1.93,2.85,-1.04,114.87,-85.75,-587.4
354,1715411353970,1.9262790697674417,2.8593023255813956,-1.0493023255813954,132.57821705426358,-83.86852713178295,-589.8055038759691
355,1715411353980,1.91,2.9,-1.09,290.59,-67.08,-611.27
356,1715411353990,1.91,2.9,-1.09,290.59,-67.08,-611.27
357,1715411354000,1.91,2.9,-1.09,290.59,-67.08,-611.27
358,1715411354010,1.832962962962963,2.965185185185185,-1.178888888888889,298.11777777777775,-77.24111111111111,-599.4922222222222
359,1715411354020,1.78,3.01,-1.24,331.24,-121.95,-547.67
360,1715411354030,1.78,3.01,-1.24,331.24,-121.94999999999999,-547.67
361,1715411354040,1.6551937984496126,2.978798449612403,-1.5395348837209302,351.33767441860465,-125.17596899224807,-497.1391860465116
362,1715411354050,1.58,2.96,-1.72,367.0,-127.69,-457.76
363,1715411354060,1.58,2.96,-1.72,367.0,-127.69,-457.76
364,1715411354070,1.58,2.96,-1.72,367.0,-127.68999999999998,-457.76
365,1715411354080,1.4494838709677418,2.775741935483871,-1.7276774193548388,326.5987096774194,-215.32729032258067,-388.53406451612904
366,1715411354090,1.41,2.72,-1.73,303.1,-266.3,-348.27
367,1715411354100,1.41,2.72,-1.73,303.1,-266.3,-348.27
368,1715411354110,1.41,2.72,-1.73,303.1,-266.3,-348.27
369,1715411354120,1.669047619047619,2.048095238095238,-0.9366666666666666,281.4533333333334,-281.76,-322.7766666666667
370,1715411354130,1.73,1.89,-0.75,238.16,-312.68,-271.79
371,1715411354140,1.73,1.8899999999999997,-0.75,238.16,-312.68,-271.79
372,1715411354150,1.73,1.89,-0.75,238.16,-312.68,-271.79
373,1715411354160,2.6036,0.2196,1.8995999999999997,178.00320000000002,-421.50079999999997,-237.6812
374,1715411354170,2.64,0.14999999999999997,2.01,169.8,-436.34,-233.03
375,1715411354180,,,,,,
376,1715411354190,4.553461538461539,-2.3692307692307697,3.413846153846154,6.117307692307692,-160.27269230769232,-85.54923076923077
377,1715411354200,4.63,-2.4699999999999998,3.4699999999999998,-0.43,-149.23,-79.65000000000002
378,1715411354210,4.63,-2.47,3.47,-0.42999999999999994,-149.23,-79.65
379,1715411354220,4.63,-2.47,3.47,-0.43,-149.23,-79.65
380,1715411354230,4.335999999999999,-2.3556666666666666,3.780333333333333,-101.99266666666668,-50.33933333333333,-0.4819999999999993
381,1715411354240,4.27,-2.33,3.8500000000000005,-190.86,36.19,68.79
382,1715411354250,4.27,-2.33,3.85,-190.86,36.19,68.79
383,1715411354260,4.27,-2.33,3.85,-190.86,36.19,68.79
384,1715411354270,4.0278431372549015,-1.773464052287582,2.9748366013071896,-217.34627450980395,78.10647058823528,104.0050980392157
385,1715411354280,3.7,-1.02,1.79,-313.66,230.53,232.06000000000003
386,1715411354290,3.7,-1.02,1.79,-313.66,230.53,232.06000000000003
387,1715411354300,3.7,-1.02,1.79,-313.66,230.53,232.06
388,1715411354310,3.4068181818181817,0.5481818181818182,0.3990909090909091,-326.0272727272727,298.5269696969697,306.5918181818182
389,1715411354320,3.2700000000000005,1.28,-0.25,-335.14,348.63,361.51
390,1715411354330,3.27,1.28,-0.25,-335.14,348.63,361.51
391,1715411354340,3.2700000000000005,1.28,-0.25,-335.14,348.63,361.51
392,1715411354350,2.359156626506024,2.997590361445783,-1.3777108433734941,-258.33313253012045,347.4307228915663,395.37819277108434
393,1715411354360,2.22,3.2599999999999993,-1.55,-233.95000000000002,347.05,406.13
394,1715411354370,2.22,3.2599999999999993,-1.55,-233.95,347.05,406.13
395,1715411354380,2.1005714285714285,3.4045714285714284,-1.4578095238095237,-241.758,331.7128571428571,410.95666666666665
396,1715411354390,1.65,3.95,-1.11,-336.43,145.75,469.48
397,1715411354400,1.65,3.9500000000000006,-1.11,-336.43,145.75,469.48
398,1715411354410,1.6500000000000001,3.9499999999999997,-1.11,-336.43,145.75,469.4800000000001
399,1715411354420,1.6256774193548387,3.792838709677419,-0.9790322580645161,-346.0990322580645,127.94380645161291,476.8620645161291
400,1715411354430,1.52,3.11,-0.41,-443.48,-51.39,551.21
401,1715411354440,1.52,3.11,-0.41,-443.48,-51.39,551.21
402,1715411354450,1.52,3.11,-0.41,-443.48,-51.39,551.21
403,1715411354460,1.546315789473684,2.920526315789474,-0.28368421052631576,-415.3125563909774,-42.591654135338345,540.8666917293233
404,1715411354470,1.62,2.39,0.07,-102.91,54.99,426.15
405,1715411354480,1.6199999999999999,2.39,0.07,-102.90999999999998,54.99000000000001,426.15000000000003
406,1715411354490,1.62,2.39,0.07,-102.91,54.99,426.15
407,1715411354500,1.6545588235294117,2.2621323529411765,0.08382352941176471,-105.8835294117647,44.93338235294118,428.93602941176465
408,1715411354510,1.72,2.02,0.10999999999999999,-116.38999999999999,9.4,438.78
409,1715411354520,1.72,2.02,0.11,-116.39,9.4,438.78
410,1715411354530,1.72,2.02,0.11,-116.39,9.4,438.7799999999999
411,1715411354540,2.142238805970149,2.4238805970149255,0.024328358208955226,-115.38589552238805,-50.63,508.99007462686563
412,1715411354550,2.41,2.68,-0.03,-114.43999999999998,-107.18000000000002,575.13
413,1715411354560,2.41,2.68,-0.029999999999999995,-114.44,-107.18,575.13
414,1715411354570,2.41,2.68,-0.03,-114.44000000000001,-107.18,575.13
415,1715411354580,2.6414457831325304,3.4764457831325304,0.8617469879518073,-114.44000000000001,-107.18,575.13
416,1715411354590,2.75,3.85,1.28,-40.51043209876543,-7.844814814814819,556.7479012345678
417,1715411354600,2.75,3.8499999999999996,1.28,9.03,58.72,544.43
418,1715411354610,2.75,3.85,1.28,9.03,58.720000000000006,544.43
419,1715411354620,1.382,5.775333333333333,-1.6164444444444444,-134.674,175.27633333333335,447.1476666666667
420,1715411354630,1.13,6.13,-2.15,-178.41,210.75,417.54
421,1715411354640,1.13,6.13,-2.15,-178.41,210.75,417.54
422,1715411354650,1.13,6.13,-2.15,-178.41,210.75,417.54
423,1715411354660,-1.1043455497382197,7.330837696335077,-1.4609947643979058,-120.16392670157067,-0.9022513089005231,313.3960209424084
424,1715411354670,-1.14,7.35,-1.45,-115.91,-16.36,305.79
425,1715411354680,-1.14,7.35,-1.45,-115.91,-16.36,305.79
426,1715411354690,-1.5231472081218274,7.203502538071065,-1.8444162436548224,-107.33304568527919,8.805888324873099,225.2160913705584
427,1715411354700,-2.16,6.96,-2.5,-75.68,101.68,-72.14
428,1715411354710,-2.16,6.96,-2.5,-75.68,101.68,-72.14
429,1715411354720,-2.16,6.96,-2.5,-75.68,101.68,-72.14
430,1715411354730,-2.16,6.96,-2.5,-75.68,101.68,-72.14
431,1715411354740,-0.762466960352423,5.852863436123348,-2.037180616740088,19.805991189427314,-28.42669603524229,-304.55700440528636
432,1715411354750,-0.62,5.74,-1.99,29.54,-41.69,-328.25
433,1715411354760,-0.62,5.74,-1.99,29.54,-41.69,-328.25
434,1715411354770,0.4640449438202247,4.573146067415731,-1.1016853932584272,44.81131086142322,-25.832921348314606,-436.13464419475656
435,1715411354780,0.8200000000000001,4.19,-0.81,51.7,-18.68,-484.80000000000007
436,1715411354790,0.8200000000000001,4.19,-0.8099999999999999,51.699999999999996,-18.68,-484.8
437,1715411354800,0.82,4.19,-0.8100000000000002,51.7,-18.68,-484.8
438,1715411354810,1.2666942148760332,3.5722314049586776,-0.7814876033057852,75.4892561983471,-40.73305785123967,-511.80289256198347
439,1715411354820,1.29,3.54,-0.78,80.2,-45.1,-517.15
440,1715411354830,1.29,3.54,-0.78,80.2,-45.1,-517.15
441,1715411354840,1.29,3.54,-0.78,80.2,-45.1,-517.15
442,1715411354850,1.4429411764705884,3.4517647058823533,-0.7211764705882353,66.08823529411765,-69.62352941176471,-538.4794117647059
443,1715411354860,1.55,3.39,-0.68,56.209999999999994,-86.79,-553.41
444,1715411354870,1.55,3.39,-0.68,56.21,-86.79,-553.41
445,1715411354880,1.55,3.3900000000000006,-0.68,56.21,-86.79,-553.41
446,1715411354890,2.047872340425532,3.174255319148936,-0.8127659574468085,180.44574468085108,-55.44063829787234,-633.1774468085106
447,1715411354900,2.15,3.1299999999999994,-0.84,205.93000000000004,-49.01,-649.54
448,1715411354910,2.15,3.13,-0.84,205.93,-49.01,-649.54
449,1715411354920,2.1470588235294117,3.1307843137254903,-0.8456862745098038,205.93,-49.01,-649.54
450,1715411354930,2.0,3.17,-1.13,263.3478125,-101.6325,-563.86375
451,1715411354940,2.0,3.17,-1.13,265.2,-103.33,-561.1
452,1715411354950,2.0,3.17,-1.13,265.2,-103.33,-561.1
453,1715411354960,1.940625,3.2208928571428572,-1.1851339285714284,287.0392857142857,-115.255,-550.4178571428572
454,1715411354970,1.8600000000000003,3.29,-1.26,326.35,-136.72,-531.19
455,1715411354980,1.86,3.29,-1.26,326.35,-136.72,-531.19
456,1715411354990,1.86,3.29,-1.26,326.35,-136.72,-531.19
457,1715411355000,1.7858064516129033,3.242516129032258,-1.3846451612903226,322.84567741935484,-141.4123870967742,-514.5851612903226
458,1715411355010,1.61,3.13,-1.68,307.62,-161.8,-442.44
459,1715411355020,1.61,3.13,-1.68,307.62,-161.8,-442.43999999999994
460,1715411355030,1.61,3.13,-1.68,307.62,-161.8,-442.44
461,1715411355040,1.5732432432432433,3.0197297297297294,-1.6524324324324324,305.8446486486487,-205.9861081081081,-407.8392972972973
462,1715411355050,1.53,2.89,-1.62,302.86,-280.27,-349.67
463,1715411355060,1.53,2.89,-1.62,302.86,-280.27,-349.67
464,1715411355070,1.53,2.89,-1.6200000000000003,302.86,-280.27,-349.67
465,1715411355080,1.811060606060606,2.4884848484848487,-0.7125757575757576,278.05545454545455,-257.7154545454546,-349.1313636363637
466,1715411355090,1.88,2.39,-0.49000000000000005,266.48,-247.19,-348.88
467,1715411355100,1.88,2.39,-0.49000000000000005,266.48,-247.18999999999997,-348.88
468,1715411355110,1.893494623655914,2.376021505376344,-0.4731182795698925,266.34741935483873,-247.54048387096773,-348.4494623655914
469,1715411355120,4.39,-0.21,2.65,241.82,-312.38,-268.8
470,1715411355130,4.39,-0.21,2.65,241.82,-312.38,-268.8
471,1715411355140,4.39,-0.21,2.65,241.82,-312.38,-268.8
472,1715411355150,4.415435897435898,-0.48820512820512824,3.025179487179487,222.55435897435896,-297.6714871794872,-250.11528205128207
473,1715411355160,4.55,-1.96,5.01,7.019999999999999,-133.12,-41.08
474,1715411355170,4.55,-1.96,5.01,7.02,-133.12,-41.08
475,1715411355180,4.55,-1.96,5.01,7.02,-133.12,-41.08
476,1715411355190,4.526453488372093,-1.9617441860465117,4.905348837209302,7.019999999999999,-133.12,-41.08
477,1715411355200,4.28,-1.98,3.8099999999999996,-172.6649275362319,-10.47695652173913,98.00608695652174
478,1715411355210,4.28,-1.9799999999999998,3.8099999999999996,-203.12,10.31,121.58000000000001
479,1715411355220,4.28,-1.9800000000000002,3.81,-203.12,10.31,121.58
480,1715411355230,4.204,-1.8688,3.6692,-203.12,10.31,121.58
481,1715411355240,3.33,-0.59,2.05,-175.60125000000002,251.4709375,180.364140625
482,1715411355250,3.3299999999999996,-0.59,2.05,-173.52,269.71,184.81
483,1715411355260,3.33,-0.59,2.05,-173.52,269.71,184.81
484,1715411355270,3.3299999999999996,-0.59,2.05,-173.52,269.71,184.81
485,1715411355280,3.2981249999999998,0.882625,0.7494999999999999,-243.890625,319.761625,238.878625
486,1715411355290,3.28,1.72,0.01,-317.87,372.38,295.72
487,1715411355300,3.28,1.72,0.01,-317.87,372.38,295.72
488,1715411355310,3.115632911392405,2.327151898734177,-0.6776582278481013,-312.71107594936706,397.1348734177215,300.0358860759494
489,1715411355320,2.79,3.5299999999999994,-2.04,-295.84,478.0899999999999,314.15
490,1715411355330,2.79,3.5300000000000002,-2.04,-295.84,478.09000000000003,314.15
491,1715411355340,2.79,3.53,-2.04,-295.84,478.09,314.15
492,1715411355350,2.79,3.53,-2.04,-295.84,478.09,314.15
493,1715411355360,2.79,3.53,-2.04,-295.84,478.09,314.15
494,1715411355370,2.79,3.53,-2.04,-295.84,478.0899999999999,314.15
495,1715411355380,2.79,3.5300000000000002,-2.04,-295.84,478.09000000000003,314.15
496,1715411355390,2.0933783783783784,3.651081081081081,-1.5229054054054054,-369.5158783783784,332.60236486486485,373.45506756756754
497,1715411355400,1.79,3.65,-1.17,-413.88000000000005,251.53,412.96
498,1715411355410,1.79,3.65,-1.17,-413.88,251.52999999999997,412.96
499,1715411355420,1.79,3.6499999999999995,-1.17,-413.88,251.53000000000003,412.96
500,1715411355430,2.0220261437908498,3.353006535947712,-0.6316993464052287,-357.3940522875817,209.42908496732028,456.8870588235294
501,1715411355440,2.04,3.33,-0.59,-345.83,200.80999999999997,465.88000000000005
502,1715411355450,2.04,3.33,-0.59,-345.83,200.81,465.88
503,1715411355460,2.0370394736842106,3.3263815789473683,-0.584078947368421,-343.3382236842105,200.11526315789473,465.9161842105263
504,1715411355470,1.9499999999999997,3.22,-0.41,-270.08,179.69,466.98
505,1715411355480,1.95,3.22,-0.41,-270.08,179.69,466.98
506,1715411355490,1.95,3.22,-0.41,-270.08,179.69,466.97999999999996
507,1715411355500,1.8676470588235294,3.302352941176471,-0.3276470588235294,-270.50450980392156,175.46549019607843,470.66627450980394
508,1715411355510,1.67,3.5,-0.13,-274.41,136.6,504.58000000000004
509,1715411355520,1.67,3.5,-0.13,-274.41,136.6,504.58
510,1715411355530,1.67,3.5,-0.13,-274.41,136.6,504.58
511,1715411355540,1.5642105263157895,3.707171052631579,-0.14763157894736842,-303.90868421052636,102.03842105263158,478.63789473684204
512,1715411355550,1.43,3.9699999999999998,-0.17,-359.01,37.48,430.18
513,1715411355560,1.43,3.97,-0.17,-359.01,37.48,430.18
514,1715411355570,1.43,3.97,-0.17,-359.01,37.48,430.18
515,1715411355580,1.43,3.97,-0.17,-359.01,37.48,430.18
516,1715411355590,0.1472413793103448,4.936344827586207,-1.700758620689655,-282.59179310344825,86.6951724137931,367.3846896551724
517,1715411355600,-0.07,5.1,-1.96,-269.65,95.03,356.75
518,1715411355610,-0.07,5.1,-1.96,-269.65,95.03,356.75
519,1715411355620,-0.6628260869565217,6.285652173913043,-1.9746376811594204,-270.97550724637676,-41.68942028985507,345.92420289855073
520,1715411355630,-0.8800000000000001,6.719999999999999,-1.98,-272.34,-182.43,334.78
521,1715411355640,-0.88,6.72,-1.98,-272.34,-182.43,334.78
522,1715411355650,-0.9612565445026178,6.763560209424083,-2.053717277486911,-268.22157068062825,-179.34947643979058,329.7833507853403
523,1715411355660,-1.85,7.24,-2.86,120.97,111.76000000000002,-142.4
524,1715411355670,-1.8499999999999999,7.239999999999999,-2.86,120.97000000000001,111.76,-142.4
525,1715411355680,-1.8500000000000003,7.24,-2.86,120.97,111.76,-142.4
526,1715411355690,-1.3759615384615385,6.7463461538461535,-2.703076923076923,107.41423076923077,48.657692307692315,-185.60076923076923
527,1715411355700,-0.4,5.73,-2.38,70.62,-122.62,-302.86
528,1715411355710,-0.4,5.73,-2.38,70.62,-122.62,-302.86
529,1715411355720,-0.4,5.73,-2.38,70.62,-122.62,-302.86
530,1715411355730,-0.18260869565217394,5.423478260869565,-2.097391304347826,73.41239130434782,-127.25695652173913,-318.67521739130433
531,1715411355740,0.6,4.32,-1.08,96.31,-165.28,-448.35999999999996
532,1715411355750,0.6,4.32,-1.08,96.31,-165.28,-448.36
533,1715411355760,0.6,4.32,-1.08,96.31,-165.28,-448.36
534,1715411355770,0.8205405405405405,4.037432432432433,-0.8766891891891891,87.49243243243244,-162.96432432432434,-454.9372972972973
535,1715411355780,1.24,3.5,-0.49,60.06,-155.76,-475.4
536,1715411355790,1.24,3.5,-0.48999999999999994,60.059999999999995,-155.76,-475.3999999999999
537,1715411355800,1.24,3.5,-0.49,60.06,-155.76,-475.4
538,1715411355810,1.4288679245283018,3.179496855345912,-0.5014465408805032,79.31811320754717,-117.39779874213836,-512.7038993710692
539,1715411355820,1.57,2.94,-0.51,98.82,-78.55,-550.48
540,1715411355830,1.5700000000000003,2.94,-0.51,98.82,-78.55,-550.48
541,1715411355840,1.57,2.94,-0.51,98.82,-78.55,-550.48
542,1715411355850,1.680229007633588,2.760152671755725,-0.6318320610687023,142.47435114503816,-71.94847328244275,-566.4676335877862
543,1715411355860,1.76,2.63,-0.72,223.14,-59.75,-596.01
544,1715411355870,1.7600000000000002,2.63,-0.72,223.14,-59.75,-596.01
545,1715411355880,1.732027972027972,2.557272727272727,-0.7591608391608392,260.9651748251748,-63.438111888111884,-573.9065034965035
546,1715411355890,1.71,2.5,-0.79,313.29,-68.54,-543.33
547,1715411355900,1.71,2.5,-0.7899999999999999,313.29,-68.54,-543.33
548,1715411355910,1.71,2.5,-0.7900000000000001,313.29,-68.54,-543.33
549,1715411355920,1.5354545454545454,2.9072727272727272,-1.1293939393939392,296.76878787878786,-136.98,-494.0915151515152
550,1715411355930,1.53,2.92,-1.14,294.49,-146.42,-487.30000000000007
551,1715411355940,1.53,2.92,-1.14,294.49,-146.42,-487.3
552,1715411355950,1.5299999999999998,2.92,-1.14,294.49,-146.42,-487.3
553,1715411355960,1.42,2.76,-1.55,348.94,-155.7,-437.25999999999993
554,1715411355970,1.42,2.76,-1.55,348.94,-155.7,-437.26
555,1715411355980,1.42,2.76,-1.55,348.94,-155.7,-437.26
556,1715411355990,1.1965402843601896,2.808578199052133,-1.5985781990521328,288.80137440758295,-205.25568720379147,-369.67350710900473
557,1715411356000,1.19,2.81,-1.6,276.43,-215.45,-355.77
558,1715411356010,1.19,2.81,-1.6,276.43,-215.45,-355.7699999999999
559,1715411356020,1.2294074074074075,2.7612592592592593,-1.5792592592592594,268.8015555555555,-222.9371111111111,-349.7317777777778
560,1715411356030,1.57,2.34,-1.4,190.61,-299.68,-287.84
561,1715411356040,1.57,2.34,-1.4,190.61,-299.68,-287.84
562,1715411356050,1.57,2.34,-1.4,190.61,-299.68,-287.84
563,1715411356060,1.8634453781512605,1.190672268907563,0.010168067226890785,198.9409243697479,-287.94689075630254,-270.86033613445375
564,1715411356070,1.93,0.93,0.33,206.6,-277.16,-255.25
565,1715411356080,1.93,0.9300000000000002,0.33,206.6,-277.1600000000001,-255.25
566,1715411356090,1.93,0.93,0.33,206.6,-277.16,-255.25
567,1715411356100,4.639724770642202,-1.665229357798165,3.0874311926605507,9.308440366972476,-183.14633027522936,-227.03045871559632
568,1715411356110,4.77,-1.79,3.22,-10.62,-173.65,-224.18
569,1715411356120,4.77,-1.79,3.22,-10.62,-173.65,-224.18
570,1715411356130,4.745798319327731,-1.894873949579832,3.291932773109244,-10.62,-173.65,-224.18
571,1715411356140,4.41,-3.35,4.29,-119.6744881889764,-63.68275590551181,3.8105511811023622
572,1715411356150,4.41,-3.35,4.29,-120.54000000000002,-62.809999999999995,5.62
573,1715411356160,4.41,-3.35,4.29,-120.54,-62.81,5.62
574,1715411356170,4.299887640449438,-3.191123595505618,4.039887640449439,-130.12685393258428,-48.68651685393259,20.03056179775281
575,1715411356180,3.71,-2.34,2.7,-242.43,116.76,188.84
576,1715411356190,3.71,-2.34,2.7,-242.43,116.76,188.84
577,1715411356200,3.71,-2.34,2.7,-242.43,116.76,188.84
578,1715411356210,3.52503937007874,-1.6862598425196849,2.113228346456693,-236.7556692913386,146.8727559055118,228.73417322834646
579,1715411356220,3.13,-0.29,0.8599999999999999,-219.90999999999997,236.27,347.17
580,1715411356230,3.1299999999999994,-0.29,0.86,-219.91,236.27,347.17
581,1715411356240,3.13,-0.29,0.8599999999999999,-219.90999999999997,236.27,347.17
582,1715411356250,2.874072398190045,1.0764705882352943,0.18819004524886876,-180.86710407239818,259.8850226244344,363.5937104072398
583,1715411356260,2.57,2.7,-0.61,-117.19,298.4,390.38
584,1715411356270,2.57,2.7,-0.61,-117.19,298.4,390.38
585,1715411356280,2.57,2.7,-0.61,-117.19,298.4,390.38
586,1715411356290,2.1248387096774195,3.3733064516129034,-0.9216129032258065,-138.73991935483872,312.73504032258063,379.9153225806452
587,1715411356300,1.77,3.91,-1.17,-183.17,342.2900000000001,358.34
588,1715411356310,1.77,3.91,-1.17,-183.17,342.29,358.34
589,1715411356320,1.77,3.91,-1.17,-183.17,342.29,358.34
590,1715411356330,1.7145833333333333,3.7492916666666667,-1.020375,-284.166875,262.905625,393.71799999999996
591,1715411356340,1.67,3.62,-0.9,-365.42,199.04,422.18
592,1715411356350,1.67,3.62,-0.9,-365.42,199.04,422.18
593,1715411356360,1.67,3.62,-0.9,-365.42,199.04,422.18
594,1715411356370,1.67,3.62,-0.9,-365.42,199.04,422.18
595,1715411356380,1.67,3.62,-0.9,-365.42,199.04,422.18
596,1715411356390,1.6699999999999997,3.62,-0.9,-365.42,199.04,422.18
597,1715411356400,1.67,3.62,-0.9,-365.42,199.04,422.18
598,1715411356410,1.6613008130081302,3.238943089430894,-0.6076422764227641,-253.62081300813009,221.73459349593494,411.4768292682927
599,1715411356420,1.65,2.86,-0.32,-140.26,245.24,400.21
600,1715411356430,1.65,2.86,-0.32000000000000006,-140.26,245.24,400.21
601,1715411356440,1.6453278688524589,2.8818032786885244,-0.33090163934426226,-141.48065573770492,243.37704918032787,400.7663934426229
602,1715411356450,1.62,-0.39,-177.49,188.42,417.18
603,1715411356460,1.62,-0.39,-177.49,188.42,417.18
604,1715411356470,1.62,-0.39,-177.49,188.42,417.18
605,1715411356480,1.5519512195121952,3.075609756097561,-0.4618292682926829,-212.18268292682927,146.8551219512195,434.4717073170732
606,1715411356490,1.44,3.2,-0.58,-355.29,-24.6,505.8
607,1715411356500,1.44,3.2,-0.58,-355.29,-24.6,505.8
608,1715411356510,1.44,3.2,-0.58,-355.29,-24.6,505.8
609,1715411356520,1.2949180327868852,3.3868852459016394,-0.5849180327868853,-341.04344262295086,-19.112459016393444,498.19967213114757
610,1715411356530,0.85,3.9599999999999995,-0.6,-210.45,31.19,428.53
611,1715411356540,0.85,3.96,-0.6,-210.45,31.19,428.53
612,1715411356550,0.8499999999999999,3.96,-0.6,-210.45,31.19,428.53
613,1715411356560,0.2445205479452055,5.393561643835617,-1.9890410958904112,-316.5335616438356,-67.77917808219178,488.5258904109589
614,1715411356570,0.17,5.57,-2.16,-329.59,-79.96,495.90999999999997
615,1715411356580,0.17,5.57,-2.16,-329.59,-79.96,495.91
616,1715411356590,0.17,5.57,-2.16,-329.59,-79.96,495.91
617,1715411356600,-1.0381632653061224,6.902244897959184,-2.297142857142857,-90.9525850340136,-46.62598639455782,298.6460544217687
618,1715411356610,-1.6800000000000002,7.61,-2.37,39.67,-28.380000000000003,190.67
619,1715411356620,-1.68,7.61,-2.37,39.67,-28.38,190.67
620,1715411356630,-1.68,7.61,-2.37,39.67,-28.38,190.67
621,1715411356640,-1.5538690476190478,6.552440476190476,-2.447619047619048,-6.0925,-88.78125,-81.105
622,1715411356650,-1.55,6.52,-2.45,-12.63,-97.41,-119.93
623,1715411356660,-1.55,6.52,-2.45,-12.63,-97.41,-119.93
624,1715411356670,-1.2908387096774194,6.218064516129032,-2.1430322580645162,-11.283870967741935,-100.76819354838709,-137.33490322580644
625,1715411356680,-0.52,5.32,-1.23,3.42,-137.45,-327.45
626,1715411356690,-0.52,5.32,-1.23,3.42,-137.45,-327.45
627,1715411356700,-0.52,5.319999999999999,-1.23,3.42,-137.45,-327.45
628,1715411356710,-0.2496491228070176,4.960877192982457,-1.1049122807017544,1.1109649122807015,-132.6206140350877,-342.73324561403507
629,1715411356720,0.8199999999999998,3.54,-0.61,-20.51,-87.4,-485.8399999999999
630,1715411356730,0.82,3.54,-0.61,-20.51,-87.4,-485.84
631,1715411356740,0.82,3.5399999999999996,-0.61,-20.51,-87.4,-485.84
632,1715411356750,1.0463157894736843,3.3453684210526315,-0.6824210526315789,12.19473684210526,-69.45715789473685,-509.5058947368421
633,1715411356760,1.32,3.11,-0.77,127.44,-6.23,-592.9
634,1715411356770,1.32,3.11,-0.7700000000000001,127.43999999999998,-6.2299999999999995,-592.9
635,1715411356780,1.32,3.11,-0.77,127.44000000000001,-6.23,-592.9
636,1715411356790,1.32,3.11,-0.77,127.44000000000001,-6.23,-592.9
637,1715411356800,1.5924242424242423,3.0177272727272726,-0.7436363636363637,147.10545454545456,-31.862727272727273,-601.1109090909091
638,1715411356810,1.9400000000000002,2.9,-0.71,181.52,-76.72,-615.48
639,1715411356820,1.94,2.9,-0.71,181.52,-76.72,-615.48
640,1715411356830,2.0622881355932203,2.815338983050847,-0.7288135593220338,268.6735593220339,-76.10754237288134,-596.3763559322034
641,1715411356840,2.07,2.81,-0.73,285.4,-75.99,-592.71
642,1715411356850,2.07,2.81,-0.73,285.4,-75.99,-592.71
643,1715411356860,2.0604225352112673,2.8204225352112675,-0.738169014084507,285.4,-75.99,-592.71
644,1715411356870,1.73,3.18,-1.02,358.2824,-104.1788,-566.1496
645,1715411356880,1.73,3.18,-1.02,364.62,-106.63,-563.84
646,1715411356890,1.73,3.18,-1.02,364.62,-106.63,-563.84
647,1715411356900,1.6931413612565445,3.1381151832460734,-1.0836649214659686,364.62,-106.63,-563.84
648,1715411356910,1.51,2.93,-1.4,379.58,-101.44,-467.9
649,1715411356920,1.51,2.93,-1.4,379.58,-101.44,-467.9
650,1715411356930,1.51,2.93,-1.4,379.58,-101.44,-467.9
651,1715411356940,1.4632510288065843,2.9095473251028805,-1.4029218106995884,360.53884773662554,-143.74246913580245,-443.2473251028806
652,1715411356950,1.35,2.86,-1.41,313.4800000000001,-248.29,-382.32
653,1715411356960,1.35,2.86,-1.41,313.48,-248.29000000000002,-382.32
654,1715411356970,1.35,2.86,-1.41,313.4800000000001,-248.29,-382.32
655,1715411356980,1.4011538461538462,2.623076923076923,-1.2107692307692308,309.3203846153846,-247.92923076923074,-373.43
656,1715411356990,1.54,1.9799999999999998,-0.67,298.03,-246.94999999999996,-349.3
657,1715411357000,1.54,1.9799999999999998,-0.67,298.03,-246.95,-349.3
658,1715411357010,1.5400000000000003,1.98,-0.67,298.03,-246.95000000000002,-349.3
659,1715411357020,1.710625,1.7277083333333332,-0.2645833333333334,298.03,-246.94999999999996,-349.3
660,1715411357030,2.71,0.25,2.11,233.55888157894734,-338.875197368421,-231.79546052631582
661,1715411357040,2.71,0.25,2.11,226.5,-348.94,-218.93
662,1715411357050,2.71,0.25,2.11,226.5,-348.94,-218.93
663,1715411357060,3.528702290076336,-0.83206106870229,3.2149618320610687,53.83190839694656,-340.6398473282443,-129.14404580152672
664,1715411357070,4.14,-1.64,4.04,-106.14,-332.95,-45.96
665,1715411357080,4.14,-1.64,4.04,-106.14,-332.95,-45.96000000000001
666,1715411357090,4.14,-1.64,4.04,-106.14000000000001,-332.95,-45.96000000000001
667,1715411357100,4.245205479452054,-2.290958904109589,3.895342465753425,-144.41753424657534,-164.1445205479452,31.118630136986305
668,1715411357110,4.3,-2.63,3.82,-172.67,-39.55,88.01
669,1715411357120,4.3,-2.63,3.82,-172.67,-39.55,88.01
670,1715411357130,4.3,-2.63,3.82,-172.66999999999996,-39.55,88.01
671,1715411357140,3.6647058823529415,-1.1906617647058821,2.8769852941176475,-64.46154411764707,240.96213235294115,163.68941176470588
672,1715411357150,3.66,-1.18,2.87,-63.660000000000004,243.04000000000002,164.25
673,1715411357160,3.66,-1.18,2.87,-63.660000000000004,243.04000000000002,164.25
674,1715411357170,3.6462962962962964,-1.130925925925926,2.822962962962963,-63.660000000000004,243.03999999999996,164.25
675,1715411357180,2.92,1.47,0.33,-273.01584507042253,314.7066197183098,267.589014084507
676,1715411357190,2.92,1.47,0.33,-317.75,330.02,289.67
677,1715411357200,2.92,1.47,0.33,-317.75,330.02,289.67
678,1715411357210,2.880510638297872,1.5864255319148937,0.21765957446808512,-322.5340425531915,327.4093617021276,297.6372340425532
679,1715411357220,2.34,3.18,-1.32,-392.7,289.12,414.49
680,1715411357230,2.34,3.18,-1.32,-392.7,289.12,414.48999999999995
681,1715411357240,2.34,3.18,-1.32,-392.7,289.12,414.49
682,1715411357250,2.2617105263157895,3.250921052631579,-1.2978947368421052,-394.53743421052627,279.906052631579,421.11098684210526
683,1715411357260,1.49,3.9499999999999997,-1.08,-418.09,161.8,505.98
684,1715411357270,1.49,3.95,-1.08,-418.09,161.8,505.98
685,1715411357280,1.49,3.9500000000000006,-1.08,-418.09,161.8,505.97999999999996
686,1715411357290,1.5138888888888888,3.901111111111111,-1.0344444444444445,-410.88111111111107,161.74611111111113,502.4638888888889
687,1715411357300,1.9200000000000002,3.07,-0.26,-288.33,160.83,442.69
688,1715411357310,1.92,3.07,-0.26,-288.33,160.83,442.69
689,1715411357320,1.92,3.07,-0.26,-288.33,160.83,442.69
690,1715411357330,1.938148148148148,3.019185185185185,-0.25637037037037036,-225.05829629629628,196.18622222222226,423.9683703703704
691,1715411357340,1.9699999999999998,2.93,-0.25,-114.01,258.24,391.11
692,1715411357350,1.9699999999999998,2.9300000000000006,-0.25,-114.01000000000002,258.24,391.11
693,1715411357360,1.9700000000000002,2.93,-0.25,-114.01,258.24,391.11
694,1715411357370,1.76375,2.7987499999999996,-0.2125,-258.14285714285717,154.01714285714283,441.4942857142857
695,1715411357380,1.75,2.79,-0.21,-269.23,146.0,445.37
696,1715411357390,1.75,2.79,-0.21,-269.23,146.0,445.37
697,1715411357400,1.8006194690265487,2.7753982300884954,-0.2343362831858407,-265.8365486725664,141.2758407079646,450.4446017699115
698,1715411357410,2.27,2.6399999999999997,-0.46,-234.37000000000003,97.47,497.5
699,1715411357420,2.27,2.64,-0.46,-234.37000000000003,97.47,497.5
700,1715411357430,2.27,2.6399999999999997,-0.46,-234.37000000000003,97.47,497.5
701,1715411357440,2.1327722772277227,2.931881188118812,-0.4207920792079208,-243.65316831683168,75.13534653465346,505.56138613861384
702,1715411357450,1.64,3.9800000000000004,-0.28,-281.25,-15.320000000000002,538.21
703,1715411357460,1.64,3.98,-0.28,-281.25,-15.32,538.21
704,1715411357470,1.6399999999999997,3.98,-0.28,-281.25,-15.319999999999999,538.21
705,1715411357480,1.613,4.196000000000001,-0.43,-243.036,36.298,501.31300000000005
706,1715411357490,1.55,4.7,-0.78,-153.87,156.74,415.22
707,1715411357500,1.55,4.7,-0.78,-153.87,156.74000000000004,415.22
708,1715411357510,1.55,4.7,-0.7799999999999999,-153.87,156.74,415.22
709,1715411357520,1.4540229885057472,4.778735632183908,-0.8828735632183908,-160.55908045977012,146.0480459770115,412.1297701149425
710,1715411357530,-0.12,6.07,-2.57,-270.26,-29.300000000000004,361.44999999999993
711,1715411357540,-0.12,6.07,-2.57,-270.26,-29.3,361.45
712,1715411357550,-0.12,6.07,-2.5699999999999994,-270.26,-29.3,361.45
713,1715411357560,-1.2982945736434108,6.541317829457364,-2.842868217054263,-104.51116279069767,23.81007751937985,182.64069767441862
714,1715411357570,-2.02,6.83,-3.01,-2.99,56.34,73.12
715,1715411357580,-2.02,6.83,-3.01,-2.99,56.34,73.12
716,1715411357590,-2.02,6.83,-3.01,-2.99,56.34,73.12
717,1715411357600,-0.9821951219512195,6.080975609756098,-2.630975609756097,22.359024390243903,-3.9404065040650393,-30.5169918699187
718,1715411357610,-0.87,6.0,-2.59,69.52,-116.09,-223.33
719,1715411357620,-0.87,6.0,-2.59,69.52,-116.09,-223.33
720,1715411357630,-0.87,6.0,-2.59,69.52,-116.09,-223.33
721,1715411357640,0.2190756302521008,4.741512605042017,-1.283109243697479,13.581848739495799,-144.50277310924372,-341.2567226890757
722,1715411357650,0.48,4.44,-0.97,0.18,-151.31,-369.51000000000005
723,1715411357660,0.48,4.44,-0.97,0.18,-151.31,-369.51
724,1715411357670,0.5981102362204724,4.2116535433070865,-0.9680314960629921,2.806968503937008,-148.622125984252,-376.84208661417324
725,1715411357680,1.08,3.28,-0.96,39.43,-111.15,-479.06
726,1715411357690,1.08,3.28,-0.96,39.43,-111.15,-479.06
727,1715411357700,1.08,3.28,-0.96,39.43000000000001,-111.15,-479.05999999999995
728,1715411357710,1.182127659574468,3.1829787234042555,-0.8782978723404256,44.654212765957446,-111.25455319148936,-484.50251063829785
729,1715411357720,1.48,2.9,-0.64,84.9,-112.05999999999999,-526.43
730,1715411357730,1.48,2.9,-0.64,84.9,-112.06,-526.43
731,1715411357740,1.48,2.9,-0.64,84.9,-112.06,-526.43
732,1715411357750,1.585603448275862,2.8698275862068963,-0.6490517241379311,109.06620689655173,-104.88637931034482,-543.5438793103448
733,1715411357760,1.83,2.8,-0.6699999999999999,168.58,-87.22000000000001,-585.69
734,1715411357770,1.83,2.8,-0.67,168.58,-87.22,-585.69
735,1715411357780,1.8300000000000003,2.8,-0.67,168.58,-87.22,-585.69
736,1715411357790,1.8753719008264462,2.870578512396694,-0.7304958677685951,182.71818181818182,-92.67818181818181,-577.8572727272729
737,1715411357800,1.92,2.94,-0.79,207.46,-102.23,-564.15
738,1715411357810,1.92,2.94,-0.79,207.46,-102.23,-564.15
739,1715411357820,1.92,2.94,-0.79,207.46,-102.23,-564.15
740,1715411357830,1.907560975609756,2.9524390243902436,-0.8031707317073171,207.46,-102.23,-564.15
741,1715411357840,1.75,3.11,-0.97,311.0755384615385,-78.97492307692308,-572.5116923076922
742,1715411357850,1.75,3.11,-0.97,317.87,-77.45,-573.06
743,1715411357860,1.75,3.11,-0.97,317.87,-77.45,-573.06
744,1715411357870,1.6142222222222222,2.989888888888889,-1.1945555555555554,318.6138888888889,-94.38014814814815,-527.6102962962963
745,1715411357880,1.4900000000000002,2.88,-1.4,319.82,-121.83,-453.92
746,1715411357890,1.49,2.8799999999999994,-1.4,319.82,-121.83,-453.92
747,1715411357900,1.4899999999999998,2.88,-1.3999999999999997,319.82,-121.83,-453.92
748,1715411357910,1.4870689655172413,2.8762068965517242,-1.403103448275862,319.6579310344828,-123.16534482758621,-452.74982758620695
749,1715411357920,1.32,2.66,-1.58,310.42,-199.28,-386.05
750,1715411357930,1.32,2.66,-1.58,310.42,-199.28,-386.05
751,1715411357940,1.32,2.66,-1.58,310.42,-199.28,-386.05
752,1715411357950,1.5066666666666666,2.1533333333333333,-1.2866666666666666,326.3564285714285,-246.52357142857142,-347.6328571428572
753,1715411357960,1.53,2.09,-1.25,335.21,-272.77,-326.29
754,1715411357970,1.53,2.09,-1.25,335.21,-272.77,-326.29
755,1715411357980,1.5300000000000002,2.09,-1.25,335.2099999999999,-272.77,-326.2900000000001
756,1715411357990,1.816779661016949,1.467627118644068,0.0740677966101695,280.5754237288136,-307.54966101694913,-281.2289830508475
757,1715411358000,2.0,1.07,0.92,245.67,-329.77,-252.44
758,1715411358010,2.0,1.07,0.9200000000000002,245.67000000000002,-329.77,-252.44
759,1715411358020,2.0,1.07,0.92,245.67,-329.77,-252.44
760,1715411358030,4.721322314049588,-1.6235537190082645,3.974545454545454,60.22661157024793,-416.5609917355372,-162.1814049586777
761,1715411358040,4.94,-1.84,4.22,43.52,-424.38,-154.05
762,1715411358050,4.94,-1.8400000000000003,4.22,43.52,-424.38,-154.05
763,1715411358060,4.9076562500000005,-1.85078125,4.43203125,45.061718750000004,-355.39453125,-140.2553125
764,1715411358070,4.76,-1.9,5.4,52.49,-23.01,-73.79
765,1715411358080,4.76,-1.9,5.4,52.49,-23.01,-73.79
766,1715411358090,4.76,-1.8999999999999997,5.400000000000001,52.49,-23.01,-73.79
767,1715411358100,4.613333333333333,-1.5756410256410256,4.7907692307692304,-42.899743589743586,50.9974358974359,-15.741025641025644
768,1715411358110,4.24,-0.75,3.24,-285.71,239.38,132.02
769,1715411358120,4.24,-0.75,3.24,-285.71,239.38,132.02
770,1715411358130,3.9361904761904762,0.009523809523809507,1.5552380952380953,-367.48507936507934,309.24476190476196,208.79888888888888
771,1715411358140,3.8,0.35,0.8,-405.52,341.74,244.51
772,1715411358150,3.8,0.35,0.8,-405.52,341.74,244.51
773,1715411358160,3.7959030837004404,0.36052863436123345,0.7889867841409692,-405.52,341.74,244.51
774,1715411358170,2.87,2.74,-1.7,-363.01661538461536,420.73753846153846,319.90200000000004
775,1715411358180,2.87,2.74,-1.7,-360.96,424.56,323.55
776,1715411358190,2.87,2.74,-1.7,-360.96,424.56,323.55
777,1715411358200,2.8700000000000006,2.74,-1.7,-360.96,424.56,323.55
778,1715411358210,1.9246610169491525,3.753559322033898,-1.8461864406779662,-247.58754237288133,426.05110169491525,310.93898305084747
779,1715411358220,1.8999999999999997,3.78,-1.8500000000000003,-244.63,426.09,310.61
780,1715411358230,1.9000000000000001,3.78,-1.8499999999999999,-244.63,426.09,310.61
781,1715411358240,1.8525735294117647,3.750220588235294,-1.7816176470588236,-265.22301470588235,405.45617647058816,321.6702941176471
782,1715411358250,1.47,3.51,-1.23,-431.34,239.01,410.89
783,1715411358260,1.47,3.51,-1.23,-431.34,239.01,410.89
784,1715411358270,1.47,3.51,-1.23,-431.34,239.01000000000002,410.88999999999993
785,1715411358280,1.5194387755102041,3.3252551020408165,-1.0348469387755102,-429.1111224489796,215.85474489795916,419.79311224489794
786,1715411358290,1.66,2.8,-0.48,-415.16,70.92,475.52
787,1715411358300,1.66,2.8,-0.48,-415.16,70.92,475.52
788,1715411358310,1.66,2.8,-0.48,-415.16,70.92,475.52
789,1715411358320,1.7257692307692307,2.7723076923076926,-0.33807692307692305,-365.66,68.175,482.2180769230769
790,1715411358330,1.8499999999999999,2.72,-0.07,-272.16,62.99,494.86999999999995
791,1715411358340,1.85,2.72,-0.07,-272.16,62.99,494.87
792,1715411358350,1.8500000000000003,2.7199999999999998,-0.07,-272.16,62.99,494.87
793,1715411358360,1.85,2.72,-0.07,-272.16,62.989999999999995,494.87
794,1715411358370,2.1346896551724135,2.76448275862069,-0.22124137931034482,-150.73986206896552,68.74606896551722,455.44937931034485
795,1715411358380,2.17,2.77,-0.24,-135.68,69.46,450.56
796,1715411358390,2.17,2.77,-0.24,-135.68,69.46,450.55999999999995
797,1715411358400,2.16905325443787,2.7748520710059172,-0.24059171597633133,-135.73023668639053,69.48781065088757,450.9995266272189
798,1715411358410,2.01,3.59,-0.34,-144.17,74.16,524.84
799,1715411358420,2.01,3.59,-0.34,-144.17,74.16,524.84
800,1715411358430,2.01,3.59,-0.3400000000000001,-144.17,74.16,524.84
801,1715411358440,2.035979381443299,3.8757731958762887,-0.31030927835051547,-187.79680412371135,41.51876288659793,536.9352577319588
802,1715411358450,2.08,4.36,-0.26,-261.72,-13.79,557.43
803,1715411358460,2.08,4.36,-0.26,-261.72,-13.79,557.43
804,1715411358470,2.08,4.36,-0.26,-261.72,-13.79,557.43
805,1715411358480,0.8865217391304349,5.631739130434783,-1.8121739130434782,-207.2732608695652,13.215326086956521,467.9552173913043
806,1715411358490,0.25,6.31,-2.64,-176.82000000000002,28.32,417.91
807,1715411358500,0.25,6.31,-2.64,-176.82,28.32,417.91
808,1715411358510,0.25,6.31,-2.64,-176.82,28.32,417.91
809,1715411358520,-1.3189473684210526,6.836842105263158,-2.6805263157894736,-126.85684210526314,11.148421052631578,279.9584210526316
810,1715411358530,-2.46,7.220000000000001,-2.71,-90.52000000000001,-1.34,179.63
811,1715411358540,-2.46,7.22,-2.71,-90.52,-1.34,179.63
812,1715411358550,-2.46,7.22,-2.71,-90.52,-1.34,179.63
813,1715411358560,-1.8461946902654867,6.308318584070797,-2.5836283185840707,35.97805309734513,7.361592920353983,-109.61672566371682
814,1715411358570,-1.78,6.21,-2.57,49.62,8.3,-140.81000000000003
815,1715411358580,-1.78,6.21,-2.57,49.62,8.3,-140.81
816,1715411358590,-1.7799999999999998,6.21,-2.57,49.62,8.3,-140.81
817,1715411358600,-0.7261538461538461,5.31,-1.5315384615384615,0.597032967032965,-83.93978021978022,-249.27895604395607
818,1715411358610,-0.41,5.04,-1.22,-30.76,-142.94,-318.66
819,1715411358620,-0.41,5.04,-1.22,-30.76,-142.94,-318.66
820,1715411358630,-0.1973333333333333,4.752166666666667,-1.143,-17.937666666666665,-126.52616666666667,-350.0485
821,1715411358640,0.75,3.47,-0.8,39.18,-53.41,-489.87
822,1715411358650,0.75,3.47,-0.8,39.18,-53.41,-489.87
823,1715411358660,0.75,3.47,-0.8,39.18,-53.41,-489.87
824,1715411358670,0.8462878787878788,3.3333333333333335,-0.8465909090909091,62.689772727272725,-51.151893939393936,-513.8332575757577
825,1715411358680,1.06,3.03,-0.95,114.87,-46.14,-567.02
826,1715411358690,1.06,3.03,-0.95,114.87,-46.14,-567.02
827,1715411358700,1.06,3.03,-0.95,114.87,-46.14,-567.02
828,1715411358710,1.575508474576271,2.9712711864406782,-0.9304237288135594,112.850593220339,-74.7542372881356,-576.5235593220339
829,1715411358720,1.85,2.94,-0.92,109.8,-117.98,-590.88
830,1715411358730,1.85,2.94,-0.92,109.8,-117.98,-590.88
831,1715411358740,1.85,2.94,-0.92,109.8,-117.98,-590.88
832,1715411358750,1.8642105263157895,2.9044736842105263,-0.9413157894736842,129.7978947368421,-118.96982456140353,-585.618947368421
833,1715411358760,1.87,2.89,-0.95,191.22,-122.01000000000002,-569.46
834,1715411358770,1.87,2.89,-0.95,191.22,-122.01,-569.46
835,1715411358780,1.87,2.89,-0.95,191.22,-122.01,-569.46
836,1715411358790,1.768181818181818,3.159090909090909,-1.1827272727272726,187.52454545454546,-132.8618181818182,-562.2354545454546
837,1715411358800,1.7299999999999998,3.26,-1.27,177.67,-161.8,-542.97
838,1715411358810,1.73,3.26,-1.27,177.67,-161.8,-542.97
839,1715411358820,1.73,3.26,-1.27,177.67,-161.8,-542.97
840,1715411358830,1.588139534883721,3.0330232558139536,-1.5726356589147288,300.0415503875969,-122.30193798449613,-531.05503875969
841,1715411358840,1.58,3.02,-1.59,355.04,-104.55,-525.7
842,1715411358850,1.58,3.02,-1.59,355.04,-104.55,-525.7
843,1715411358860,1.5633191489361702,3.010468085106383,-1.5947659574468087,355.04,-104.55,-525.7
844,1715411358870,1.44,2.94,-1.63,333.56,-199.46,-414.55
845,1715411358880,1.44,2.94,-1.63,333.56,-199.46,-414.55
846,1715411358890,1.44,2.94,-1.63,333.56,-199.46,-414.55
847,1715411358900,1.451382113821138,2.8822764227642277,-1.5860975609756096,326.10634146341465,-205.11203252032522,-407.17113821138213
848,1715411358910,1.58,2.23,-1.09,241.88,-268.98,-323.79
849,1715411358920,1.58,2.23,-1.09,241.88000000000002,-268.98,-323.79
850,1715411358930,1.58,2.23,-1.09,241.88,-268.98,-323.79
851,1715411358940,1.7536693548387097,1.9326209677419355,-0.6118145161290324,233.463064516129,-283.5251612903226,-319.4266935483871
852,1715411358950,2.31,0.98,0.92,172.3,-389.22,-287.72
853,1715411358960,2.31,0.98,0.92,172.3,-389.22,-287.72
854,1715411358970,2.31,0.98,0.92,172.3,-389.22,-287.72
855,1715411358980,3.0839166666666666,0.16291666666666668,1.919,136.98341666666667,-347.259,-272.40766666666667
856,1715411358990,4.82,-1.67,4.16,52.92,-247.38,-235.96
857,1715411359000,4.82,-1.67,4.16,52.92,-247.38,-235.96
858,1715411359010,4.82,-1.67,4.16,52.92,-247.38,-235.96
859,1715411359020,4.833913043478261,-2.038695652173913,4.344347826086957,-18.526600790513832,-189.76399209486166,-147.3884980237154
860,1715411359030,4.86,-2.73,4.69,-154.85,-79.83,21.61
861,1715411359040,4.86,-2.7299999999999995,4.69,-154.85,-79.82999999999998,21.61
862,1715411359050,4.86,-2.7300000000000004,4.69,-154.85,-79.83,21.61
863,1715411359060,4.380694444444444,-1.6116203703703704,3.1675,-236.98981481481482,196.99245370370372,119.12518518518519
864,1715411359070,4.35,-1.54,3.07,-242.25,214.72,125.37000000000002
865,1715411359080,4.35,-1.54,3.07,-242.25,214.72,125.37
866,1715411359090,4.286526315789473,-1.3723157894736842,2.8161052631578944,-253.69894736842107,222.65894736842102,142.01715789473684
867,1715411359100,3.68,0.23,0.39,-363.1,298.52,301.09
868,1715411359110,3.68,0.23,0.39,-363.1,298.52,301.09
869,1715411359120,3.68,0.23,0.38999999999999996,-363.1,298.52,301.09
870,1715411359130,3.5046956521739134,0.6698260869565218,0.09417391304347827,-363.1,298.52,301.09
871,1715411359140,2.56,3.04,-1.5,-375.07662790697674,296.1265891472868,465.7470930232558
872,1715411359150,2.56,3.04,-1.5,-375.61,296.02,473.08
873,1715411359160,2.56,3.04,-1.5,-375.61,296.02,473.08
874,1715411359170,2.3017924528301887,3.2374528301886794,-1.5108490566037736,-342.43575471698114,283.3461320754717,462.287358490566
875,1715411359180,1.37,3.95,-1.55,-222.72,237.61,423.34
876,1715411359190,1.37,3.95,-1.55,-222.72,237.61,423.34
877,1715411359200,1.37,3.95,-1.55,-222.72000000000003,237.61,423.34
878,1715411359210,1.37,3.5265853658536583,-1.096341463414634,-254.56178861788618,194.7846341463415,417.43235772357724
879,1715411359220,1.37,3.11,-0.65,-285.89,152.65,411.62
880,1715411359230,1.37,3.11,-0.65,-285.89,152.65,411.62
881,1715411359240,1.37,3.11,-0.65,-285.89,152.65,411.62
882,1715411359250,1.37,3.11,-0.65,-285.89,152.65,411.62
883,1715411359260,1.37,3.11,-0.65,-285.89,152.65,411.62
884,1715411359270,1.37,3.11,-0.65,-285.89,152.65,411.62
885,1715411359280,1.6696581196581195,2.7476068376068374,-0.17905982905982906,-312.90350427350427,60.28863247863247,486.9463247863248
886,1715411359290,1.75,2.37,0.07,-235.47000000000003,46.51,492.98
887,1715411359300,1.75,2.37,0.07,-235.47,46.51,492.98
888,1715411359310,1.75,2.37,0.07,-235.47,46.51,492.9800000000001
889,1715411359320,1.6883333333333335,2.4470833333333335,-0.06361111111111112,-121.03,124.66499999999999,439.14500000000004
890,1715411359330,1.6300000000000001,2.52,-0.19,-6.589999999999999,202.82,385.31
891,1715411359340,1.63,2.52,-0.19,-6.59,202.82,385.31
892,1715411359350,1.63,2.52,-0.18999999999999997,-6.59,202.82,385.31
893,1715411359360,1.63,2.52,-0.19,-6.59,202.82,385.31
894,1715411359370,1.63,2.52,-0.19,-6.59,202.82,385.31
895,1715411359380,1.63,2.52,-0.19,-6.59,202.82,385.31
896,1715411359390,1.63,2.52,-0.19,-6.589999999999999,202.82,385.31
897,1715411359400,1.63,2.52,-0.19,-6.59,202.82,385.31
898,1715411359410,1.63,2.5199999999999996,-0.19,-6.59,202.82,385.30999999999995
899,1715411359420,1.63,2.52,-0.19,-6.59,202.82,385.31
900,1715411359430,1.63,2.52,-0.19,-6.59,202.82000000000002,385.31
901,1715411359440,1.63,2.52,-0.18999999999999997,-6.59,202.82000000000002,385.31
902,1715411359450,1.63,2.52,-0.19,-6.590000000000001,202.82,385.31
903,1715411359460,1.63,2.52,-0.19,-6.59,202.82,385.31
904,1715411359470,1.1152666666666666,4.479466666666666,-1.1251333333333333,-98.46733333333333,56.712266666666665,437.6737333333333
905,1715411359480,-0.8255555555555556,6.291111111111111,-2.482222222222222,-98.4511111111111,1.7733333333333334,364.0588888888889
906,1715411359490,-1.33,6.62,-2.78,-89.54,0.24000000000000002,337.95
907,1715411359500,-1.346338028169014,6.620422535211268,-2.7843661971830986,-88.1318309859155,0.6759154929577466,332.92619718309857
908,1715411359510,-2.49,6.65,-3.09,10.44,31.190000000000005,-18.74
909,1715411359520,-2.49,6.65,-3.09,10.44,31.19,-18.74
910,1715411359530,-2.49,6.65,-3.09,10.44,31.19,-18.74
911,1715411359540,-2.4381081081081084,6.556756756756758,-3.0437837837837836,10.251891891891892,23.915405405405405,-35.46216216216216
912,1715411359550,-1.85,5.5,-2.52,8.12,-58.53,-224.98
913,1715411359560,-1.8500000000000003,5.5,-2.52,8.12,-58.53,-224.98
914,1715411359570,-1.8500000000000003,5.5,-2.52,8.12,-58.53,-224.98
915,1715411359580,-0.6728571428571429,4.445476190476191,-1.557440476190476,5.0494642857142855,-107.26273809523809,-323.58208333333334
916,1715411359590,0.07,3.78,-0.95,2.69,-144.71,-399.35
917,1715411359600,0.07,3.78,-0.95,2.69,-144.71,-399.35
918,1715411359610,0.07710843373493977,3.770722891566265,-0.9486746987951807,3.217469879518072,-144.1801204819277,-399.9883132530121
919,1715411359620,0.66,3.01,-0.84,68.36,-78.74,-478.82
920,1715411359630,0.66,3.01,-0.84,68.36,-78.74,-478.82
921,1715411359640,0.66,3.01,-0.84,68.36,-78.74,-478.82
922,1715411359650,0.66,3.01,-0.84,68.36,-78.74,-478.81999999999994
923,1715411359660,0.9269333333333333,3.0342666666666664,-0.8746666666666666,82.89573333333334,-87.62506666666667,-505.5029333333334
924,1715411359670,1.43,3.08,-0.94,110.29,-104.37,-555.79
925,1715411359680,1.43,3.08,-0.94,110.29,-104.37,-555.79
926,1715411359690,1.43,3.08,-0.94,110.29,-104.37,-555.79
927,1715411359700,1.8253216374269006,3.0343859649122806,-0.7955555555555555,161.79584795321637,-96.53198830409357,-572.583567251462
928,1715411359710,1.95,3.02,-0.75,178.04,-94.06,-577.88
929,1715411359720,1.95,3.02,-0.75,178.04,-94.06,-577.88
930,1715411359730,1.9500000000000002,3.02,-0.75,178.04,-94.06,-577.88
931,1715411359740,1.7646666666666666,3.1126666666666667,-1.2226000000000001,157.35266666666666,-131.084,-521.226
932,1715411359750,1.75,3.12,-1.26,154.17,-136.78,-512.51
933,1715411359760,1.75,3.12,-1.26,154.17,-136.78,-512.51
934,1715411359770,1.75,3.12,-1.26,154.17,-136.78,-512.51
935,1715411359780,1.8934482758620688,3.24551724137931,-1.3944827586206896,316.3113793103448,-96.01379310344828,-558.8079310344827
936,1715411359790,1.91,3.26,-1.41,335.02,-91.31,-564.15
937,1715411359800,1.91,3.26,-1.41,335.02,-91.31,-564.15
938,1715411359810,1.822,3.2907999999999995,-1.5837999999999999,338.4053333333333,-91.29766666666666,-561.3363333333333
939,1715411359820,1.51,3.4,-2.2,436.58,-90.94,-479.74
940,1715411359830,1.51,3.4,-2.2,436.58,-90.94,-479.74
941,1715411359840,1.51,3.4,-2.2,436.58,-90.94,-479.74
942,1715411359850,1.51,3.4,-2.2,436.58,-90.94,-479.74
943,1715411359860,1.7977124183006536,3.0658823529411765,-1.9308496732026146,350.5792156862745,-311.9413725490196,-345.19098039215686
944,1715411359870,1.82,3.04,-1.91,343.26,-330.75,-333.74
945,1715411359880,1.82,3.04,-1.9100000000000001,343.26,-330.75,-333.74
946,1715411359890,1.975147928994083,2.4275739644970415,-1.346568047337278,351.0623076923077,-297.5075147928994,-308.2222485207101
947,1715411359900,2.2,1.54,-0.53,362.37,-249.33,-271.24
948,1715411359910,2.2,1.54,-0.53,362.37,-249.33,-271.24
949,1715411359920,2.2,1.54,-0.53,362.37,-249.33000000000004,-271.24
950,1715411359930,3.4946938775510206,0.7706122448979591,1.3059183673469388,258.0197959183674,-333.304693877551,-238.8195918367347
951,1715411359940,4.64,0.09,2.93,165.71,-407.59,-210.14
952,1715411359950,4.64,0.09,2.93,165.71,-407.59,-210.14
953,1715411359960,4.64,0.09,2.93,165.71,-407.59,-210.13999999999996
954,1715411359970,4.573785714285714,-1.447642857142857,4.872285714285714,37.685428571428574,-254.75028571428572,-82.74199999999999
955,1715411359980,4.55,-2.0,5.57,-10.01,-197.81,-35.28
956,1715411359990,4.55,-2.0,5.57,-10.01,-197.81,-35.28
957,1715411360000,4.55,-2.0,5.57,-10.01,-197.81,-35.28
958,1715411360010,4.335704697986577,-1.6958389261744966,4.671342281879195,-111.06060402684562,28.672483221476504,45.13604026845637
959,1715411360020,4.24,-1.56,4.27,-156.19,129.82,81.05
960,1715411360030,4.24,-1.56,4.27,-156.19,129.82,81.05
961,1715411360040,4.104583333333333,-1.2120833333333334,3.72625,-185.39,169.27399999999997,109.604
962,1715411360050,3.59,0.11,1.66,-302.19,327.09,223.82
963,1715411360060,3.59,0.11000000000000001,1.66,-302.18999999999994,327.09,223.82
964,1715411360070,3.59,0.11,1.66,-302.19,327.09,223.82
965,1715411360080,3.59,0.11,1.66,-302.19,327.09,223.82
966,1715411360090,3.174905660377358,2.477924528301887,-0.7833962264150944,-345.3164150943396,332.82226415094334,282.1284905660377
967,1715411360100,3.15,2.62,-0.93,-422.49,343.08,386.47
968,1715411360110,3.15,2.62,-0.9299999999999999,-422.49,343.08,386.47
969,1715411360120,3.1,2.661605839416058,-0.9668613138686132,-417.48766423357665,343.21372262773724,385.67
970,1715411360130,1.78,3.76,-1.94,-251.16,347.66,359.07
971,1715411360140,1.7799999999999998,3.76,-1.94,-251.16000000000003,347.66,359.07
972,1715411360150,1.78,3.76,-1.94,-251.16,347.66,359.07
973,1715411360160,1.78,3.76,-1.94,-251.16,347.66,359.07
974,1715411360170,1.78,3.76,-1.94,-251.16,347.66,359.07
975,1715411360180,1.78,3.7600000000000002,-1.94,-251.16,347.66,359.07
976,1715411360190,1.78,3.76,-1.9399999999999997,-251.16000000000003,347.66,359.07
977,1715411360200,1.78,3.76,-1.9399999999999997,-251.16000000000003,347.66,359.07
978,1715411360210,1.78,3.76,-1.94,-251.16,347.66,359.07
979,1715411360220,1.78,3.76,-1.94,-251.16,347.66,359.07
980,1715411360230,1.5848695652173912,3.7198260869565214,-1.5497391304347825,-285.13565217391306,307.96817391304353,357.9508695652174
981,1715411360240,1.44,3.69,-1.26,-310.36,278.5,357.12
982,1715411360250,1.44,3.6900000000000004,-1.26,-310.36,278.5,357.12
983,1715411360260,1.44,3.69,-1.2599999999999998,-310.36,278.5,357.12
984,1715411360270,1.7608403361344538,3.1407563025210083,-0.6498319327731092,-280.0085714285715,171.7678151260504,436.3718487394958
985,1715411360280,1.9199999999999997,2.87,-0.35,-263.43,119.14,475.22
986,1715411360290,1.92,2.87,-0.35,-263.43,119.14,475.22
987,1715411360300,1.9199999999999997,2.87,-0.35,-263.43,119.14,475.22
988,1715411360310,1.7048672566371679,3.1182300884955754,-0.2258849557522124,-214.3850442477876,106.4716814159292,481.4320353982301
989,1715411360320,1.6600000000000001,3.17,-0.2,-203.18999999999997,103.58,482.85
990,1715411360330,1.6600000000000001,3.17,-0.2,-203.18999999999997,103.58,482.85
991,1715411360340,1.6684466019417474,3.185436893203883,-0.20349514563106796,-203.19,103.58,482.85
992,1715411360350,1.9499999999999997,3.7,-0.32,-293.9814606741573,-12.11932584269663,505.4657303370787
993,1715411360360,1.95,3.7,-0.32,-322.02,-47.85,512.45
994,1715411360370,1.9499999999999997,3.6999999999999997,-0.32,-322.02,-47.85,512.45
995,1715411360380,1.6661176470588235,4.006235294117648,-0.5725882352941176,-278.3356470588235,-19.008,486.160705882353
996,1715411360390,0.68,5.07,-1.4499999999999997,-126.59,81.18,394.84
997,1715411360400,0.68,5.07,-1.45,-126.59,81.18,394.84
998,1715411360410,0.68,5.07,-1.45,-126.59,81.18,394.84
999,1715411360420,0.3571317829457365,5.312480620155039,-1.6806201550387598,-134.84922480620153,69.05224806201552,388.1547286821705
1000,1715411360430,-1.77,6.91,-3.2,-193.18,-16.6,340.94
1001,1715411360440,-1.77,6.91,-3.2,-193.18,-16.6,340.94
1002,1715411360450,-1.77,6.91,-3.2,-193.18,-16.6,340.94
1003,1715411360460,-1.7953571428571429,6.878303571428572,-3.1049107142857144,-118.27183035714286,-5.186116071428573,208.78808035714286
1004,1715411360470,-1.85,6.81,-2.9,43.15,19.41,-75.99
1005,1715411360480,-1.85,6.81,-2.9,43.15,19.41,-75.99
1006,1715411360490,-1.4808000000000001,6.5448,-2.4112,57.30440000000001,-49.651199999999996,-155.524
1007,1715411360500,-1.14,6.3,-1.96,70.37,-113.4,-228.94
1008,1715411360510,-1.14,6.3,-1.96,70.37,-113.40000000000002,-228.94
1009,1715411360520,,,,,,
1010,1715411360530,,,,,,
1011,1715411360540,,,,,,
1012,1715411360550,0.33954545454545454,4.801363636363637,-0.8145454545454546,-80.92545454545454,-178.83409090909092,-382.68863636363636
1013,1715411360560,0.41,4.73,-0.76,-88.13,-181.95,-390.01
1014,1715411360570,0.9956,3.53,-0.904,-22.18496,-77.468,-507.1536
1015,1715411360580,1.02,3.48,-0.91,-18.86,-72.2,-513.06
1016,1715411360590,1.02,3.48,-0.91,-18.86,-72.2,-513.06
1017,1715411360600,1.02,3.48,-0.9099999999999999,-18.86,-72.2,-513.06
1018,1715411360610,1.3738461538461537,3.303076923076923,-0.9011538461538462,69.33775641025642,-35.258397435897436,-597.4126923076923
1019,1715411360620,1.42,3.28,-0.9,84.59,-28.869999999999997,-612.0
1020,1715411360630,1.42,3.28,-0.9,84.59,-28.87,-612.0
1021,1715411360640,1.6218181818181818,3.203636363636363,-0.8481818181818181,84.59,-28.87,-612.0
1022,1715411360650,2.16,-0.71,164.388,-33.230500000000006,-642.192
1023,1715411360660,2.16,-0.71,178.47,-34.0,-647.52
1024,1715411360670,2.16,-0.71,178.47,-34.0,-647.52
1025,1715411360680,1.9844736842105262,3.1678947368421055,-0.9236842105263158,230.12052631578948,-58.49736842105263,-618.4589473684211
1026,1715411360690,1.93,3.22,-0.9899999999999999,246.15,-66.1,-609.44
1027,1715411360700,1.93,3.22,-0.9900000000000001,246.15000000000003,-66.1,-609.44
1028,1715411360710,1.93,3.22,-0.99,246.15000000000003,-66.1,-609.44
1029,1715411360720,1.926064516129032,3.054709677419355,-1.0096774193548388,294.09193548387094,-72.45612903225806,-586.3303225806452
1030,1715411360730,1.92,2.8,-1.04,370.0,-82.52,-549.74
1031,1715411360740,1.92,2.8,-1.04,370.0,-82.52,-549.74
1032,1715411360750,1.9200000000000002,2.8,-1.04,370.0,-82.52,-549.74
1033,1715411360760,1.5357534246575342,2.913013698630137,-1.5221917808219179,379.6666666666667,-91.18666666666667,-494.75369863013697
1034,1715411360770,1.41,2.95,-1.68,391.17,-101.5,-429.32
1035,1715411360780,1.41,2.95,-1.68,391.17,-101.5,-429.32
1036,1715411360790,1.41,2.95,-1.6800000000000002,391.16999999999996,-101.5,-429.32
1037,1715411360800,1.3477358490566038,2.78188679245283,-1.661320754716981,340.75820754716983,-190.2433962264151,-347.5058490566037
1038,1715411360810,1.31,2.68,-1.65,308.96,-246.22,-295.9
1039,1715411360820,1.31,2.68,-1.65,308.96,-246.21999999999997,-295.9
1040,1715411360830,1.3116176470588234,2.671470588235294,-1.6394117647058823,308.96,-246.22,-295.9
1041,1715411360840,1.42,2.1,-0.93,303.4191666666667,-270.4559848484849,-276.1396212121212
1042,1715411360850,1.42,2.1,-0.93,302.25,-275.57,-271.97
1043,1715411360860,1.42,2.1,-0.9299999999999999,302.25,-275.57,-271.97
1044,1715411360870,1.430360824742268,2.0931443298969072,-0.913298969072165,302.25,-275.57,-271.97
1045,1715411360880,3.43,0.77,2.31,222.96,-323.79,-217.71
1046,1715411360890,3.43,0.7699999999999999,2.31,222.96,-323.79,-217.71
1047,1715411360900,3.4300000000000006,0.77,2.31,222.95999999999998,-323.79,-217.70999999999998
1048,1715411360910,3.5812903225806454,0.18741935483870967,2.858709677419355,171.9017741935484,-302.39946236559143,-185.8512365591398
1049,1715411360920,4.1,-1.81,4.74,-8.67,-226.75,-73.18
1050,1715411360930,4.1,-1.81,4.74,-8.67,-226.75,-73.18
1051,1715411360940,4.1,-1.8099999999999998,4.74,-8.67,-226.75,-73.18
1052,1715411360950,4.106875,-2.1125000000000003,4.4203125000000005,-42.25546875,-210.0128125,-45.04515625000001
1053,1715411360960,4.12,-2.69,3.8099999999999996,-247.5,-107.73,126.88999999999999
1054,1715411360970,4.12,-2.69,3.8099999999999996,-247.5,-107.73,126.89
1055,1715411360980,4.12,-2.69,3.81,-247.5,-107.73,126.89000000000001
1056,1715411360990,4.12,-2.69,3.81,-247.5,-107.73,126.88999999999999
1057,1715411361000,3.5940926640926643,-1.42980694980695,2.5597297297297295,-36.472972972972975,180.6999613899614,183.29895752895754
1058,1715411361010,3.5900000000000003,-1.42,2.55,-34.0,184.08,183.96
1059,1715411361020,3.59,-1.42,2.55,-34.0,184.08,183.96
1060,1715411361030,3.401188811188811,-0.7075524475524475,1.9961538461538462,-76.68391608391609,220.52811188811188,203.93622377622378
1061,1715411361040,2.84,1.41,0.35,-203.55,328.86,263.31
1062,1715411361050,2.84,1.41,0.35,-203.55,328.86,263.31
1063,1715411361060,2.8400000000000003,1.41,0.35,-203.55,328.86,263.31
1064,1715411361070,2.5064748201438847,2.5636690647482014,-0.8638129496402879,-277.88136690647485,322.80057553956834,310.7958992805755
1065,1715411361080,2.23,3.52,-1.8700000000000003,-428.16,310.55,406.8
1066,1715411361090,2.23,3.5200000000000005,-1.8700000000000003,-428.16,310.55,406.8
1067,1715411361100,2.23,3.5200000000000005,-1.87,-428.15999999999997,310.55,406.8
1068,1715411361110,1.8240594059405943,3.52,-1.0482178217821783,-419.29366336633666,241.8559405940594,446.2039603960396
1069,1715411361120,1.82,3.5200000000000005,-1.04,-408.26,156.37,495.24
1070,1715411361130,1.82,3.52,-1.04,-408.26,156.37,495.24
1071,1715411361140,1.82,3.5200000000000005,-1.04,-408.26,156.37,495.24
1072,1715411361150,2.1133333333333333,3.2136296296296294,-0.7336296296296295,-256.2807407407407,210.91696296296297,457.24355555555553
1073,1715411361160,2.27,3.05,-0.57,-175.11,240.05000000000004,436.95
1074,1715411361170,2.27,3.05,-0.57,-175.11,240.04999999999998,436.95
1075,1715411361180,2.27,3.05,-0.57,-175.11,240.05,436.95
1076,1715411361190,2.2313372093023256,3.3593023255813956,-0.57,-58.68087209302326,323.3992441860465,399.3388372093023
1077,1715411361200,2.22,3.45,-0.57,-24.539999999999996,347.84,388.31
1078,1715411361210,2.22,3.45,-0.57,-24.54,347.84,388.31
1079,1715411361220,2.22,3.45,-0.57,-24.54,347.84,388.31
1080,1715411361230,1.7116317991631798,3.770083682008368,-0.8430125523012552,-245.74702928870292,261.34225941422596,500.88171548117157
1081,1715411361240,1.68,3.79,-0.86,-260.56,255.55,508.4200000000001
1082,1715411361250,1.68,3.79,-0.86,-260.56,255.55000000000004,508.42
1083,1715411361260,1.758099173553719,3.6702479338842977,-0.8322314049586778,-257.7252892561983,232.92190082644632,507.55223140495866
1084,1715411361270,2.13,3.1,-0.7,-243.41,118.65,503.16999999999996
1085,1715411361280,2.13,3.1,-0.7,-243.41,118.65000000000002,503.17
1086,1715411361290,2.13,3.1,-0.7,-243.41,118.65,503.17
1087,1715411361300,1.989794520547945,3.3126712328767125,-0.6984246575342465,-240.74609589041097,105.95904109589041,512.9497260273973
1088,1715411361310,1.24,4.45,-0.69,-226.5,38.09,565.25
1089,1715411361320,1.24,4.45,-0.69,-226.5,38.09,565.25
1090,1715411361330,1.24,4.45,-0.6899999999999998,-226.5,38.09,565.25
1091,1715411361340,0.83824,4.50208,-1.3149600000000001,-175.28912,114.09672000000002,417.2772
1092,1715411361350,0.7,4.52,-1.5299999999999998,-156.92,141.36,364.2
1093,1715411361360,0.7,4.52,-1.53,-156.92,141.36,364.2
1094,1715411361370,0.5464285714285714,4.597857142857142,-1.6407142857142856,-156.92,141.36,364.2
1095,1715411361380,-1.45,5.61,-3.08,-182.45352112676053,-13.849577464788734,308.8715492957746
1096,1715411361390,-1.45,5.61,-3.08,-186.16000000000003,-36.38,300.84
1097,1715411361400,-1.45,5.610000000000001,-3.08,-186.15999999999997,-36.38000000000001,300.84
1098,1715411361410,-1.9347736625514402,6.047860082304527,-2.9548971193415636,-45.03958847736625,-2.921069958847738,140.12987654320986
1099,1715411361420,-2.07,6.17,-2.92,3.3,8.54,85.08000000000001
1100,1715411361430,-2.07,6.17,-2.92,3.2999999999999994,8.54,85.08
1101,1715411361440,-2.07,6.17,-2.92,3.3,8.54,85.08
1102,1715411361450,-1.449285714285714,5.635714285714286,-3.2735714285714286,31.01214285714286,0.7299999999999999,-174.36285714285717
1103,1715411361460,-1.28,5.49,-3.37,38.57,-1.4,-245.12
1104,1715411361470,-1.28,5.49,-3.37,38.57,-1.4,-245.11999999999998
1105,1715411361480,-1.28,5.49,-3.37,38.57,-1.4,-245.12
1106,1715411361490,-0.3945161290322581,5.098064516129032,-2.5425806451612907,73.0933870967742,-95.46008064516128,-302.2881451612903
1107,1715411361500,-0.06,4.95,-2.23,86.67,-132.45,-324.77
1108,1715411361510,-0.06,4.95,-2.23,86.67,-132.45,-324.77
1109,1715411361520,0.06073394495412844,4.794587155963303,-2.1028440366972476,75.1848623853211,-141.65275229357798,-334.7729357798165
1110,1715411361530,0.88,3.74,-1.24,-2.75,-204.1,-402.65
1111,1715411361540,0.88,3.7399999999999998,-1.24,-2.75,-204.1,-402.65
1112,1715411361550,0.88,3.74,-1.24,-2.75,-204.1,-402.65
1113,1715411361560,1.1027407407407408,3.308888888888889,-0.8591851851851852,88.64555555555555,-135.11503703703704,-483.2965185185185
1114,1715411361570,1.19,3.14,-0.71,124.45,-108.09,-514.89
1115,1715411361580,1.19,3.14,-0.71,124.45,-108.09,-514.89
1116,1715411361590,1.19,3.14,-0.71,124.44999999999999,-108.09,-514.89
1117,1715411361600,1.3199557522123895,3.0730530973451327,-0.6706194690265487,109.93,-122.11159292035398,-522.7087610619469
1118,1715411361610,1.52,2.97,-0.61,87.16,-144.1,-534.97
1119,1715411361620,1.52,2.97,-0.61,87.16000000000001,-144.1,-534.97
1120,1715411361630,1.52,2.97,-0.61,87.16,-144.1,-534.97
1121,1715411361640,1.5878333333333332,2.9388333333333336,-0.61,112.6015,-134.70075,-545.5015
1122,1715411361650,1.89,2.8,-0.61,232.54,-90.39,-595.15
1123,1715411361660,1.8900000000000001,2.8,-0.61,232.53999999999996,-90.39,-595.15
1124,1715411361670,1.8899999999999997,2.8,-0.61,232.54000000000002,-90.39,-595.15
1125,1715411361680,1.7443262411347518,2.940070921985815,-0.7052482269503546,256.1727659574468,-90.6981560283688,-568.8558865248227
1126,1715411361690,1.63,3.05,-0.7799999999999999,274.72,-90.94,-548.22
1127,1715411361700,1.6299999999999997,3.05,-0.78,274.72,-90.94,-548.22
1128,1715411361710,1.63,3.05,-0.78,274.72,-90.94,-548.22
1129,1715411361720,1.7190756302521009,2.7560504201680676,-1.2788235294117647,274.72,-90.94000000000001,-548.22
1130,1715411361730,1.7300000000000002,2.72,-1.34,276.84571428571434,-121.94571428571429,-533.0142857142857
1131,1715411361740,1.73,2.72,-1.34,278.44,-145.2,-521.61
1132,1715411361750,1.6452892561983472,2.7096694214876034,-1.3585950413223142,295.5536363636364,-151.60702479338843,-496.17404958677685
1133,1715411361760,1.32,2.67,-1.43,361.27,-176.21,-398.5
1134,1715411361770,1.32,2.67,-1.43,361.27,-176.21,-398.5
1135,1715411361780,1.32,2.67,-1.43,361.2699999999999,-176.21,-398.5
1136,1715411361790,1.3376470588235294,2.583529411764706,-1.3805882352941177,361.27,-176.21,-398.5
1137,1715411361800,1.42,2.18,-1.15,236.318125,-281.1688392857142,-299.71196428571426
1138,1715411361810,1.42,2.18,-1.15,225.40000000000003,-290.34,-291.08
1139,1715411361820,1.42,2.18,-1.15,225.40000000000003,-290.34,-291.08
1140,1715411361830,1.6712690355329949,1.498781725888325,-0.5134517766497462,224.32822335025384,-296.9777664974619,-278.18243654822334
1141,1715411361840,1.87,0.96,-0.01,223.33,-303.16,-266.17
1142,1715411361850,1.8700000000000003,0.96,-0.01,223.33,-303.16,-266.17
1143,1715411361860,1.87,0.96,-0.01,223.33,-303.16,-266.17
1144,1715411361870,3.012821782178218,-0.013514851485148579,1.5231683168316832,210.8462376237624,-270.44079207920794,-246.6860396039604
1145,1715411361880,4.3,-1.11,3.25,195.92,-231.32000000000002,-223.39
1146,1715411361890,4.3,-1.11,3.25,195.92000000000002,-231.32,-223.39000000000001
1147,1715411361900,4.3,-1.11,3.25,195.92,-231.32,-223.38999999999996
1148,1715411361910,4.226106870229008,-1.3954961832061068,3.5422137404580156,86.8148854961832,-166.6493129770992,-145.93748091603052
1149,1715411361920,4.08,-1.96,4.12,-136.47,-34.3,12.57
1150,1715411361930,4.08,-1.96,4.12,-136.47,-34.3,12.57
1151,1715411361940,4.08,-1.9600000000000002,4.12,-136.47,-34.3,12.569999999999999
1152,1715411361950,3.844015748031496,-1.741496062992126,3.1411023622047245,-164.7444094488189,143.17763779527556,98.35464566929133
1153,1715411361960,3.81,-1.71,-168.82,168.76,110.72
1154,1715411361970,3.81,-1.71,-168.82,168.76,110.72
1155,1715411361980,3.7888888888888888,-1.625,2.9,-173.2276388888889,176.01185185185184,115.89203703703704
1156,1715411361990,3.43,-0.18,1.2,-255.37,311.16,212.28
1157,1715411362000,3.43,-0.18,1.2,-255.37,311.16,212.28
1158,1715411362010,3.43,-0.18,1.2,-255.37,311.16,212.28
1159,1715411362020,3.363728813559322,0.06429378531073446,0.9492090395480225,-267.35689265536723,313.8683615819209,232.88418079096044
1160,1715411362030,2.92,1.7,-0.73,-351.81,332.95,378.05
1161,1715411362040,2.92,1.7000000000000002,-0.73,-351.81,332.95,378.05
1162,1715411362050,2.92,1.7,-0.73,-351.81,332.95,378.05
1163,1715411362060,2.85205298013245,1.913907284768212,-0.8331788079470199,-332.3330463576159,339.6219205298013,380.21834437086096
1164,1715411362070,2.38,3.4,-1.55,-188.42,388.92,396.24
1165,1715411362080,2.38,3.3999999999999995,-1.5500000000000003,-188.42000000000002,388.92,396.24
1166,1715411362090,2.38,3.3999999999999995,-1.5500000000000003,-188.42,388.92,396.23999999999995
1167,1715411362100,2.298257575757576,3.4561363636363636,-1.5647727272727274,-188.42,388.92,396.24
1168,1715411362110,1.55,3.97,-1.7,-241.45333333333335,350.80999999999995,401.10692307692307
1169,1715411362120,1.55,3.97,-1.7,-244.32,348.75,401.37
1170,1715411362130,1.55,3.97,-1.7,-244.32,348.75,401.37
1171,1715411362140,1.5737209302325583,3.8079069767441864,-1.4390697674418604,-283.82186046511623,294.8695348837209,421.974496124031
1172,1715411362150,1.61,3.56,-1.04,-440.31,81.42,503.6
1173,1715411362160,1.61,3.56,-1.04,-440.31,81.42,503.6000000000001
1174,1715411362170,1.61,3.56,-1.04,-440.31,81.42,503.6
1175,1715411362180,1.3877319587628867,3.2504123711340207,-0.46845360824742266,-423.2330927835052,18.608659793814432,526.0309278350516
1176,1715411362190,1.33,3.17,-0.32,-404.3,-51.03,550.9
1177,1715411362200,1.33,3.17,-0.32,-404.3,-51.03,550.9
1178,1715411362210,1.33,3.17,-0.32,-404.3,-51.03,550.9
1179,1715411362220,1.5023404255319148,2.423191489361702,-0.06148936170212766,-290.48297872340424,-21.71191489361702,485.85957446808516
1180,1715411362230,1.51,2.39,-0.05,-251.46,-11.66,463.56
1181,1715411362240,1.51,2.39,-0.05,-251.46,-11.66,463.56
1182,1715411362250,1.5593401015228425,2.355736040609137,-0.06918781725888325,-232.4117766497462,-8.864010152284264,458.6392893401015
1183,1715411362260,1.87,2.14,-0.19000000000000003,-53.96,17.33,412.54
1184,1715411362270,1.87,2.14,-0.19,-53.96,17.33,412.53999999999996
1185,1715411362280,1.87,2.14,-0.19,-53.96,17.33,412.54
1186,1715411362290,1.87,2.14,-0.19,-53.96,17.33,412.54
1187,1715411362300,1.644621212121212,3.1767424242424243,-0.10886363636363637,-98.28954545454545,-45.600151515151516,470.56363636363636
1188,1715411362310,1.62,3.29,-0.1,-116.21000000000001,-71.04,494.02
1189,1715411362320,1.62,3.29,-0.1,-116.21,-71.04,494.0199999999999
1190,1715411362330,1.62,3.29,-0.1,-116.21,-71.04,494.0199999999999
1191,1715411362340,0.6116666666666667,4.692500000000001,-1.1083333333333332,-56.480340909090906,70.86700757575757,390.16178030303035
1192,1715411362350,0.52,4.82,-1.2,-50.78,84.41,380.25
1193,1715411362360,0.52,4.82,-1.2,-50.78,84.41,380.25
1194,1715411362370,0.33479166666666665,5.107291666666667,-1.20875,-48.04708333333333,69.670625,371.705625
1195,1715411362380,-0.75,6.79,-1.26,-32.04,-16.66,321.66
1196,1715411362390,-0.75,6.79,-1.26,-32.04,-16.66,321.66
1197,1715411362400,-0.75,6.79,-1.26,-32.04,-16.66,321.66
1198,1715411362410,-1.0179999999999998,6.826,-1.438,-22.893571428571427,9.852571428571428,247.7197142857143
1199,1715411362420,-2.09,6.97,-2.15,17.21,126.1,-76.48
1200,1715411362430,-2.09,6.97,-2.15,17.21,126.1,-76.48
1201,1715411362440,-1.993515625,6.8608984374999995,-2.1017578125,17.21,126.1,-76.48
1202,1715411362450,-0.79,5.5,-1.5,-5.490169491525424,-37.454406779661014,-258.3957627118644
1203,1715411362460,-0.79,5.5,-1.5,-8.06,-55.97,-278.99
1204,1715411362470,-0.79,5.5,-1.5,-8.06,-55.97,-278.99
1205,1715411362480,-0.79,5.5,-1.5,-8.06,-55.97,-278.99
1206,1715411362490,-0.15547368421052635,4.819157894736842,-0.9395789473684211,-10.968631578947369,-55.798631578947365,-343.3041052631579
1207,1715411362500,0.58,4.03,-0.29,-14.34,-55.6,-417.84999999999997
1208,1715411362510,0.58,4.03,-0.29,-14.34,-55.6,-417.85
1209,1715411362520,0.58,4.03,-0.29,-14.34,-55.6,-417.85
1210,1715411362530,0.8293560606060606,3.4882954545454545,-0.5995454545454546,13.782651515151514,-13.441742424242424,-488.2631818181818
1211,1715411362540,0.87,3.4,-0.65,23.93,1.77,-513.67
1212,1715411362550,0.87,3.4,-0.65,23.93,1.77,-513.67
1213,1715411362560,0.87,3.4,-0.65,23.93,1.77,-513.67
1214,1715411362570,1.32,3.19,-0.74,105.10911290322579,-1.0418548387096773,-598.371129032258
1215,1715411362580,1.32,3.19,-0.74,108.52,-1.16,-601.93
1216,1715411362590,1.32,3.19,-0.74,108.52,-1.16,-601.93
1217,1715411362600,1.4231404958677687,3.1959504132231404,-0.7261157024793389,108.52,-1.16,-601.93
1218,1715411362610,1.8400000000000003,3.22,-0.67,233.54499999999996,-22.10375,-630.48625
1219,1715411362620,1.84,3.22,-0.67,241.88,-23.5,-632.39
1220,1715411362630,1.84,3.22,-0.67,241.88,-23.5,-632.39
1221,1715411362640,1.8399999999999999,3.22,-0.6699999999999999,241.88,-23.5,-632.39
1222,1715411362650,1.937956204379562,3.113138686131387,-0.9638686131386862,223.24160583941605,-103.88642335766423,-593.4657664233576
1223,1715411362660,1.95,3.1,-1.0,220.95,-113.77,-588.68
1224,1715411362670,1.95,3.1,-1.0,220.95,-113.77,-588.68
1225,1715411362680,1.856865671641791,3.135820895522388,-1.1791044776119404,227.41925373134328,-136.32999999999998,-555.4955223880596
1226,1715411362690,1.8199999999999998,3.15,-1.25,229.98,-145.26,-542.36
1227,1715411362700,1.82,3.15,-1.25,229.98,-145.26,-542.36
1228,1715411362710,1.82,3.15,-1.25,229.98,-145.26,-542.36
1229,1715411362720,1.8087671232876712,3.0152054794520544,-1.3651369863013698,243.31150684931504,-153.51205479452054,-529.3798630136987
1230,1715411362730,1.78,2.67,-1.66,294.86,-185.42,-479.19
1231,1715411362740,1.78,2.67,-1.66,294.86,-185.42,-479.19
1232,1715411362750,1.78,2.67,-1.66,294.86,-185.42,-479.18999999999994
1233,1715411362760,1.6400411522633747,2.441646090534979,-1.195925925925926,247.01432098765434,-236.58666666666664,-422.4122222222222
1234,1715411362770,1.59,2.36,-1.03,217.35,-268.31,-387.21
1235,1715411362780,1.59,2.36,-1.03,217.35,-268.31,-387.21
1236,1715411362790,1.5899999999999999,2.36,-1.03,217.35,-268.31,-387.21000000000004
1237,1715411362800,1.7966666666666666,1.3666666666666667,-0.30333333333333334,199.65,-298.5033333333334,-345.5833333333333
1238,1715411362810,1.8999999999999997,0.87,0.06,190.80000000000004,-313.6000000000001,-324.77
1239,1715411362820,1.9,0.87,0.06,190.8,-313.6,-324.77
1240,1715411362830,1.9,0.87,0.05999999999999999,190.8,-313.6,-324.77
1241,1715411362840,3.707155963302753,-0.7843119266055045,3.2247706422018347,237.0554128440367,-191.12146788990827,-292.8081651376147
1242,1715411362850,3.91,-0.97,3.58,257.14,-137.94,-278.93
1243,1715411362860,3.91,-0.9699999999999999,3.5799999999999996,257.14,-137.94,-278.93
1244,1715411362870,3.886216216216216,-1.0964864864864865,3.6232432432432433,205.20378378378376,-132.0145945945946,-246.4327027027027
1245,1715411362880,3.69,-2.14,3.98,-223.27,-83.13,21.67
1246,1715411362890,3.69,-2.14,3.98,-223.26999999999998,-83.13,21.67
1247,1715411362900,3.69,-2.14,3.98,-223.27,-83.13,21.67
1248,1715411362910,3.6127027027027028,-1.8800000000000001,2.764324324324324,-220.63846846846846,31.729099099099102,49.18711711711711
1249,1715411362920,3.58,-1.77,2.25,-216.92000000000002,194.03,88.07000000000001
1250,1715411362930,3.58,-1.77,2.25,-216.92,194.03,88.07
1251,1715411362940,3.58,-1.77,2.25,-216.92,194.03,88.07
1252,1715411362950,3.5505069124423967,-1.6973732718894008,2.2005990783410136,-216.92,194.03,88.07
1253,1715411362960,2.78,0.2,0.91,-256.83217391304345,246.86382608695652,180.39695652173916
1254,1715411362970,2.78,0.2,0.91,-275.02,270.94,222.47
1255,1715411362980,2.78,0.2,0.91,-275.02,270.94,222.47
1256,1715411362990,2.551098265895954,0.8076300578034682,0.41890173410404624,-270.201965317919,291.02179190751446,248.51849710982657
1257,1715411363000,2.23,1.6600000000000001,-0.27,-262.94,321.29,287.78
