id,timestamp,acc_x,acc_y,acc_z,gyro_x,gyro_y,gyro_z
0,1715411594690,3.07,-0.8,0.21,-85.47496296296296,-27.591185185185186,427.24570370370367
1,1715411594700,3.07,-0.8,0.21,-85.39,-27.889999999999997,426.03000000000003
2,1715411594710,3.07,-0.8,0.21000000000000002,-85.39,-27.890000000000004,426.03
3,1715411594720,2.998076923076923,-0.46,0.21,-125.84961538461539,38.23692307692308,347.5742307692308
4,1715411594730,2.96,-0.28,0.20999999999999996,-155.52,86.73,290.04
5,1715411594740,2.96,-0.28,0.21000000000000002,-155.52,86.73,290.04
6,1715411594750,3.0305970149253727,-0.30626865671641795,0.22149253731343282,-155.52,86.73,290.04
7,1715411594760,3.8200000000000003,-0.6,0.35,-191.82545454545456,107.21484848484849,126.15333333333334
8,1715411594770,3.82,-0.6,0.35,-201.6,112.73,82.03
9,1715411594780,3.82,-0.6,0.35,-201.6,112.73,82.03
10,1715411594790,3.8200000000000003,-0.6,0.35,-201.6,112.73000000000002,82.03
11,1715411594800,3.9770909090909092,-0.39054545454545453,0.5943636363636363,33.84072727272727,31.646666666666665,-133.25151515151515
12,1715411594810,4.0,-0.36,0.63,77.88,16.48,-173.52
13,1715411594820,4.0,-0.36,0.63,77.88,16.48,-173.52
14,1715411594830,4.0,-0.36,0.63,77.88,16.48,-173.51999999999998
15,1715411594840,4.069004739336493,-1.1535545023696683,0.03483412322274882,59.25796208530806,141.0914691943128,-267.52725118483414
16,1715411594850,4.08,-1.28,-0.06,54.63,172.06,-290.89
17,1715411594860,4.08,-1.28,-0.06,54.629999999999995,172.06000000000003,-290.89
18,1715411594870,4.08,-1.28,-0.060000000000000005,54.63,172.06,-290.89
19,1715411594880,3.2120754716981135,-0.8837735849056603,0.05320754716981132,7.213207547169811,174.8711320754717,-331.86867924528303
20,1715411594890,3.16,-0.86,0.06,1.16,175.23,-337.1000000000001
21,1715411594900,3.16,-0.86,0.06,1.16,175.23,-337.1
22,1715411594910,3.1350625,-0.8494999999999999,0.08056250000000001,1.16,175.23,-337.1
23,1715411594920,2.59,-0.62,0.53,85.27589147286822,114.68852713178295,-405.9474418604651
24,1715411594930,2.59,-0.62,0.53,100.71,103.58,-418.58
25,1715411594940,2.59,-0.62,0.53,100.70999999999998,103.58000000000001,-418.58
26,1715411594950,2.536375,-0.670875,0.52175,100.71,103.58,-418.58000000000004
27,1715411594960,2.2,-0.99,0.4699999999999999,116.36156249999999,159.07099999999997,-484.8730625
28,1715411594970,2.2,-0.99,0.4699999999999999,116.46,159.42,-485.29
29,1715411594980,2.2,-0.99,0.47,116.46,159.42,-485.29
30,1715411594990,2.2,-0.99,0.47,116.46,159.42,-485.29
31,1715411595000,2.10472049689441,-0.9606832298136645,0.4993167701863354,206.82161490683228,120.86111801242235,-534.674099378882
32,1715411595010,2.07,-0.9500000000000001,0.51,239.75,106.81,-552.67
33,1715411595020,2.07,-0.9499999999999998,0.51,239.75,106.81,-552.67
34,1715411595030,2.07,-0.95,0.51,239.75,106.81,-552.67
35,1715411595040,2.38,-1.33,0.66,144.1,187.13,-585.69
36,1715411595050,2.38,-1.33,0.66,144.1,187.13,-585.69
37,1715411595060,2.38,-1.33,0.66,144.1,187.13,-585.69
38,1715411595070,2.38,-1.581497005988024,0.5761676646706587,138.9377245508982,202.00532934131735,-600.7558682634731
39,1715411595080,2.38,-1.75,0.52,132.45,220.7,-619.69
40,1715411595090,2.38,-1.75,0.52,132.45,220.7,-619.69
41,1715411595100,2.288619246861925,-1.7848117154811716,0.47866108786610884,131.33410041841003,229.9030962343096,-613.2652301255231
42,1715411595110,1.96,-1.91,0.33,126.1,273.07,-583.13
43,1715411595120,1.96,-1.91,0.33,126.1,273.07,-583.13
44,1715411595130,1.96,-1.91,0.33,126.09999999999998,273.07,-583.13
45,1715411595140,1.96,-1.91,0.33,126.1,273.07,-583.13
46,1715411595150,0.8234502923976609,-2.1867251461988304,-0.5199415204678364,222.63508771929824,178.94719298245616,-567.9282456140351
47,1715411595160,0.81,-2.19,-0.53,236.15,165.77000000000004,-565.8
48,1715411595170,0.81,-2.19,-0.53,236.14999999999998,165.77,-565.8
49,1715411595180,0.6808620689655173,-2.21816091954023,-0.5907471264367816,236.15,165.77,-565.8
50,1715411595190,-2.4,-2.89,-2.04,280.0751748251748,47.77034965034965,-385.8048951048951
51,1715411595200,-2.4,-2.89,-2.04,290.77,19.04,-341.98
52,1715411595210,-2.4,-2.89,-2.04,290.77,19.04,-341.98
53,1715411595220,-2.4785833333333334,-2.738583333333333,-1.90775,281.8233333333333,12.369583333333333,-328.4379166666667
54,1715411595230,-2.81,-2.1,-1.35,76.05,-141.05,-16.97
55,1715411595240,-2.81,-2.1,-1.35,76.05,-141.05,-16.97
56,1715411595250,-2.81,-2.1,-1.35,76.05,-141.05,-16.97
57,1715411595260,-2.343235294117647,-1.5858823529411767,-0.7073529411764706,76.05,-141.05,-16.97
58,1715411595270,-2.12,-1.34,-0.4,-96.3341059602649,-60.31072847682119,272.37218543046356
59,1715411595280,-2.12,-1.34,-0.4,-113.95,-52.06,301.94
60,1715411595290,-2.12,-1.34,-0.4,-113.95,-52.06,301.94
61,1715411595300,-1.4925454545454546,-1.3338181818181818,-0.25163636363636366,-121.2639090909091,-55.687636363636365,356.00468181818184
62,1715411595310,-0.09,-1.32,0.08,-151.37,-70.62,578.55
63,1715411595320,-0.09,-1.32,0.08,-151.37,-70.62,578.55
64,1715411595330,-0.09,-1.32,0.08,-151.37,-70.62,578.55
65,1715411595340,0.9505970149253732,-1.6297014925373134,0.14813432835820897,-156.77805970149254,-73.6244776119403,659.6610447761194
66,1715411595350,1.59,-1.82,0.19,-162.35,-76.72,743.23
67,1715411595360,1.59,-1.82,0.19,-162.35,-76.72,743.23
68,1715411595370,1.59,-1.82,0.19,-162.35,-76.72,743.23
69,1715411595380,1.938,-2.18,0.20199999999999999,-146.47577777777778,-80.42088888888888,754.4157777777779
70,1715411595390,2.17,-2.42,0.21,-129.88,-84.29,766.11
71,1715411595400,2.17,-2.42,0.20999999999999996,-129.88,-84.29,766.11
72,1715411595410,2.17,-2.42,0.21,-129.88,-84.29,766.11
73,1715411595420,2.0170000000000003,-2.2670000000000003,0.183,-86.96324999999999,-83.259875,721.537875
74,1715411595430,2.0,-2.25,0.18,-46.14,-82.28,679.14
75,1715411595440,2.0,-2.25,0.18,-46.14,-82.28,679.14
76,1715411595450,1.9696815286624205,-2.2521656050955414,0.16484076433121017,-46.14,-82.28,679.14
77,1715411595460,1.7200000000000002,-2.27,0.04,-82.1525786163522,-55.35421383647799,641.031823899371
78,1715411595470,1.72,-2.27,0.04,-87.04,-51.7,635.86
79,1715411595480,1.72,-2.27,0.04,-87.04,-51.7,635.86
80,1715411595490,1.7774100719424462,-2.2579136690647483,0.032446043165467627,-85.37985611510793,-62.57575539568346,633.9868345323741
81,1715411595500,2.1,-2.19,-0.01,-61.4,-219.67000000000002,606.93
82,1715411595510,2.1,-2.19,-0.01,-61.39999999999999,-219.67,606.93
83,1715411595520,2.1,-2.19,-0.01,-61.4,-219.67,606.93
84,1715411595530,2.125217391304348,-1.909006211180124,0.06925465838509318,-88.10608695652174,-144.96043478260867,589.7578260869565
85,1715411595540,2.17,-1.41,0.21,-138.18,-4.88,557.56
86,1715411595550,2.17,-1.41,0.21000000000000002,-138.18,-4.88,557.56
87,1715411595560,2.17,-1.41,0.21,-138.18,-4.88,557.56
88,1715411595570,2.9002873563218388,-1.449022988505747,0.27132183908045976,-139.32988505747127,-33.58942528735632,498.4775862068965
89,1715411595580,3.48,-1.48,0.32,-140.62,-65.8,432.19
90,1715411595590,3.48,-1.48,0.32,-140.62,-65.8,432.19
91,1715411595600,3.5923684210526314,-1.3275,0.39625000000000005,-157.82723684210526,-6.750657894736841,400.30842105263156
92,1715411595610,3.76,-1.1,0.51,-192.93,113.71,335.27
93,1715411595620,3.76,-1.1,0.51,-192.93,113.71,335.27
94,1715411595630,3.76,-1.1,0.51,-192.93,113.71,335.2699999999999
95,1715411595640,3.68026455026455,-1.2377248677248678,0.2780423280423281,-145.0925396825397,14.469365079365074,140.26301587301586
96,1715411595650,3.65,-1.29,0.19000000000000003,-98.75,-81.67,-48.65
97,1715411595660,3.6500000000000004,-1.29,0.19,-98.75,-81.67,-48.65
98,1715411595670,3.65,-1.29,0.19,-98.75,-81.67,-48.65
99,1715411595680,3.9806818181818175,-1.3120454545454545,0.6162121212121212,-11.096969696969698,6.027045454545452,-153.68901515151515
100,1715411595690,4.1,-1.32,0.77,40.65,57.800000000000004,-215.70000000000002
101,1715411595700,4.1,-1.32,0.77,40.65,57.800000000000004,-215.70000000000002
102,1715411595710,3.9181451612903224,-1.3710080645161289,0.4683870967741936,42.748306451612905,97.6475,-230.73870967741934
103,1715411595720,3.28,-1.55,-0.59,53.04,293.09,-304.5
104,1715411595730,3.28,-1.55,-0.59,53.04,293.09,-304.5
105,1715411595740,3.28,-1.55,-0.59,53.04,293.09,-304.5
106,1715411595750,3.2404166666666665,-1.5383333333333333,-0.5754166666666667,54.64333333333333,289.69374999999997,-306.9795833333333
107,1715411595760,2.33,-1.2700000000000002,-0.24,130.0,130.07,-423.52
108,1715411595770,2.33,-1.27,-0.23999999999999996,130.0,130.07,-423.5199999999999
109,1715411595780,2.33,-1.27,-0.23999999999999996,130.0,130.07,-423.5199999999999
110,1715411595790,2.4215384615384616,-1.031346153846154,-0.06346153846153846,133.97948717948717,127.81230769230767,-426.23538461538465
111,1715411595800,2.61,-0.54,0.3,192.08,94.85,-465.88
112,1715411595810,2.61,-0.54,0.3,192.08,94.85,-465.88000000000005
113,1715411595820,2.61,-0.54,0.3,192.08,94.85,-465.88
114,1715411595830,2.59978102189781,-0.5808759124087591,0.29591240875912406,187.91372262773723,101.37992700729926,-474.0694890510949
115,1715411595840,2.51,-0.9399999999999998,0.26,151.31,158.75,-546.02
116,1715411595850,2.51,-0.94,0.26,151.31,158.75,-546.02
117,1715411595860,2.51,-0.94,0.26,151.31,158.75,-546.02
118,1715411595870,2.547258064516129,-1.0943548387096773,0.24403225806451614,140.9725806451613,200.01387096774195,-568.2664516129032
119,1715411595880,2.58,-1.23,0.23000000000000004,128.42,250.12000000000003,-595.28
120,1715411595890,2.58,-1.23,0.23,128.42,250.12,-595.28
121,1715411595900,2.58,-1.2299999999999998,0.22999999999999998,128.42,250.12,-595.28
122,1715411595910,2.503076923076923,-1.347948717948718,0.25564102564102564,151.2825,239.49083333333334,-602.4508333333333
123,1715411595920,2.43,-1.46,0.28,183.29,224.61,-612.49
124,1715411595930,2.43,-1.46,0.28,183.29,224.61,-612.49
125,1715411595940,2.43,-1.46,0.28,183.29,224.61,-612.49
126,1715411595950,2.473566878980892,-1.6996178343949042,0.4542675159235669,195.40961783439488,206.05853503184716,-627.0373248407643
127,1715411595960,2.49,-1.79,0.52,202.51,195.19,-635.56
128,1715411595970,2.49,-1.79,0.52,202.51,195.19,-635.56
129,1715411595980,2.49,-1.7899999999999998,0.52,202.51,195.19,-635.56
130,1715411595990,2.039090909090909,-1.9177575757575758,0.4749090909090909,321.52599999999995,117.16818181818182,-643.9512727272727
131,1715411596000,1.89,-1.96,0.46,384.34,75.99,-648.38
132,1715411596010,1.89,-1.96,0.46,384.34,75.99,-648.38
133,1715411596020,1.8900000000000001,-1.96,0.46,384.34,75.99,-648.38
134,1715411596030,0.5767924528301887,-2.0055974842767297,-0.04157232704402515,365.0701886792453,81.10792452830188,-578.525283018868
135,1715411596040,0.45,-2.01,-0.09,355.16,83.74,-542.6
136,1715411596050,0.45,-2.01,-0.09,355.16,83.74,-542.6
137,1715411596060,0.45,-2.01,-0.09,355.16,83.74,-542.6
138,1715411596070,-0.5744198895027623,-2.2479558011049723,-0.37635359116022105,305.648729281768,54.619613259668505,-469.5990607734807
139,1715411596080,-2.09,-2.6,-0.8,197.94,-8.73,-310.79
140,1715411596090,-2.09,-2.6,-0.8,197.94,-8.73,-310.79
141,1715411596100,-2.2438461538461536,-2.5323076923076924,-0.7230769230769231,167.05923076923077,-3.4592899408284032,-245.59059171597636
142,1715411596110,-2.59,-2.38,-0.55,48.83,16.72,4.03
143,1715411596120,-2.59,-2.38,-0.55,48.83,16.72,4.03
144,1715411596130,-2.59,-2.3799999999999994,-0.55,48.82999999999999,16.72,4.03
145,1715411596140,-1.9381415929203538,-2.056637168141593,-0.4165486725663717,-24.331769911504423,52.38283185840708,136.99159292035398
146,1715411596150,-1.32,-1.75,-0.29,-148.01,112.67,361.76
147,1715411596160,-1.32,-1.75,-0.29,-148.01,112.67,361.76
148,1715411596170,-1.32,-1.75,-0.29,-148.01,112.67000000000002,361.76
149,1715411596180,-0.34535211267605637,-1.6429577464788734,-0.08718309859154928,-265.24295774647885,124.35929577464789,471.4507042253521
150,1715411596190,0.4099999999999999,-1.56,0.07,-392.82,137.08,590.82
151,1715411596200,0.41,-1.5599999999999998,0.07,-392.82,137.08,590.82
152,1715411596210,0.41,-1.56,0.07,-392.82,137.08,590.82
153,1715411596220,0.9810404624277457,-1.944971098265896,0.11491329479768787,-463.65687861271675,50.55653179190752,631.2454335260117
154,1715411596230,1.3,-2.16,0.14,-523.19,-22.16,665.22
155,1715411596240,1.3,-2.16,0.14,-523.19,-22.16,665.22
156,1715411596250,1.3,-2.16,0.14,-523.19,-22.16,665.22
157,1715411596260,1.907008547008547,-2.9119658119658123,0.17623931623931624,-430.6159829059829,-229.39589743589744,681.4418803418803
158,1715411596270,1.97,-2.99,0.18,-405.46,-285.71,685.85
159,1715411596280,1.9699999999999998,-2.99,0.18,-405.4599999999999,-285.71,685.85
160,1715411596290,1.9699999999999998,-2.99,0.18,-405.46,-285.71,685.85
161,1715411596300,2.414478527607362,-2.6442944785276077,0.19975460122699387,-165.9678527607362,-374.8738036809816,659.9066871165645
162,1715411596310,2.42,-2.64,0.2,-130.55,-388.06,656.07
163,1715411596320,2.42,-2.64,0.19999999999999998,-130.55,-388.06,656.07
164,1715411596330,2.4265454545454546,-2.5985454545454543,0.1781818181818182,-116.56127272727274,-388.55963636363634,651.9747272727273
165,1715411596340,2.48,-2.26,-2.32,-392.64,618.53
166,1715411596350,2.48,-2.26,-2.32,-392.64,618.53
167,1715411596360,2.48,-2.26,-2.32,-392.64,618.53
168,1715411596370,2.781948051948052,-1.9298701298701297,0.1731168831168831,20.396558441558444,-356.0761038961039,603.4305844155843
169,1715411596380,3.23,-1.44,0.43,110.53,-211.0,543.52
170,1715411596390,3.23,-1.44,0.42999999999999994,110.53,-211.0,543.52
171,1715411596400,3.23,-1.44,0.43,110.53000000000002,-211.0,543.52
172,1715411596410,3.381875,-0.25875,-0.38843750000000005,-59.956875,62.89375,497.150625
173,1715411596420,3.41,-0.04,-0.54,-99.3,126.09999999999998,486.45000000000005
174,1715411596430,3.41,-0.04,-0.54,-99.3,126.10000000000001,486.45
175,1715411596440,3.41,-0.04,-0.54,-99.3,126.1,486.45
176,1715411596450,4.041898734177215,-0.0035443037974683548,-0.42455696202531645,-73.01601265822785,96.87335443037975,304.18462025316455
177,1715411596460,4.45,0.02,-0.35,-48.03,69.09,130.92
178,1715411596470,4.45,0.02,-0.35,-48.03,69.09,130.92
179,1715411596480,4.45,0.020000000000000004,-0.35,-48.03,69.09,130.92
180,1715411596490,4.366470588235294,-0.04682352941176471,0.04258823529411765,-47.14611764705882,55.069529411764705,100.57294117647058
181,1715411596500,4.35,-0.06,0.12,-41.2,-39.25,-103.58
182,1715411596510,4.35,-0.060000000000000005,0.12000000000000001,-41.2,-39.25,-103.57999999999998
183,1715411596520,4.314339622641509,-0.12339622641509435,0.11537735849056605,-41.20000000000001,-39.25,-103.58
184,1715411596530,3.8100000000000005,-1.02,0.05,-41.2,-39.25,-103.57999999999998
185,1715411596540,3.81,-1.02,0.05,-1.0800000000000007,96.00999999999998,-209.33333333333334
186,1715411596550,3.81,-1.02,0.05,18.98,163.64,-262.21
187,1715411596560,3.81,-1.02,0.05,18.98,163.64,-262.21
188,1715411596570,3.1465079365079363,-0.7755555555555557,-0.6047619047619047,18.55481481481481,145.57396825396825,-320.5731746031746
189,1715411596580,3.05,-0.74,-0.7,18.49,142.82,-329.47
190,1715411596590,3.05,-0.74,-0.7,18.49,142.82,-329.47
191,1715411596600,2.9609375,-0.7150624999999999,-0.38649999999999995,14.4079375,115.96499999999999,-350.60037500000004
192,1715411596610,2.8,-0.67,0.18,2.56,38.02,-411.92999999999995
193,1715411596620,2.8,-0.67,0.18,2.56,38.02,-411.93
194,1715411596630,2.8,-0.67,0.18,2.56,38.02,-411.93
195,1715411596640,2.72875,-0.5275000000000001,0.26015625,3.405859375,44.98515625,-413.1703125
196,1715411596650,2.56,-0.19,0.45,14.59,137.08,-429.57
197,1715411596660,2.56,-0.19,0.45,14.59,137.08,-429.57
198,1715411596670,2.56,-0.19,0.45,14.59,137.08,-429.57
199,1715411596680,2.281068702290076,-0.4822137404580153,0.42343511450381677,48.72358778625955,164.8340076335878,-500.33106870229005
200,1715411596690,2.14,-0.63,0.4099999999999999,68.79,181.15,-541.93
201,1715411596700,2.14,-0.63,0.41,68.79,181.15,-541.93
202,1715411596710,2.14,-0.63,0.41,68.79,181.15,-541.93
203,1715411596720,2.2219718309859156,-0.787112676056338,0.5124647887323944,120.82859154929578,152.173661971831,-557.6116901408451
204,1715411596730,2.26,-0.86,0.56,166.02,127.01,-571.23
205,1715411596740,2.26,-0.86,0.56,166.02,127.01,-571.23
206,1715411596750,2.26,-0.8599999999999999,0.56,166.02,127.01,-571.23
207,1715411596760,2.2981021897810217,-1.171167883211679,0.56,142.3178102189781,149.53846715328467,-607.0840145985401
208,1715411596770,2.32,-1.35,0.56,125.43,165.59,-632.63
209,1715411596780,2.32,-1.35,0.56,125.43000000000002,165.59,-632.63
210,1715411596790,2.32,-1.35,0.56,125.42999999999999,165.59,-632.63
211,1715411596800,2.0678260869565217,-1.5265217391304347,0.408695652173913,138.22028985507248,186.78159420289856,-606.4926086956523
212,1715411596810,2.02,-1.56,0.38,141.05,191.47,-600.71
213,1715411596820,2.02,-1.56,0.38,141.05,191.47,-600.71
214,1715411596830,2.02,-1.56,0.38,141.05,191.47,-600.71
215,1715411596840,1.7374603174603174,-1.6742857142857144,0.27206349206349206,158.54084656084657,176.18931216931216,-589.6966666666666
216,1715411596850,1.13,-1.92,0.04,197.08,142.52,-565.43
217,1715411596860,1.13,-1.92,0.04,197.08,142.52,-565.43
218,1715411596870,-0.11519480519480522,-2.1253246753246753,-0.4633766233766234,197.587012987013,145.8155844155844,-500.82324675324674
219,1715411596880,-0.75,-2.23,-0.72,198.3,150.45,-409.97
220,1715411596890,-0.75,-2.23,-0.72,198.3,150.45,-409.97
221,1715411596900,-0.75,-2.23,-0.72,198.3,150.45,-409.97
222,1715411596910,-1.410792079207921,-2.1695049504950497,-1.069009900990099,117.7851485148515,121.63811881188117,-292.2511881188119
223,1715411596920,-2.17,-2.1,-1.4699999999999998,-5.0,77.7,-112.73
224,1715411596930,-2.17,-2.1,-1.47,-5.0,77.7,-112.73
225,1715411596940,-2.17,-2.1,-1.47,-5.0,77.7,-112.73
226,1715411596950,-2.112753623188406,-1.9683333333333333,-1.2181159420289855,-26.383478260869566,63.49000000000001,-24.329130434782616
227,1715411596960,-2.07,-1.87,-1.03,-75.26,31.01,177.73
228,1715411596970,-2.07,-1.87,-1.03,-75.26,31.01,177.73
229,1715411596980,-2.07,-1.87,-1.03,-75.26,31.009999999999998,177.73
230,1715411596990,-1.0056521739130435,-1.5917391304347825,-0.5221739130434783,-191.70538043478263,39.572826086956525,373.44619565217397
231,1715411597000,-0.54,-1.4699999999999998,-0.3,-255.31,44.25,480.35
232,1715411597010,-0.54,-1.47,-0.3,-255.31,44.25,480.35
233,1715411597020,-0.54,-1.47,-0.3,-255.31,44.25,480.35
234,1715411597030,0.7012987012987013,-1.8071428571428572,0.006493506493506501,-409.0138961038961,17.007402597402596,601.320909090909
235,1715411597040,1.08,-1.91,0.1,-482.91,3.91,659.48
236,1715411597050,1.08,-1.91,0.1,-482.91,3.9099999999999997,659.48
237,1715411597060,1.08,-1.9099999999999997,0.1,-482.91,3.91,659.48
238,1715411597070,1.8302793296089386,-2.7397206703910615,0.18826815642458103,-466.0343575418995,-157.18754189944133,713.9486033519553
239,1715411597080,1.93,-2.85,0.2,-462.21999999999997,-193.6,726.26
240,1715411597090,1.93,-2.85,0.2,-462.22,-193.6,726.26
241,1715411597100,1.9475,-2.862045454545455,0.2009090909090909,-457.89477272727277,-198.69795454545454,727.4404545454546
242,1715411597110,2.7,-3.38,0.23999999999999996,-271.91,-417.91,778.2
243,1715411597120,2.7,-3.38,0.24,-271.91,-417.91,778.2
244,1715411597130,2.7,-3.38,0.24,-271.91,-417.91,778.2
245,1715411597140,2.7,-3.38,0.24,-271.91,-417.9100000000001,778.2
246,1715411597150,2.6852173913043482,-2.685217391304348,-0.04826086956521739,-112.12478260869565,-419.52869565217395,729.3878260869566
247,1715411597160,2.68,-2.44,-0.15,-55.73,-420.1,712.16
248,1715411597170,2.68,-2.44,-0.15,-55.73,-420.1,712.16
249,1715411597180,3.2119333333333335,-1.9449333333333334,0.5926,-58.43433333333333,-318.0876666666667,662.3433333333334
250,1715411597190,3.69,-1.5,1.26,-62.38,-169.25,589.66
251,1715411597200,3.6899999999999995,-1.5,1.26,-62.38000000000001,-169.25,589.66
252,1715411597210,3.6899999999999995,-1.5,1.26,-62.38,-169.25,589.66
253,1715411597220,2.8570068027210884,-1.0539455782312925,0.21204081632653066,-39.832857142857144,-60.30285714285714,529.9685714285714
254,1715411597230,2.14,-0.67,-0.69,-9.77,84.96,450.38
255,1715411597240,2.14,-0.67,-0.69,-9.77,84.96,450.38000000000005
256,1715411597250,2.14,-0.67,-0.69,-9.77,84.96,450.38
257,1715411597260,3.245681818181818,-0.37568181818181823,0.08159090909090913,-114.2975,46.401666666666664,366.7475
258,1715411597270,3.53,-0.3,0.28,-188.96,18.86,307.01
259,1715411597280,3.5300000000000002,-0.3,0.28,-188.96,18.86,307.01
260,1715411597290,3.487303370786517,-0.3298876404494382,0.2767977528089888,-185.20876404494385,15.887865168539326,299.8365168539326
261,1715411597300,3.1299999999999994,-0.58,0.25,-22.03,-113.4,-12.21
262,1715411597310,3.1299999999999994,-0.58,0.25,-22.029999999999998,-113.4,-12.21
263,1715411597320,3.13,-0.58,0.25,-22.03,-113.4,-12.21
264,1715411597330,3.13,-0.58,0.25,-22.03,-113.39999999999999,-12.21
265,1715411597340,3.765,-0.8545945945945946,0.6361486486486486,-2.2150000000000003,21.727499999999996,-138.2325
266,1715411597350,3.87,-0.9,0.7,4.39,66.77,-180.24
267,1715411597360,3.87,-0.9,0.7,4.39,66.77,-180.24000000000004
268,1715411597370,3.87,-0.9,0.7,4.39,66.77,-180.24
269,1715411597380,3.4723493975903614,-1.7243975903614457,-0.49295180722891563,49.996506024096384,263.33939759036144,-287.03421686746987
270,1715411597390,3.4599999999999995,-1.75,-0.53,52.919999999999995,275.94,-293.88
271,1715411597400,3.4600000000000004,-1.75,-0.53,52.92,275.94,-293.88
272,1715411597410,3.46,-1.75,-0.53,52.92,275.94,-293.88
273,1715411597420,3.1683783783783785,-1.5406306306306305,-0.43279279279279276,42.74315315315315,181.148018018018,-345.59423423423425
274,1715411597430,3.07,-1.47,-0.4,39.31,149.17,-363.04
275,1715411597440,3.0700000000000003,-1.47,-0.4,39.31,149.17,-363.04
276,1715411597450,2.9139999999999997,-1.42,-0.278,44.018571428571434,144.07742857142858,-370.3851428571429
277,1715411597460,2.29,-1.22,0.21,80.51,104.61,-427.31
278,1715411597470,2.29,-1.22,0.21,80.51,104.61,-427.31
279,1715411597480,2.29,-1.22,0.21,80.51,104.61,-427.31
280,1715411597490,2.1504273504273503,-0.8316239316239316,0.2888888888888889,112.49461538461539,101.69034188034189,-448.56128205128203
281,1715411597500,2.06,-0.58,0.34,133.97,99.73000000000002,-462.8299999999999
282,1715411597510,2.06,-0.58,0.34,133.97,99.73,-462.8299999999999
283,1715411597520,2.0397014925373136,-0.6170149253731343,0.3686567164179105,136.294776119403,101.36641791044777,-467.7673134328358
284,1715411597530,1.89,-0.89,0.58,172.91,127.14,-545.53
285,1715411597540,1.8900000000000001,-0.8900000000000001,0.58,172.91,127.14,-545.53
286,1715411597550,1.89,-0.89,0.58,172.91,127.14,-545.53
287,1715411597560,1.8899999999999997,-0.89,0.58,172.91,127.13999999999999,-545.53
288,1715411597570,1.9096825396825394,-0.9982539682539683,0.4028571428571429,159.29222222222222,147.59333333333336,-539.458888888889
289,1715411597580,1.9099999999999997,-1.0,0.4,157.59,150.15,-538.7
290,1715411597590,1.91,-1.0,0.4,157.59,150.15,-538.7
291,1715411597600,1.91,-1.0,0.4,157.59,150.15,-538.7
292,1715411597610,2.099928057553957,-1.0854676258992808,0.47597122302158273,175.7376258992806,126.581654676259,-572.5568345323741
293,1715411597620,2.11,-1.09,0.48,177.61,124.15,-576.05
294,1715411597630,2.11,-1.09,0.48,177.61,124.15,-576.05
295,1715411597640,2.102222222222222,-1.1269444444444445,0.4702777777777778,176.91486111111112,126.86666666666666,-577.8090277777778
296,1715411597650,2.07,-1.28,0.43,167.6,163.27,-601.38
297,1715411597660,2.07,-1.28,0.43,167.6,163.27,-601.38
298,1715411597670,2.07,-1.28,0.43,167.6,163.27,-601.38
299,1715411597680,1.977536231884058,-1.3055072463768116,0.3981159420289855,166.94108695652173,160.1763043478261,-597.6273913043478
300,1715411597690,1.49,-1.44,0.23,163.27,142.94,-576.72
301,1715411597700,1.49,-1.44,0.23,163.27,142.94,-576.72
302,1715411597710,1.49,-1.44,0.22999999999999998,163.27,142.94,-576.72
303,1715411597720,0.3597247706422018,-1.8921100917431193,-0.27862385321100913,219.62128440366973,137.89614678899082,-549.6428440366973
304,1715411597730,-0.11,-2.08,-0.49,243.04,135.8,-538.39
305,1715411597740,-0.10999999999999999,-2.08,-0.48999999999999994,243.03999999999996,135.8,-538.39
306,1715411597750,-0.11000000000000001,-2.08,-0.48999999999999994,243.03999999999996,135.8,-538.39
307,1715411597760,-0.665,-2.099044117647059,-0.7974264705882353,213.2005882352941,97.40977941176472,-453.2383088235294
308,1715411597770,-2.15,-2.15,-1.62,133.36,-5.31,-225.39999999999998
309,1715411597780,-2.15,-2.15,-1.62,133.36,-5.31,-225.4
310,1715411597790,-2.205975609756097,-2.1280487804878048,-1.5903658536585366,130.8776829268293,-5.345,-221.8369512195122
311,1715411597800,-2.66,-1.95,-1.35,-70.19,-8.18,66.77
312,1715411597810,-2.66,-1.95,-1.35,-70.19,-8.18,66.77
313,1715411597820,-2.66,-1.95,-1.35,-70.19,-8.18,66.77
314,1715411597830,-2.3550531914893615,-1.8524999999999998,-1.2130851063829788,-70.19,-8.18,66.77
315,1715411597840,-1.19,-1.48,-0.69,-206.7492715231788,-62.56940397350993,342.8269536423841
316,1715411597850,-1.19,-1.48,-0.69,-212.40000000000003,-64.82,354.25
317,1715411597860,-1.19,-1.48,-0.6900000000000001,-212.4,-64.82,354.25
318,1715411597870,-0.7669072164948454,-1.5468041237113401,-0.47969072164948445,-221.73865979381443,-67.68515463917525,371.8
319,1715411597880,0.52,-1.75,0.16,-313.05,-95.7,543.4
320,1715411597890,0.52,-1.75,0.16,-313.05,-95.7,543.4
321,1715411597900,0.52,-1.75,0.16,-313.05,-95.7,543.4
322,1715411597910,0.7014285714285714,-1.8557142857142859,0.17285714285714285,-320.5657142857143,-100.86285714285715,573.4114285714285
323,1715411597920,,,,,,
324,1715411597930,,,,,,
325,1715411597940,1.79,-2.49,0.25,-365.66,-131.84,753.48
326,1715411597950,1.79,-2.49,0.25,-365.66,-131.84,753.48
327,1715411597960,2.265,-2.768448275862069,-0.07758620689655173,-218.56620689655173,-301.5829310344828,787.7575862068966
328,1715411597970,2.37,-2.83,-0.15,-184.14,-341.31,795.78
329,1715411597980,2.37,-2.83,-0.15,-184.14,-341.31,795.78
330,1715411597990,2.3916,-2.506,-0.1824,-44.65733333333333,-387.1766666666667,718.9533333333334
331,1715411598000,2.41,-2.23,-0.21,77.39,-427.31,651.73
332,1715411598010,2.41,-2.23,-0.21,77.39,-427.31,651.73
333,1715411598020,2.41,-2.23,-0.21,77.39,-427.31,651.73
334,1715411598030,2.4839837398373983,-1.8442276422764228,-0.2364227642276423,139.83756097560976,-386.729918699187,616.4450406504066
335,1715411598040,2.55,-1.5,-0.26,195.55999999999997,-350.52,584.96
336,1715411598050,2.55,-1.5,-0.26,195.56,-350.52,584.96
337,1715411598060,2.5860975609756096,-1.026219512195122,0.07841463414634146,156.34,-243.66670731707316,523.9325609756098
338,1715411598070,2.63,-0.45,0.49,108.64,-113.71000000000001,449.7099999999999
339,1715411598080,2.63,-0.45,0.49,108.64,-113.71,449.71
340,1715411598090,2.63,-0.45,0.49,108.64,-113.71,449.71
341,1715411598100,2.6041704035874442,-0.6996860986547085,-0.24183856502242151,-61.44304932735426,147.8332286995516,512.3709865470852
342,1715411598110,2.6,-0.7400000000000001,-0.36,-192.38,349.18,560.61
343,1715411598120,2.6,-0.74,-0.36000000000000004,-192.38,349.18,560.61
344,1715411598130,2.6,-0.74,-0.36,-192.38,349.18,560.61
345,1715411598140,3.651769230769231,-0.7834615384615385,0.16153846153846155,-188.70953846153847,178.7526923076923,380.6844615384615
346,1715411598150,3.81,-0.79,0.24000000000000002,-186.34,68.73,264.53
347,1715411598160,3.81,-0.79,0.24,-186.34,68.73,264.53
348,1715411598170,3.797931034482759,-0.7434482758620691,0.22620689655172413,-179.08558620689655,63.41724137931035,251.52110344827585
349,1715411598180,3.74,-0.52,0.16000000000000003,-36.07,-41.32,-4.94
350,1715411598190,3.74,-0.52,0.16,-36.07,-41.32,-4.94
351,1715411598200,3.74,-0.52,0.16,-36.07,-41.32,-4.94
352,1715411598210,3.908673469387755,-0.906173469387755,0.34198979591836737,10.50163265306122,-25.252040816326527,-105.52928571428572
353,1715411598220,4.12,-1.39,0.57,70.07,-4.7,-234.19
354,1715411598230,4.12,-1.39,0.57,70.07,-4.7,-234.19
355,1715411598240,4.12,-1.39,0.57,70.07,-4.7,-234.19
356,1715411598250,3.8402870813397127,-1.347511961722488,0.19468899521531097,45.361770334928224,101.95684210526318,-239.8413875598086
357,1715411598260,3.33,-1.27,-0.48999999999999994,-0.67,300.66,-250.37000000000003
358,1715411598270,3.3300000000000005,-1.27,-0.48999999999999994,-0.67,300.66,-250.37000000000003
359,1715411598280,3.33,-1.2699999999999998,-0.49,-0.67,300.66,-250.37
360,1715411598290,2.5715533980582523,-1.0620388349514562,-0.43495145631067966,44.42087378640777,197.36825242718447,-316.77223300970877
361,1715411598300,2.09,-0.9300000000000002,-0.4,80.81,114.01,-370.36
362,1715411598310,2.09,-0.93,-0.4,80.81,114.01,-370.36
363,1715411598320,2.09,-0.9300000000000002,-0.4,80.81,114.01,-370.36000000000007
364,1715411598330,1.9319587628865977,-0.561237113402062,0.11175257731958764,121.87814432989691,12.961443298969073,-397.5054639175258
365,1715411598340,1.88,-0.44,0.28,135.38,-20.26,-406.43
366,1715411598350,1.88,-0.44000000000000006,0.28,135.38,-20.26,-406.43
367,1715411598360,1.8824358974358972,-0.4217307692307693,0.28974358974358977,133.00102564102565,-16.525897435897438,-407.0748717948718
368,1715411598370,1.9,-0.29,0.36000000000000004,42.60000000000001,125.37,-431.58
369,1715411598380,1.9,-0.29,0.36,42.6,125.37,-431.58
370,1715411598390,1.9,-0.29,0.36,42.6,125.37,-431.58
371,1715411598400,1.8982481751824818,-0.36182481751824813,0.3494890510948905,50.720729927007305,124.06605839416058,-438.13182481751824
372,1715411598410,1.8900000000000001,-0.7000000000000001,0.3,143.74,109.12999999999998,-513.18
373,1715411598420,1.89,-0.7,0.3,143.74,109.13,-513.18
374,1715411598430,1.89,-0.7,0.3,143.74,109.13,-513.18
375,1715411598440,2.0136559139784946,-0.7445161290322581,0.31483870967741934,135.02989247311828,116.48075268817203,-523.6920430107526
376,1715411598450,2.39,-0.88,0.36,85.88,157.96,-583.01
377,1715411598460,2.39,-0.8799999999999999,0.36,85.88,157.96,-583.01
378,1715411598470,2.39,-0.8800000000000001,0.36,85.88,157.96,-583.01
379,1715411598480,2.39,-0.88,0.36,85.88,157.96,-583.01
380,1715411598490,2.45,-1.3,0.49000000000000005,92.45269736842106,201.9178947368421,-596.8613157894737
381,1715411598500,2.45,-1.3,0.48999999999999994,92.77,204.04,-597.53
382,1715411598510,2.45,-1.3,0.49000000000000005,92.77,204.04,-597.53
383,1715411598520,2.1056521739130436,-1.4001739130434783,0.35852173913043484,131.88478260869564,181.03234782608695,-611.606
384,1715411598530,1.9,-1.46,0.28,180.97,152.16,-629.27
385,1715411598540,1.9,-1.46,0.28,180.97,152.16,-629.27
386,1715411598550,1.9,-1.46,0.28,180.97,152.16,-629.27
387,1715411598560,1.0274829931972789,-1.501156462585034,0.03306122448979592,210.01061224489794,133.71680272108844,-610.1405442176871
388,1715411598570,0.84,-1.51,-0.02,224.98,124.21,-600.28
389,1715411598580,0.84,-1.51,-0.02,224.98,124.21,-600.28
390,1715411598590,0.84,-1.51,-0.02,224.98,124.20999999999998,-600.28
391,1715411598600,-0.6735135135135135,-1.5402702702702704,-0.4135135135135135,194.59128378378378,107.32783783783783,-503.5785135135135
392,1715411598610,-1.16,-1.5500000000000003,-0.54,151.25,83.25,-365.66
393,1715411598620,-1.16,-1.55,-0.54,151.25,83.25,-365.66
394,1715411598630,-1.2079487179487178,-1.5666666666666669,-0.5612820512820513,151.25,83.25,-365.66
395,1715411598640,-3.03,-2.2,-1.37,10.192152466367713,104.80560538116593,-112.82188340807176
396,1715411598650,-3.03,-2.2,-1.37,1.46,106.14,-97.16999999999999
397,1715411598660,-3.03,-2.2,-1.37,1.46,106.14,-97.17
398,1715411598670,-2.80032967032967,-2.183076923076923,-1.3047252747252747,-24.546538461538464,96.40137362637363,-30.192692307692305
399,1715411598680,-2.08,-2.13,-1.1,-141.97,52.43,272.22
400,1715411598690,-2.08,-2.13,-1.1,-141.97,52.43,272.22
401,1715411598700,-2.08,-2.13,-1.1,-141.97,52.43,272.22
402,1715411598710,-0.5918604651162791,-1.8851162790697675,-0.4658139534883721,-226.80612403100776,34.92240310077519,423.7880620155039
403,1715411598720,0.29,-1.74,-0.09,-289.86,21.91,536.44
404,1715411598730,0.29,-1.7399999999999998,-0.09,-289.86,21.91,536.44
405,1715411598740,0.29,-1.74,-0.09,-289.86,21.91,536.44
406,1715411598750,0.8232167832167832,-1.9106293706293709,0.046503496503496514,-323.5271328671329,8.816293706293706,580.2469930069931
407,1715411598760,1.54,-2.14,0.22999999999999998,-410.22,-24.9,693.05
408,1715411598770,1.54,-2.14,0.23000000000000004,-410.22,-24.899999999999995,693.05
409,1715411598780,1.54,-2.14,0.23,-410.22,-24.9,693.05
410,1715411598790,1.7734722222222221,-2.3336111111111113,0.11611111111111111,-321.1701388888889,-135.14520833333333,691.6609722222222
411,1715411598800,1.95,-2.48,0.03,-234.56,-242.37,690.31
412,1715411598810,1.95,-2.48,0.03,-234.56,-242.37,690.31
413,1715411598820,1.9499999999999997,-2.48,0.03,-234.56,-242.37,690.31
414,1715411598830,2.0924657534246576,-2.2573972602739727,0.24369863013698634,-149.39986301369865,-313.0245205479452,671.9156164383561
415,1715411598840,2.11,-2.23,0.27,-102.29,-352.11,661.74
416,1715411598850,2.11,-2.23,0.27,-102.29,-352.11,661.74
417,1715411598860,2.11,-2.23,0.27,-102.29,-352.11,661.74
418,1715411598870,2.0545283018867924,-2.0450943396226413,-0.0350943396226415,-80.15918238993711,-337.26849056603777,673.886855345912
419,1715411598880,2.05,-2.03,-0.060000000000000005,-65.25,-327.27,682.07
420,1715411598890,2.05,-2.03,-0.06,-65.25,-327.27,682.07
421,1715411598900,2.298,-1.888,0.06599999999999999,-56.76978378378378,-317.01594594594593,664.2135675675676
422,1715411598910,3.29,-1.32,0.57,-9.22,-259.52,564.09
423,1715411598920,3.29,-1.32,0.57,-9.22,-259.52,564.09
424,1715411598930,3.29,-1.32,0.57,-9.22,-259.52,564.09
425,1715411598940,3.4382926829268294,-0.8689430894308944,0.38463414634146337,-9.22,-259.52,564.09
426,1715411598950,3.77,0.14,-0.029999999999999995,-129.28890322580648,106.09445161290324,523.4425161290322
427,1715411598960,3.77,0.14,-0.03,-150.21,169.8,516.36
428,1715411598970,3.77,0.14,-0.029999999999999995,-150.21,169.8,516.36
429,1715411598980,3.887485380116959,-0.060584795321637436,0.06456140350877193,-166.3685380116959,169.48479532163745,416.33695906432746
430,1715411598990,4.18,-0.56,0.3,-206.59999999999997,168.7,167.3
431,1715411599000,4.18,-0.56,0.3,-206.59999999999997,168.7,167.3
432,1715411599010,4.18,-0.56,0.3,-206.59999999999997,168.7,167.3
433,1715411599020,4.195555555555556,-0.5444444444444444,0.3497777777777778,-117.59299999999999,80.18799999999999,54.836000000000006
434,1715411599030,4.23,-0.51,0.46,90.09,-126.34,-207.58
435,1715411599040,4.23,-0.51,0.45999999999999996,90.09,-126.33999999999999,-207.58
436,1715411599050,4.23,-0.51,0.46,90.09,-126.34,-207.58000000000004
437,1715411599060,3.9394545454545455,-1.0972727272727272,0.15709090909090911,92.11830303030304,-46.134424242424245,-239.75369696969696
438,1715411599070,3.76,-1.46,-0.03,96.92,143.74,-315.92
439,1715411599080,3.76,-1.46,-0.03,96.92,143.74,-315.92
440,1715411599090,3.76,-1.46,-0.03,96.92,143.74,-315.92
441,1715411599100,3.7599999999999993,-1.46,-0.03,96.92,143.74,-315.92
442,1715411599110,3.76,-1.46,-0.03,96.92,143.74,-315.92
443,1715411599120,3.7599999999999993,-1.46,-0.03,96.92,143.74,-315.92
444,1715411599130,3.441875,-1.1156944444444443,-0.26104166666666667,65.11576388888889,155.88479166666667,-337.14215277777777
445,1715411599140,2.95,-0.72,-0.06,39.43,95.83,-450.81
446,1715411599150,2.95,-0.72,-0.060000000000000005,39.43000000000001,95.83,-450.80999999999995
447,1715411599160,2.95,-0.7199999999999999,-0.060000000000000005,39.43,95.83,-450.80999999999995
448,1715411599170,2.847861635220126,-0.6794968553459119,-0.015974842767295595,40.713018867924525,98.02698113207546,-451.1805660377359
449,1715411599180,2.37,-0.49,0.19,73.43,154.05,-460.63
450,1715411599190,2.37,-0.49,0.19,73.43,154.05,-460.63
451,1715411599200,2.37,-0.49,0.19,73.43,154.05,-460.63
452,1715411599210,2.0269090909090908,-0.8263636363636364,0.1429090909090909,91.59663636363638,168.32263636363638,-501.0289090909091
453,1715411599220,1.86,-0.9900000000000001,0.12,107.29999999999998,180.66,-535.95
454,1715411599230,1.86,-0.99,0.12,107.3,180.66,-535.95
455,1715411599240,1.86,-0.99,0.12,107.3,180.66,-535.95
456,1715411599250,1.8001639344262295,-0.9421311475409836,0.239672131147541,144.44098360655738,141.50459016393444,-537.7440983606557
457,1715411599260,1.76,-0.91,0.32,178.1,106.02,-539.37
458,1715411599270,1.7599999999999998,-0.9099999999999999,0.32,178.1,106.02,-539.37
459,1715411599280,1.789954954954955,-0.9273423423423424,0.33418918918918916,176.90306306306306,106.24702702702703,-541.8445945945946
460,1715411599290,1.9499999999999997,-1.02,0.4099999999999999,159.12,109.62,-578.61
461,1715411599300,1.95,-1.02,0.41,159.12,109.62,-578.61
462,1715411599310,1.9499999999999997,-1.02,0.41,159.12,109.62,-578.61
463,1715411599320,1.944705882352941,-1.1179411764705882,0.3967647058823529,154.49142857142857,113.4236974789916,-583.8920168067226
464,1715411599330,1.93,-1.39,0.36,136.17,128.48,-604.8
465,1715411599340,1.9300000000000002,-1.39,0.36,136.17,128.48,-604.8
466,1715411599350,1.93,-1.39,0.36,136.17,128.48,-604.8
467,1715411599360,1.93,-1.39,0.36,136.17,128.48,-604.8
468,1715411599370,1.6415822784810128,-1.39,0.28556962025316457,96.86949367088607,120.68303797468353,-583.3326582278481
469,1715411599380,1.62,-1.39,0.28,82.64,117.86,-575.56
470,1715411599390,1.62,-1.39,0.28,82.64,117.85999999999999,-575.56
471,1715411599400,1.4604790419161677,-1.4877245508982035,0.18443113772455091,84.06131736526946,126.55245508982036,-568.2270658682635
472,1715411599410,-0.6,-2.75,-1.05,102.42,238.83,-473.51000000000005
473,1715411599420,-0.6,-2.75,-1.05,102.42,238.83000000000004,-473.50999999999993
474,1715411599430,-0.6,-2.75,-1.05,102.42,238.82999999999998,-473.51000000000005
475,1715411599440,-1.07453488372093,-2.469593023255814,-1.2656976744186048,111.01604651162792,169.65558139534886,-409.8779069767442
476,1715411599450,-2.14,-1.84,-1.75,143.49,-91.67,-169.49
477,1715411599460,-2.14,-1.84,-1.75,143.49,-91.67,-169.49
478,1715411599470,-2.14,-1.84,-1.75,143.49,-91.66999999999999,-169.49
479,1715411599480,-2.5266386554621847,-1.74109243697479,-0.9407563025210084,16.02873949579832,-78.83991596638656,12.348319327731092
480,1715411599490,-2.57,-1.73,-0.85,-12.88,-75.93,53.59
481,1715411599500,-2.57,-1.73,-0.85,-12.88,-75.93,53.59000000000001
482,1715411599510,-2.57,-1.73,-0.85,-12.88,-75.93,53.59
483,1715411599520,-1.9873780487804877,-1.576341463414634,-0.5170731707317073,-178.0409756097561,-31.950731707317075,234.42963414634147
484,1715411599530,-1.66,-1.49,-0.33,-313.84,4.21,383.11999999999995
485,1715411599540,,,,,,
486,1715411599550,-1.66,-1.49,-0.33,-313.84,4.21,383.12
487,1715411599560,0.16717647058823532,-1.9320588235294116,-0.015647058823529413,-362.54076470588234,-125.26276470588235,580.0648823529413
488,1715411599570,0.2,-1.94,-0.01,-365.91,-134.22,593.69
489,1715411599580,0.2,-1.94,-0.01,-365.91,-134.22,593.69
490,1715411599590,0.2,-1.94,-0.01,-365.91,-134.22,593.69
491,1715411599600,2.0174719101123593,-2.7952808988764044,0.1552247191011236,-227.39573033707867,-281.77921348314607,738.4905056179775
492,1715411599610,2.07,-2.82,0.16,-212.77,-297.36,753.78
493,1715411599620,2.07,-2.82,0.16,-212.77,-297.36,753.78
494,1715411599630,2.2070954356846473,-2.7318672199170124,0.08900414937759336,-141.4803734439834,-322.612489626556,753.1532780082988
495,1715411599640,2.63,-2.46,-0.13,78.43,-400.51,751.22
496,1715411599650,2.63,-2.46,-0.13,78.42999999999999,-400.51,751.22
497,1715411599660,2.63,-2.46,-0.13,78.43,-400.51,751.22
498,1715411599670,2.63,-2.46,-0.13,78.43,-400.51,751.22
499,1715411599680,2.765906040268456,-2.161006711409396,-0.13,195.6081879194631,-392.98986577181205,697.799865771812
500,1715411599690,2.78,-2.13,-0.13,207.76,-392.21,692.26
501,1715411599700,2.78,-2.13,-0.13,207.76,-392.21,692.26
502,1715411599710,2.8184677419354838,-1.6555645161290322,-0.053064516129032256,194.6233870967742,-360.11975806451613,681.7254838709677
503,1715411599720,2.87,-1.02,0.05,111.94,-158.14,615.42
504,1715411599730,2.87,-1.02,0.05000000000000001,111.94,-158.14,615.42
505,1715411599740,2.87,-1.02,0.05,111.94,-158.14,615.42
506,1715411599750,2.76968253968254,-0.7629365079365079,-0.13809523809523808,44.9384126984127,11.510000000000005,616.3021428571428
507,1715411599760,2.71,-0.61,-0.25,-17.94,170.72,617.13
508,1715411599770,2.71,-0.61,-0.25,-17.94,170.72,617.13
509,1715411599780,2.71,-0.61,-0.25,-17.94,170.72,617.13
510,1715411599790,2.7711267605633805,-0.5212676056338028,-0.22239436619718309,-21.868380281690143,159.6443661971831,586.8830281690141
511,1715411599800,3.33,0.29,0.030000000000000002,-60.85,49.74,286.74
512,1715411599810,3.33,0.29,0.03,-60.85,49.74,286.74
513,1715411599820,3.1930573248407645,0.2294904458598726,-0.16745222929936304,-80.20337579617835,83.12675159235668,256.23592356687897
514,1715411599830,2.9,0.1,-0.59,-140.81,187.68,160.71
515,1715411599840,2.9,0.1,-0.59,-140.81,187.68,160.71
516,1715411599850,2.9,0.1,-0.59,-140.81,187.68,160.71
517,1715411599860,2.9,0.1,-0.59,-140.81,187.68,160.71
518,1715411599870,4.307857142857143,-0.3242857142857143,0.3067857142857143,-19.780357142857145,-42.886160714285715,-63.2442857142857
519,1715411599880,4.36,-0.34,0.34,50.11,-176.03,-192.57
520,1715411599890,4.36,-0.34,0.34,50.11,-176.03,-192.57
521,1715411599900,4.190913978494623,-0.4852150537634409,0.26838709677419353,50.10999999999999,-176.03,-192.57
522,1715411599910,3.51,-1.07,-0.02,16.862447552447552,1.634895104895095,-218.5962937062937
523,1715411599920,3.51,-1.07,-0.02,-34.79,277.65,-259.03
524,1715411599930,3.51,-1.07,-0.02,-34.79,277.65,-259.03
525,1715411599940,3.4628571428571426,-1.08,-0.09142857142857143,-34.79,277.65,-259.03
526,1715411599950,3.18,-1.14,-0.52,32.96132978723404,165.15425531914894,-288.94489361702125
527,1715411599960,3.18,-1.14,-0.52,34.06,163.33,-289.43
528,1715411599970,3.18,-1.14,-0.52,34.06,163.33,-289.43
529,1715411599980,3.063673469387755,-0.9777551020408163,-0.24142857142857144,26.687755102040818,144.99816326530615,-307.62489795918367
530,1715411599990,2.8,-0.61,0.39,1.22,81.67,-370.48
531,1715411600000,2.8,-0.61,0.38999999999999996,1.22,81.67,-370.48
532,1715411600010,2.8,-0.61,0.39,1.22,81.67,-370.48
533,1715411600020,2.4217391304347826,-0.5773913043478262,0.45521739130434785,37.534347826086965,133.04478260869564,-383.7039130434783
534,1715411600030,2.22,-0.56,0.49000000000000005,77.15,189.09,-398.13
535,1715411600040,2.22,-0.56,0.49,77.15,189.08999999999997,-398.13
536,1715411600050,2.210338983050848,-0.5579661016949152,0.4852542372881356,77.15,189.09,-398.13
537,1715411600060,1.65,-0.44,0.21,127.62950819672132,156.30147540983606,-449.9710655737705
538,1715411600070,1.65,-0.44,0.21,131.65,153.69,-454.1
539,1715411600080,1.65,-0.44,0.21,131.65,153.69,-454.1
540,1715411600090,1.65,-0.44,0.21,131.65,153.69,-454.1
541,1715411600100,1.7040689655172414,-0.7721379310344827,0.3026896551724138,140.65689655172415,155.53827586206896,-495.9413793103448
542,1715411600110,1.72,-0.87,0.33,144.71,156.37,-514.77
543,1715411600120,1.72,-0.87,0.33,144.71,156.37,-514.77
544,1715411600130,1.72,-0.87,0.33,144.71,156.37,-514.77
545,1715411600140,1.7222222222222223,-0.8988888888888888,0.3166666666666667,148.8077777777778,154.1188888888889,-517.8077777777778
546,1715411600150,1.73,-1.0,0.27,163.15,146.24,-528.44
547,1715411600160,1.73,-1.0,0.27,163.15,146.24,-528.44
548,1715411600170,1.775378151260504,-1.1134453781512605,0.2876470588235294,161.5542857142857,150.64285714285714,-527.7685714285715
549,1715411600180,1.91,-1.45,0.34,151.98,177.06,-523.74
550,1715411600190,1.91,-1.45,0.34,151.98,177.06,-523.74
551,1715411600200,1.9099999999999997,-1.45,0.34,151.98,177.06,-523.74
552,1715411600210,1.6794117647058824,-1.52,0.25764705882352945,152.23764705882354,162.21882352941176,-527.5976470588236
553,1715411600220,1.35,-1.62,0.14,152.71,135.01,-534.67
554,1715411600230,1.35,-1.62,0.14,152.71,135.01,-534.67
555,1715411600240,1.35,-1.62,0.14,152.71,135.01,-534.67
556,1715411600250,1.35,-1.62,0.14,152.71,135.01,-534.67
557,1715411600260,1.35,-1.62,0.14,152.71,135.01,-534.67
558,1715411600270,1.35,-1.62,0.14,152.71,135.01,-534.67
559,1715411600280,1.35,-1.62,0.14,152.71,135.01,-534.67
560,1715411600290,1.35,-1.62,0.14,152.71,135.01,-534.67
561,1715411600300,1.35,-1.62,0.14,152.71,135.01,-534.67
562,1715411600310,-0.42999999999999994,-1.605,-0.735,129.365,110.9,-376.555
563,1715411600320,-2.21,-1.59,-1.61,106.02,86.79,-218.44000000000003
564,1715411600330,-2.21,-1.59,-1.61,106.02000000000001,86.79,-218.44
565,1715411600340,-2.21,-1.5900000000000003,-1.6100000000000003,106.01999999999998,86.79,-218.44
566,1715411600350,-2.21,-1.59,-1.61,106.02000000000001,86.79,-218.44
567,1715411600360,-2.21,-1.59,-1.61,106.02,86.79,-218.44
568,1715411600370,-2.21,-1.59,-1.61,106.02,86.79,-218.44
569,1715411600380,-2.21,-1.59,-1.61,106.01999999999998,86.79,-218.43999999999997
570,1715411600390,-2.442689075630252,-1.4587394957983193,-1.4966386554621849,61.809075630252096,10.354621848739498,-72.9973949579832
571,1715411600400,-2.6,-1.37,-1.42,31.919999999999998,-41.32,25.33
572,1715411600410,-2.6,-1.37,-1.42,31.92,-41.32,25.33
573,1715411600420,-2.0723611111111113,-0.7422916666666668,-0.7468055555555556,-91.83277777777778,-20.10472222222222,233.78138888888893
574,1715411600430,-1.4908333333333332,-0.7258333333333333,-0.5091666666666667,-170.36833333333334,9.900833333333333,340.1508333333333
575,1715411600440,-0.75,-0.79,-0.27,-261.66,48.71,457.63999999999993
576,1715411600450,-0.75,-0.79,-0.27,-261.66,48.71,457.63999999999993
577,1715411600460,-0.75,-0.79,-0.27,-261.66,48.71,457.64
578,1715411600470,-0.75,-0.79,-0.27,-261.66,48.71,457.64
579,1715411600480,-0.75,-0.79,-0.27,-261.66,48.71,457.64
580,1715411600490,-0.75,-0.79,-0.27,-261.66,48.71,457.64
581,1715411600500,-0.5891304347826087,-0.8868115942028986,-0.2564734299516908,-251.49198067632852,24.435555555555556,472.79285024154586
582,1715411600510,2.79,-2.67,0.07,15.319999999999999,-461.3,781.62
583,1715411600520,2.79,-2.67,0.07,15.32,-461.3,781.62
584,1715411600530,2.79,-2.6699999999999995,0.07,15.320000000000002,-461.3,781.6199999999999
585,1715411600540,2.482574850299401,-2.0099401197604787,0.18754491017964073,46.670538922155686,-244.7882634730539,711.8614371257485
586,1715411600550,2.45,-1.94,0.2,52.19,-206.67,699.58
587,1715411600560,2.45,-1.94,0.2,52.19,-206.67,699.5800000000002
588,1715411600570,2.413011363636364,-1.9125568181818182,0.1665909090909091,50.05875,-201.5634659090909,695.7427840909091
589,1715411600580,2.14,-1.71,-0.08,-22.83,-26.92,564.51
590,1715411600590,2.14,-1.71,-0.08,-22.83,-26.92,564.51
591,1715411600600,2.14,-1.71,-0.08,-22.83,-26.92,564.51
592,1715411600610,2.1938317757009345,-1.492429906542056,-0.09121495327102803,-22.83,-26.92,564.51
593,1715411600620,2.38,-0.74,-0.13,-44.37862068965517,88.65358620689655,540.6733793103448
594,1715411600630,2.38,-0.74,-0.13,-44.68,90.27,540.34
595,1715411600640,2.38,-0.74,-0.13,-44.68,90.27,540.34
596,1715411600650,2.700833333333333,-0.6319642857142858,-0.11363095238095237,-79.74630952380953,82.44154761904761,506.2146428571429
597,1715411600660,3.36,-0.41,-0.08,-199.71,55.66,389.47
598,1715411600670,3.36,-0.41,-0.08,-199.71,55.66,389.47
599,1715411600680,3.36,-0.41,-0.08,-199.71,55.660000000000004,389.46999999999997
600,1715411600690,3.301935483870968,-0.10516129032258063,0.20548387096774196,-155.42283870967742,35.482,251.6329677419355
601,1715411600700,3.24,0.22,0.51,-79.28000000000002,0.79,14.65
602,1715411600710,3.24,0.22,0.51,-79.28,0.79,14.65
603,1715411600720,3.24,0.22,0.51,-79.28,0.79,14.65
604,1715411600730,3.4028346456692917,-0.23385826771653545,0.5030708661417322,-61.1332283464567,23.706535433070865,-27.19692913385827
605,1715411600740,3.71,-1.09,0.49,-7.259999999999999,91.74,-151.43
606,1715411600750,3.71,-1.09,0.49,-7.26,91.74,-151.43
607,1715411600760,3.674615384615384,-1.1654871794871795,0.2847692307692308,0.13733333333333336,110.49733333333333,-176.75533333333334
608,1715411600770,3.5600000000000005,-1.41,-0.38,48.22,232.42,-341.37
609,1715411600780,3.56,-1.41,-0.38,48.220000000000006,232.42,-341.37
610,1715411600790,3.56,-1.41,-0.38,48.22,232.42,-341.37
611,1715411600800,3.5049462365591397,-1.5510752688172043,-0.40064516129032257,52.084999999999994,213.245,-346.385
612,1715411600810,3.3999999999999995,-1.82,-0.44,71.41,117.37,-371.46
613,1715411600820,3.4,-1.8199999999999998,-0.44,71.41,117.36999999999999,-371.46
614,1715411600830,3.4,-1.82,-0.44,71.41,117.37,-371.46
615,1715411600840,3.1804166666666664,-1.5083333333333335,-0.19562500000000002,71.41,117.36999999999999,-371.46
616,1715411600850,2.78,-0.94,0.25,51.732127659574466,106.20248226950353,-429.47163120567376
617,1715411600860,2.78,-0.94,0.25,50.23,105.35,-433.9
618,1715411600870,2.7800000000000002,-0.94,0.25,50.230000000000004,105.35,-433.9
619,1715411600880,2.4995121951219508,-0.8302439024390244,0.3902439024390244,103.95670731707315,126.6829268292683,-440.28195121951217
620,1715411600890,2.32,-0.76,0.48000000000000004,140.14,141.05,-444.58
621,1715411600900,2.32,-0.76,0.48,140.14,141.05,-444.58
622,1715411600910,2.32,-0.76,0.48000000000000004,140.14,141.05,-444.58
623,1715411600920,2.0244444444444443,-0.7522222222222222,0.3555555555555555,140.06017543859647,178.64122807017546,-492.59140350877186
624,1715411600930,1.94,-0.75,0.32,140.01,202.27,-522.77
625,1715411600940,1.94,-0.75,0.32000000000000006,140.01,202.27,-522.77
626,1715411600950,1.9400000000000002,-0.75,0.32,140.01,202.27,-522.77
627,1715411600960,2.047945205479452,-0.9838812785388128,0.4369406392694064,174.99082191780823,227.0864383561644,-548.422602739726
628,1715411600970,2.06,-1.01,0.45,185.61,234.62,-556.21
629,1715411600980,2.06,-1.01,0.45,185.61,234.62,-556.21
630,1715411600990,2.06,-1.01,0.45,185.61,234.62,-556.21
631,1715411601000,2.2770860927152317,-1.3060264900662253,0.2822516556291391,160.16026490066227,253.02172185430467,-608.0406622516556
632,1715411601010,2.28,-1.31,0.28,155.82,256.16,-616.88
633,1715411601020,2.28,-1.31,0.28,155.82,256.16,-616.88
634,1715411601030,2.28,-1.31,0.28,155.82,256.16,-616.88
635,1715411601040,2.5638174273858922,-1.6834439834024897,0.8028215767634854,233.45900414937756,224.208132780083,-648.7497095435684
636,1715411601050,2.66,-1.81,0.98,259.77,213.38,-659.55
637,1715411601060,2.6600000000000006,-1.81,0.98,259.77,213.38,-659.55
638,1715411601070,2.66,-1.81,0.98,259.77,213.38,-659.55
639,1715411601080,2.66,-1.81,0.98,259.77,213.38,-659.55
640,1715411601090,2.66,-1.81,0.98,259.77,213.38,-659.55
641,1715411601100,2.66,-1.8099999999999998,0.9799999999999999,259.77,213.38,-659.55
642,1715411601110,2.66,-1.81,0.98,259.77,213.38,-659.55
643,1715411601120,2.66,-1.81,0.98,259.77,213.38,-659.55
644,1715411601130,2.66,-1.81,0.98,259.77,213.38,-659.55
645,1715411601140,2.66,-1.81,0.9800000000000001,259.77,213.38,-659.55
646,1715411601150,2.66,-1.81,0.98,259.77,213.38,-659.55
647,1715411601160,0.12030303030303038,-1.9614393939393941,-0.9072727272727273,260.9442424242424,71.55969696969696,-426.84803030303027
648,1715411601170,-2.73,-2.13,-3.02,262.27,-88.56,-164.12
649,1715411601180,-2.73,-2.13,-3.02,262.27,-88.56,-164.12
650,1715411601190,-2.73,-2.13,-3.02,262.27,-88.56,-164.12
651,1715411601200,-2.73,-2.13,-3.02,262.27,-88.56,-164.12
652,1715411601210,-2.73,-2.13,-3.02,262.27,-88.56,-164.12
653,1715411601220,-2.73,-2.13,-3.02,262.27,-88.56,-164.12
654,1715411601230,-2.73,-2.13,-3.02,262.27,-88.56,-164.12
655,1715411601240,-2.73,-2.13,-3.02,262.27,-88.56,-164.12
656,1715411601250,-2.73,-2.13,-3.02,262.27,-88.56,-164.12
657,1715411601260,-2.73,-2.13,-3.02,262.27,-88.56,-164.12
658,1715411601270,-2.73,-2.13,-3.02,262.27,-88.56,-164.12
659,1715411601280,-2.73,-2.13,-3.02,262.27,-88.56,-164.12
660,1715411601290,-2.73,-2.13,-3.02,262.27,-88.56,-164.12
661,1715411601300,-1.186,-2.2675,-1.6640000000000001,63.0415,-164.739,160.354
662,1715411601310,1.51,-2.72,0.2,-232.41999999999996,-279.48,702.82
663,1715411601320,1.51,-2.72,0.2,-232.41999999999996,-279.48,702.82
664,1715411601330,2.6046206896551727,-2.72,-0.0736551724137931,-17.981103448275864,-363.9826206896552,797.6368275862069
665,1715411601340,2.79,-2.72,-0.12,69.46,-398.44,836.3
666,1715411601350,2.79,-2.72,-0.12,69.46,-398.44,836.3
667,1715411601360,2.79,-2.72,-0.11999999999999998,69.46,-398.44,836.3
668,1715411601370,3.1302013422818793,-2.0763758389261744,-0.12919463087248323,118.88523489932885,-316.05073825503354,779.309932885906
669,1715411601380,3.16,-2.02,-0.13,128.85,-299.44,767.82
670,1715411601390,3.16,-2.02,-0.13,128.85,-299.44,767.82
671,1715411601400,3.059578947368421,-1.932842105263158,-0.1394736842105263,128.85,-299.44,767.82
672,1715411601410,2.1,-1.1,-0.23,3.674234234234234,-122.96621621621621,556.7435135135134
673,1715411601420,2.1,-1.1,-0.23000000000000004,0.79,-118.9,551.88
674,1715411601430,2.1,-1.1,-0.23000000000000004,0.79,-118.89999999999999,551.88
675,1715411601440,2.1,-1.1,-0.23,0.79,-118.9,551.88
676,1715411601450,2.512023121387283,-1.2030057803468208,0.0675722543352601,2.023005780346821,-72.42479768786127,564.3539884393064
677,1715411601460,2.82,-1.28,0.29,3.36,-22.03,577.88
678,1715411601470,2.82,-1.2800000000000002,0.29,3.36,-22.03,577.8799999999999
679,1715411601480,2.4168,-0.1928,-0.2572,-27.538199999999996,16.237399999999997,543.0235
680,1715411601490,2.26,0.23,-0.47,-130.98,144.35,426.33
681,1715411601500,2.26,0.23,-0.47,-130.98,144.35,426.33
682,1715411601510,2.26,0.23,-0.47,-130.98,144.35,426.33
683,1715411601520,3.0838805970149252,0.015074626865671643,0.12701492537313436,-166.29537313432834,130.95611940298508,364.72746268656715
684,1715411601530,3.64,-0.13,0.53,-191.65,121.34,320.5
685,1715411601540,3.64,-0.13,0.53,-191.65,121.34,320.5
686,1715411601550,3.6400000000000006,-0.13,0.53,-191.65,121.34,320.5
687,1715411601560,3.9393103448275864,-0.39068965517241383,0.14379310344827587,-38.73275862068966,-69.54229885057471,4.802988505747126
688,1715411601570,3.95,-0.4,0.13,-16.6,-97.17000000000002,-40.89
689,1715411601580,3.95,-0.4,0.13,-16.6,-97.17,-40.89
690,1715411601590,3.9500000000000006,-0.4000000000000001,0.13,-16.6,-97.17,-40.89
691,1715411601600,4.152666666666667,-0.5481025641025641,0.6054871794871794,-7.785333333333334,62.484,-162.32266666666666
692,1715411601610,4.21,-0.59,0.74,-4.58,120.53999999999999,-206.48
693,1715411601620,4.21,-0.59,0.74,-4.58,120.54,-206.48
694,1715411601630,4.21,-0.59,0.74,-4.58,120.54,-206.48
695,1715411601640,3.457761194029851,-0.7332835820895522,-0.40626865671641793,-35.524477611940306,222.99432835820897,-242.91462686567164
696,1715411601650,3.37,-0.75,-0.54,-51.7,276.55,-261.96
697,1715411601660,3.37,-0.75,-0.54,-51.7,276.55,-261.96
698,1715411601670,3.365491803278689,-0.7489344262295082,-0.534016393442623,-51.7,276.55,-261.96
699,1715411601680,2.82,-0.62,0.19,35.31244755244755,71.85447552447553,-369.2346853146853
700,1715411601690,2.82,-0.62,0.19,50.29,36.62,-387.7
701,1715411601700,2.82,-0.62,0.19,50.29,36.62,-387.7
702,1715411601710,2.770684931506849,-0.5973972602739726,0.2167123287671233,50.040821917808216,37.825616438356164,-387.5945205479452
703,1715411601720,2.34,-0.4,0.45,32.1,124.63,-380.0
704,1715411601730,2.34,-0.4,0.45,32.1,124.63,-380.0
705,1715411601740,2.3256028368794324,-0.39553191489361705,0.4420567375886525,32.1,124.62999999999998,-380.0
706,1715411601750,2.05,-0.31,0.29,67.67238095238096,154.90166666666664,-453.1166666666666
707,1715411601760,2.05,-0.31,0.29,68.54,155.64,-454.8999999999999
708,1715411601770,2.05,-0.31,0.29,68.54,155.64,-454.9
709,1715411601780,2.05,-0.3527631578947369,0.31394736842105264,75.51467105263158,151.30723684210525,-461.7224342105263
710,1715411601790,2.05,-0.56,0.43,150.09,104.98,-534.67
711,1715411601800,2.05,-0.56,0.42999999999999994,150.09,104.98,-534.67
712,1715411601810,2.05,-0.56,0.43,150.09,104.98,-534.67
713,1715411601820,2.082523364485981,-0.8635514018691589,0.42457943925233643,145.58831775700935,125.33850467289719,-564.9503738317757
714,1715411601830,2.11,-1.12,0.42,141.17,145.32,-594.67
715,1715411601840,2.11,-1.12,0.42,141.17,145.32,-594.67
716,1715411601850,2.11,-1.12,0.42000000000000004,141.17,145.32,-594.67
717,1715411601860,2.0425714285714283,-1.2169285714285714,0.4663571428571429,157.61499999999998,146.56528571428572,-595.8101428571429
718,1715411601870,1.9499999999999997,-1.35,0.53,191.22,149.11,-598.14
719,1715411601880,1.9500000000000002,-1.35,0.53,191.22,149.11,-598.14
720,1715411601890,1.9499999999999997,-1.35,0.53,191.22,149.11,-598.14
721,1715411601900,1.8511764705882352,-1.1523529411764706,0.44529411764705884,151.02991596638657,152.37470588235294,-579.4721008403361
722,1715411601910,1.81,-1.07,0.41,126.59,154.36,-568.12
723,1715411601920,1.81,-1.07,0.41,126.59,154.36,-568.1199999999999
724,1715411601930,1.7767857142857142,-1.0978571428571429,0.4041071428571429,126.58999999999999,154.36,-568.12
725,1715411601940,1.19,-1.59,0.3,137.25426229508196,136.77377049180325,-552.4518032786884
726,1715411601950,1.19,-1.59,0.3,139.1,133.73,-549.74
727,1715411601960,1.19,-1.59,0.3,139.1,133.73,-549.74
728,1715411601970,1.007103448275862,-1.6280689655172416,0.1882758620689655,139.1,133.73,-549.74
729,1715411601980,-1.02,-2.05,-1.05,221.74,141.42,-414.86
730,1715411601990,-1.02,-2.05,-1.05,221.74,141.42,-414.86
731,1715411602000,-1.02,-2.05,-1.05,221.74,141.42,-414.86
732,1715411602010,-1.2644230769230769,-2.123525641025641,-1.1135897435897435,221.74,141.42,-414.86
733,1715411602020,-2.25,-2.42,-1.37,109.97714285714285,-25.83428571428572,-162.6507142857143
734,1715411602030,-2.25,-2.42,-1.37,101.37999999999998,-38.7,-143.25
735,1715411602040,-2.25,-2.42,-1.37,101.38,-38.7,-143.25
736,1715411602050,-2.3057522123893808,-2.2368141592920354,-0.9956637168141593,-19.17752212389381,-9.569469026548674,94.99115044247787
737,1715411602060,-2.32,-2.19,-0.9,-80.26,5.19,215.7
738,1715411602070,-2.32,-2.19,-0.9,-80.26,5.19,215.7
739,1715411602080,-2.287099567099567,-2.179090909090909,-0.8882251082251083,-80.26,5.19,215.7
740,1715411602090,-0.42,-1.56,-0.22,-271.8976,40.09176,490.55136
741,1715411602100,-0.42,-1.56,-0.22,-276.61,40.95,497.31
742,1715411602110,-0.42000000000000004,-1.56,-0.22,-276.61,40.95000000000001,497.31
743,1715411602120,-0.42,-1.56,-0.22,-276.61,40.95,497.31
744,1715411602130,0.7466666666666667,-1.9370325203252032,0.13569105691056912,-340.4869105691057,-16.686991869918696,579.2947967479676
745,1715411602140,1.22,-2.09,0.28,-387.27,-58.9,639.34
746,1715411602150,1.22,-2.09,0.28,-387.27,-58.9,639.34
747,1715411602160,1.2199999999999998,-2.09,0.28,-387.27,-58.9,639.34
748,1715411602170,1.778139534883721,-2.4969767441860466,0.2102325581395349,-325.8575,-110.1470930232558,730.675465116279
749,1715411602180,2.18,-2.79,0.16,-263.0,-162.6,824.16
750,1715411602190,2.18,-2.7900000000000005,0.16,-263.0,-162.6,824.16
751,1715411602200,2.18,-2.79,0.16,-263.0,-162.6,824.1599999999999
752,1715411602210,2.421904761904762,-2.4951785714285712,0.03904761904761905,-153.66410714285715,-237.2325,808.8869642857144
753,1715411602220,2.5,-2.4,-65.49,-297.42,796.57
754,1715411602230,2.5,-2.4,-65.49,-297.42,796.57
755,1715411602240,2.5,-2.4,-65.49,-297.42,796.57
756,1715411602250,2.1813664596273292,-2.0388819875776396,-0.04956521739130435,3.63,-277.1695652173913,689.3630434782609
757,1715411602260,2.05,-1.8899999999999997,-0.07,33.87,-268.31,642.46
758,1715411602270,2.05,-1.89,-0.07,33.87,-268.31,642.46
759,1715411602280,2.1398830409356724,-1.710233918128655,-0.32415204678362575,77.41315789473684,-297.51438596491226,614.9661403508773
760,1715411602290,2.34,-1.31,-0.89,224.79000000000002,-396.36,521.91
761,1715411602300,2.34,-1.31,-0.89,224.79,-396.36,521.91
762,1715411602310,2.34,-1.31,-0.89,224.78999999999996,-396.36,521.91
763,1715411602320,2.637978142076503,-1.1374863387978142,-0.5584153005464481,219.98344262295083,-380.7468852459017,511.29229508196715
764,1715411602330,3.67,-0.54,0.59,151.49,-158.26,359.99
765,1715411602340,3.67,-0.54,0.59,151.49,-158.26,359.99
766,1715411602350,3.6700000000000004,-0.54,0.59,151.49,-158.26,359.99
767,1715411602360,3.5617037037037034,-0.5752592592592594,-0.06229629629629632,92.80540740740742,-51.63496296296296,368.75251851851857
768,1715411602370,3.2399999999999998,-0.68,-2.0,-208.62,496.03000000000003,413.76
769,1715411602380,3.2400000000000007,-0.68,-2.0,-208.61999999999998,496.0299999999999,413.76000000000005
770,1715411602390,3.24,-0.68,-2.0,-208.62000000000003,496.03,413.75999999999993
771,1715411602400,3.5802739726027397,-0.336027397260274,-1.437808219178082,-144.34534246575345,325.22520547945203,303.79684931506847
772,1715411602410,4.16,0.25,-0.48,38.33,-160.22,-8.73
773,1715411602420,4.16,0.25,-0.48,38.33,-160.22,-8.73
774,1715411602430,4.16,0.25,-0.48,38.33,-160.22,-8.73
775,1715411602440,3.8744680851063826,-0.21340425531914894,-0.4004255319148936,-30.242978723404256,-3.2460283687943305,-32.86567375886524
776,1715411602450,3.55,-0.74,-0.31,-144.1,257.39,-72.94
777,1715411602460,3.5500000000000003,-0.74,-0.31,-144.1,257.39,-72.94
778,1715411602470,3.55,-0.74,-0.31,-144.1,257.39,-72.94
779,1715411602480,3.350359712230216,-0.9236690647482013,-0.7731654676258993,-27.783741007194244,182.29525179856117,-178.6141726618705
780,1715411602490,3.2999999999999994,-0.9699999999999999,-0.89,22.58,149.78,-224.37
781,1715411602500,3.3,-0.97,-0.89,22.58,149.78,-224.37
782,1715411602510,3.1999999999999997,-0.8675,-0.7125,4.073061224489794,148.04413265306124,-227.47301020408162
783,1715411602520,2.9,-0.56,-0.18,-87.34,139.47,-242.80000000000004
784,1715411602530,2.9,-0.56,-0.18,-87.34,139.47,-242.8
785,1715411602540,2.9,-0.56,-0.18,-87.34,139.47,-242.80000000000004
786,1715411602550,2.8563235294117644,-0.5520588235294118,-0.1713970588235294,-87.34,139.47,-242.8
787,1715411602560,2.24,-0.44,-0.05,-48.05521276595744,144.8685638297872,-322.06462765957446
788,1715411602570,2.24,-0.44,-0.05,-46.08,145.14,-326.05
789,1715411602580,2.24,-0.44,-0.05000000000000001,-46.08,145.14,-326.05
790,1715411602590,2.25152,-0.44144,-0.00392,-46.08,145.14,-326.05
791,1715411602600,2.32,-0.45,0.27,78.68817073170732,34.00646341463415,-475.58024390243907
792,1715411602610,2.32,-0.45,0.27,86.79,26.79,-485.29
793,1715411602620,2.32,-0.45,0.27,86.79,26.79,-485.29
794,1715411602630,2.323088235294118,-0.4577205882352941,0.2702205882352941,86.79,26.79,-485.29
795,1715411602640,2.46,-0.8,0.28,75.4205882352941,116.46529411764705,-574.5605882352942
796,1715411602650,2.46,-0.8,0.28,74.71,122.07,-580.14
797,1715411602660,2.46,-0.8,0.28,74.71,122.07,-580.14
798,1715411602670,2.46,-0.8000000000000002,0.28,74.71,122.07,-580.14
799,1715411602680,2.4889772727272725,-1.1245454545454547,0.29159090909090907,114.04261363636364,123.08573863636364,-625.8138068181818
800,1715411602690,2.51,-1.36,0.3,143.25,123.84,-659.73
801,1715411602700,2.5127755102040816,-1.361469387755102,0.3003265306122449,143.25,123.84,-659.73
802,1715411602710,2.68,-1.45,0.32,128.6027,98.2729,-695.0454000000001
803,1715411602720,2.68,-1.45,0.32,122.62000000000002,87.83,-709.47
804,1715411602730,2.68,-1.4499999999999997,0.32,122.62,87.83,-709.47
805,1715411602740,2.68,-1.45,0.32,122.62000000000002,87.83,-709.47
806,1715411602750,2.375161290322581,-1.7006451612903226,0.3470967741935484,126.854623655914,92.15849462365591,-721.2143010752688
807,1715411602760,2.23,-1.82,0.36,130.74,96.13000000000001,-731.99
808,1715411602770,2.23,-1.82,0.36,130.74,96.13000000000001,-731.99
809,1715411602780,2.23,-1.82,0.36,130.74,96.13,-731.99
810,1715411602790,1.596412213740458,-1.8263358778625953,0.30931297709923666,123.67374045801527,85.32862595419847,-724.417175572519
811,1715411602800,1.23,-1.83,0.28,108.7,62.44,-708.37
812,1715411602810,1.23,-1.8299999999999998,0.28,108.69999999999999,62.440000000000005,-708.37
813,1715411602820,1.23,-1.8299999999999998,0.28,108.7,62.440000000000005,-708.37
814,1715411602830,-2.053628691983122,-3.2063713080168776,-0.7719409282700422,194.64430379746835,117.73417721518987,-483.5294936708861
815,1715411602840,-2.11,-3.23,-0.79,203.0,123.11,-461.66999999999996
816,1715411602850,-2.11,-3.23,-0.79,203.0,123.11,-461.66999999999996
817,1715411602860,-2.11,-3.23,-0.79,203.0,123.11,-461.66999999999996
818,1715411602870,-2.6967857142857143,-2.5107142857142857,-0.6385714285714286,141.84125,6.6674999999999995,-154.8775
819,1715411602880,-2.73,-2.47,-0.63,130.13,-15.63,-96.13
820,1715411602890,-2.73,-2.47,-0.63,130.13,-15.63,-96.13
821,1715411602900,-2.531554054054054,-2.405337837837838,-0.5318918918918919,113.1739189189189,-12.12222972972973,-60.746216216216204
822,1715411602910,-1.84,-2.18,-0.19,-37.17,18.98,252.99
823,1715411602920,-1.84,-2.18,-0.19,-37.17,18.98,252.99
824,1715411602930,-1.8400000000000003,-2.18,-0.19,-37.17,18.98,252.99000000000004
825,1715411602940,-1.257329192546584,-2.1108695652173917,-0.11099378881987579,-48.83198757763976,24.187888198757765,283.98360248447204
826,1715411602950,-0.07,-1.97,0.05,-135.99,63.11,515.62
827,1715411602960,-0.07,-1.97,0.049999999999999996,-135.99,63.11000000000001,515.62
828,1715411602970,-0.07,-1.97,0.049999999999999996,-135.99,63.11,515.62
829,1715411602980,0.05395238095238095,-1.997142857142857,0.07261904761904762,-133.0522380952381,56.339666666666666,531.6179999999999
830,1715411602990,1.3,-2.27,0.3,-103.52,-11.72,692.44
831,1715411603000,1.3,-2.27,0.3,-103.52,-11.72,692.44
832,1715411603010,1.3,-2.27,0.3,-103.51999999999998,-11.720000000000002,692.44
833,1715411603020,2.171951219512195,-2.424268292682927,0.2798780487804878,-53.27298780487805,-40.8675,768.0303048780488
834,1715411603030,2.6,-2.5,0.27,-10.93,-65.43,831.73
835,1715411603040,2.6,-2.5,0.27,-10.930000000000001,-65.43,831.7299999999999
836,1715411603050,2.6,-2.5,0.27,-10.93,-65.43,831.73
837,1715411603060,2.6408783783783782,-1.7641891891891894,0.24547297297297296,-54.05155405405405,-51.36445945945946,799.1603378378379
838,1715411603070,2.65,-1.6,0.24,-89.72,-39.73,772.22
839,1715411603080,2.65,-1.6,0.24,-89.72,-39.73,772.22
840,1715411603090,2.64488,-1.6016000000000001,0.23944,-89.72,-39.73,772.22
841,1715411603100,2.01,-1.8,0.17,-107.352,-39.1505,700.0865
842,1715411603110,2.01,-1.8,0.17,-108.28,-39.12,696.29
843,1715411603120,2.01,-1.8,0.17,-108.28,-39.12,696.29
844,1715411603130,2.133350785340314,-1.455916230366492,0.12780104712041884,-78.12481675392671,-42.14089005235602,674.5048167539267
845,1715411603140,2.39,-0.74,0.04,105.04,-60.49,542.18
846,1715411603150,2.39,-0.74,0.04,105.04,-60.49,542.18
847,1715411603160,2.39,-0.74,0.04,105.04,-60.49,542.18
848,1715411603170,2.455942028985507,-0.8211594202898551,0.15159420289855072,59.6440579710145,-32.32536231884058,536.2843478260869
849,1715411603180,2.65,-1.06,0.4799999999999999,-286.5,182.43,491.33
850,1715411603190,2.65,-1.06,0.4799999999999999,-286.5,182.43,491.33
851,1715411603200,2.65,-1.06,0.48,-286.5,182.43,491.33
852,1715411603210,3.292722513089005,-0.5986910994764398,0.5318324607329843,-257.35602094240835,177.0150785340314,470.5538219895288
853,1715411603220,3.89,-0.17,0.58,-212.28,168.64,438.42
854,1715411603230,3.89,-0.17,0.58,-212.28,168.64000000000001,438.42
855,1715411603240,3.89,-0.17,0.58,-212.28,168.64,438.42
856,1715411603250,4.092978723404255,-0.8465957446808512,0.4108510638297872,-251.85521276595748,196.48191489361702,285.96606382978723
857,1715411603260,4.25,-1.37,0.28,-282.47,218.02,168.03
858,1715411603270,4.25,-1.37,0.28,-282.47,218.02,168.03
859,1715411603280,4.25,-1.37,0.28,-282.47,218.02,168.03
860,1715411603290,4.29,-0.8366666666666667,0.74,-4.436666666666667,36.90666666666667,-59.75666666666667
861,1715411603300,4.31,-0.57,0.9700000000000001,134.58,-53.65,-173.65
862,1715411603310,4.31,-0.57,0.97,134.58,-53.650000000000006,-173.65
863,1715411603320,4.254604316546763,-0.6232374100719424,0.8872661870503596,134.58,-53.65,-173.65
864,1715411603330,3.54,-1.31,-0.18,135.23133126934985,176.21160990712076,-220.2833746130031
865,1715411603340,3.54,-1.31,-0.18,135.25,182.8,-221.62000000000003
866,1715411603350,3.54,-1.31,-0.18,135.25,182.8,-221.62
867,1715411603360,3.431907514450867,-1.193063583815029,-0.2055491329479769,135.25,182.8,-221.62
868,1715411603370,2.44,-0.12,-0.43999999999999995,155.81686930091186,37.07355623100304,-280.0409726443769
869,1715411603380,2.44,-0.12,-0.44,156.07,35.28,-280.76
870,1715411603390,2.44,-0.12,-0.44,156.07,35.28,-280.76
871,1715411603400,2.2624683544303794,-0.0016455696202531598,-0.11183544303797467,159.14291139240507,-0.7858227848101272,-330.0643037974683
872,1715411603410,2.11,0.1,0.17,163.21,-48.52000000000001,-395.31999999999994
873,1715411603420,2.11,0.1,0.17,163.21,-48.52,-395.32
874,1715411603430,2.11,0.1,0.17,163.21,-48.52,-395.32
875,1715411603440,1.8202439024390245,0.020975609756097562,0.32804878048780484,105.27243902439025,55.24552845528454,-385.37203252032515
876,1715411603450,1.7799999999999998,0.01,0.35,85.75,90.20999999999998,-382.02
877,1715411603460,1.78,0.01,0.35,85.75,90.21000000000001,-382.02
878,1715411603470,1.784939024390244,-0.018536585365853658,0.3445121951219512,85.75,90.21,-382.02
879,1715411603480,1.8700000000000003,-0.51,0.25,58.5310101010101,115.10575757575756,-482.9783838383838
880,1715411603490,1.87,-0.51,0.25,56.46,117.0,-490.66
881,1715411603500,1.8699999999999999,-0.51,0.25,56.46,117.0,-490.65999999999997
882,1715411603510,1.87,-0.51,0.25,56.46,117.0,-490.66
883,1715411603520,2.452352941176471,-0.5648096885813149,0.5377508650519031,104.37003460207613,141.74062283737024,-527.2025605536331
884,1715411603530,2.72,-0.59,0.67,136.96,158.57,-552.06
885,1715411603540,2.72,-0.59,0.67,136.96,158.57,-552.06
886,1715411603550,2.72,-0.59,0.67,136.96,158.57,-552.06
887,1715411603560,2.815151515151515,-1.2465454545454546,0.5463030303030303,92.81696969696971,239.1072121212121,-616.6072727272727
888,1715411603570,2.82,-1.28,0.54,81.36,260.01,-633.36
889,1715411603580,2.82,-1.28,0.54,81.36,260.01,-633.36
890,1715411603590,2.858145695364238,-1.613774834437086,0.6544370860927152,146.2592715231788,247.196821192053,-683.5870198675497
891,1715411603600,2.86,-1.63,0.66,162.35,244.02,-696.04
892,1715411603610,2.86,-1.63,0.66,162.35,244.02,-696.04
893,1715411603620,2.754322033898305,-1.6902118644067796,0.5911864406779661,165.8177966101695,242.77220338983054,-697.784406779661
894,1715411603630,2.0,-2.12,0.10000000000000002,264.65,207.20999999999998,-747.5
895,1715411603640,2.0,-2.12,0.1,264.65,207.21,-747.5
896,1715411603650,2.0,-2.12,0.1,264.65,207.21,-747.5
897,1715411603660,1.933061224489796,-2.1518367346938776,0.07591836734693877,264.65,207.21,-747.5
898,1715411603670,-1.28,-3.68,-1.08,295.50829670329665,228.2685164835165,-550.7519780219781
899,1715411603680,-1.28,-3.68,-1.08,298.28,230.16000000000003,-533.08
900,1715411603690,-1.28,-3.68,-1.08,298.28,230.16000000000003,-533.08
901,1715411603700,-1.5567142857142857,-3.535142857142857,-1.2991428571428572,246.12771428571426,211.661,-463.5968571428572
902,1715411603710,-2.77,-2.9,-2.26,17.46,130.55,-158.94
903,1715411603720,-2.77,-2.9,-2.26,17.46,130.55,-158.94
904,1715411603730,-2.77,-2.9,-2.26,17.46,130.55,-158.94
905,1715411603740,-2.5593617021276596,-2.775531914893617,-2.0493617021276593,-13.110212765957446,70.50319148936171,-78.74851063829787
906,1715411603750,-2.11,-2.51,-1.6000000000000003,-126.22,-151.67,217.96
907,1715411603760,-2.11,-2.51,-1.6,-126.22,-151.67,217.96
908,1715411603770,-2.11,-2.51,-1.5999999999999999,-126.22,-151.67,217.96
909,1715411603780,-1.920699588477366,-2.5116460905349793,-1.4469135802469137,-129.53028806584362,-155.00580246913577,240.45465020576134
910,1715411603790,0.19000000000000003,-2.53,0.26,-166.44,-192.2,491.27
911,1715411603800,0.19,-2.53,0.26,-166.44,-192.2,491.27
912,1715411603810,0.19,-2.53,0.26,-166.44,-192.2,491.27
913,1715411603820,0.9241176470588235,-2.487941176470588,0.40911764705882353,-181.8231932773109,-160.62588235294118,575.9305042016806
914,1715411603830,2.11,-2.42,0.65,-217.28999999999996,-87.83,771.12
915,1715411603840,2.11,-2.42,0.65,-217.29,-87.83,771.12
916,1715411603850,2.11,-2.42,0.65,-217.29,-87.83,771.12
917,1715411603860,2.5949740932642484,-2.5940932642487047,0.5505181347150259,-227.05259067357514,-107.57362694300518,820.922383419689
918,1715411603870,3.28,-2.84,0.41,-247.68,-149.29,926.15
919,1715411603880,3.28,-2.84,0.41,-247.68,-149.29,926.15
920,1715411603890,3.28,-2.84,0.41,-247.68,-149.29,926.1500000000001
921,1715411603900,3.449668049792531,-2.512365145228215,0.041410788381742725,-247.68,-149.29,926.15
922,1715411603910,3.57,-2.28,-0.22,-46.86457399103139,-362.62901345291476,839.5600448430492
923,1715411603920,3.57,-2.28,-0.22,-45.96,-363.59,839.17
924,1715411603930,3.3641666666666667,-2.185,-0.15983333333333333,-37.830000000000005,-358.9025,823.8685
925,1715411603940,2.27,-1.68,0.16,116.64,-269.84,533.14
926,1715411603950,2.27,-1.68,0.16,116.64,-269.84,533.14
927,1715411603960,2.27,-1.68,0.16,116.64,-269.84,533.14
928,1715411603970,2.27,-1.68,0.16,116.64,-269.84,533.14
929,1715411603980,2.5324299065420557,-1.607102803738318,0.45887850467289715,59.02084112149532,-35.80355140186914,573.3306542056074
930,1715411603990,2.63,-1.58,0.57,21.79,115.42,599.3
931,1715411604000,2.63,-1.58,0.57,21.79,115.42,599.3
932,1715411604010,2.63,-1.58,0.57,21.79,115.42,599.3
933,1715411604020,1.9202144772117962,-0.6620107238605898,-0.41423592493297584,-5.304879356568365,103.45774798927613,460.4470241286863
934,1715411604030,1.88,-0.61,-0.47,-6.84,102.78000000000002,452.58
935,1715411604040,1.8800000000000001,-0.61,-0.47000000000000003,-6.84,102.78,452.5799999999999
936,1715411604050,2.035785440613027,-0.7075478927203065,-0.3870114942528735,-44.224137931034484,115.86160919540231,450.8823754789272
937,1715411604060,2.95,-1.28,0.1,-263.61,192.63,440.92
938,1715411604070,2.95,-1.2800000000000002,0.1,-263.61,192.63,440.9200000000001
939,1715411604080,2.95,-1.28,0.1,-263.61,192.63,440.91999999999996
940,1715411604090,3.3525000000000005,-0.7083333333333334,-0.04000000000000001,-178.47000000000003,67.9175,320.490625
941,1715411604100,3.64,-0.3,-0.14,-15.930000000000001,-170.17,90.58
942,1715411604110,3.64,-0.3,-0.14,-15.93,-170.17,90.58
943,1715411604120,3.64,-0.3,-0.14,-15.93,-170.17000000000002,90.58
944,1715411604130,3.9761581920903954,-0.43446327683615815,0.3018079096045198,-21.322090395480224,-129.25926553672315,58.35853107344632
945,1715411604140,4.34,-0.58,0.78,-39.79,10.86,-52.0
946,1715411604150,4.34,-0.58,0.78,-39.79,10.860000000000001,-52.0
947,1715411604160,4.34,-0.58,0.78,-39.79,10.86,-52.0
948,1715411604170,4.094382978723404,-1.1184680851063828,0.17540425531914897,-14.696893617021276,79.67974468085106,-117.61804255319149
949,1715411604180,3.8200000000000003,-1.72,-0.5,27.22,194.64,-227.23
950,1715411604190,3.82,-1.7200000000000002,-0.5,27.22,194.63999999999996,-227.23
951,1715411604200,3.82,-1.72,-0.5,27.22,194.64,-227.23
952,1715411604210,3.6177528089887643,-1.540505617977528,-0.4747191011235955,26.54955056179775,188.01859550561795,-233.39775280898874
953,1715411604220,3.02,-1.01,-0.4,20.2,125.31,-291.81
954,1715411604230,3.02,-1.01,-0.4,20.2,125.31,-291.81
955,1715411604240,3.02,-1.01,-0.4,20.2,125.30999999999999,-291.81
956,1715411604250,2.4191150442477873,-0.9327433628318584,-0.08238938053097346,18.378141592920354,111.33986725663718,-358.8513274336283
957,1715411604260,2.32,-0.9200000000000002,-0.03,17.82,107.06,-379.39
958,1715411604270,2.32,-0.92,-0.03,17.82,107.06,-379.38999999999993
959,1715411604280,2.32,-0.9199999999999999,-0.03,17.82,107.06,-379.39
960,1715411604290,2.162686567164179,-0.5591044776119404,0.16432835820895522,85.43601990049751,49.235621890547264,-425.09845771144273
961,1715411604300,2.15,-0.53,0.18,113.53,25.21,-444.09
962,1715411604310,2.15,-0.53,0.18,113.53,25.21,-444.09000000000003
963,1715411604320,2.169820627802691,-0.5787892376681614,0.2242152466367713,114.13053811659194,26.72372197309417,-450.57
964,1715411604330,2.28,-0.85,0.47000000000000003,124.69,53.339999999999996,-564.51
965,1715411604340,2.28,-0.85,0.47,124.69,53.34,-564.51
966,1715411604350,2.28,-0.85,0.47,124.69,53.34,-564.51
967,1715411604360,2.317029288702929,-0.9586192468619247,0.4132217573221757,129.2523430962343,68.39087866108787,-580.7742677824267
968,1715411604370,2.43,-1.29,0.24,143.49,115.36,-631.53
969,1715411604380,2.43,-1.29,0.24,143.49,115.36,-631.5299999999999
970,1715411604390,2.43,-1.29,0.24000000000000002,143.49,115.36,-631.53
971,1715411604400,2.5567592592592594,-1.327685185185185,0.3599074074074074,119.48222222222222,136.1826388888889,-634.4270833333334
972,1715411604410,2.7999999999999994,-1.3999999999999997,0.59,41.809999999999995,203.55000000000004,-643.7999999999998
973,1715411604420,2.8,-1.4,0.59,41.81,203.55,-643.8
974,1715411604430,2.8,-1.4,0.59,41.81,203.55,-643.8
975,1715411604440,2.748486842105263,-1.6289473684210527,0.44690789473684217,64.29473684210527,223.1831578947368,-647.1489473684211
976,1715411604450,2.71,-1.8000000000000003,0.33999999999999997,102.84,256.84,-652.89
977,1715411604460,2.71,-1.8,0.34,102.84,256.84,-652.89
978,1715411604470,2.71,-1.8000000000000003,0.34,102.84,256.84,-652.89
979,1715411604480,2.2896330275229357,-1.8266055045871559,0.2761467889908257,173.34990825688072,187.39963302752292,-681.2780733944954
980,1715411604490,1.92,-1.85,0.22,235.35,126.34,-706.24
981,1715411604500,1.92,-1.85,0.22,235.35,126.34,-706.24
982,1715411604510,1.9199999999999997,-1.85,0.22000000000000003,235.35,126.34000000000002,-706.24
983,1715411604520,0.32740740740740737,-2.35,-0.3540740740740741,308.6466666666667,65.54666666666667,-628.1338888888889
984,1715411604530,-0.66,-2.66,-0.71,355.29,26.86,-578.43
985,1715411604540,-0.66,-2.66,-0.7100000000000001,355.29,26.86,-578.43
986,1715411604550,-0.66,-2.66,-0.71,355.29,26.859999999999996,-578.43
987,1715411604560,-2.593630769230769,-3.0526153846153847,-1.5639384615384617,155.5388,-92.9696,-219.90920000000003
988,1715411604570,-2.63,-3.06,-1.5799999999999998,128.3,-109.31,-171.02
989,1715411604580,-2.63,-3.06,-1.58,128.3,-109.31000000000002,-171.02
990,1715411604590,-2.6460000000000004,-3.0612307692307694,-1.452,121.42307692307695,-111.04435897435899,-151.46358974358975
991,1715411604600,-2.76,-3.07,-0.54,-5.8,-143.13,210.33
992,1715411604610,-2.76,-3.07,-0.54,-5.8,-143.13,210.33000000000004
993,1715411604620,-2.76,-3.07,-0.54,-5.8,-143.13,210.33
994,1715411604630,-0.9149999999999999,-2.3183333333333334,0.12055555555555557,33.94777777777778,-117.45635802469135,382.6625925925926
995,1715411604640,-0.33,-2.08,0.33,71.78,-93.02,546.69
996,1715411604650,-0.33,-2.08,0.33,71.78,-93.02,546.69
997,1715411604660,-0.33,-2.08,0.33,71.78,-93.02,546.69
998,1715411604670,1.1982213438735179,-1.9738735177865612,0.5139525691699605,-13.441660079051381,54.793913043478256,699.2488932806324
999,1715411604680,1.8300000000000003,-1.93,0.59,-59.68999999999999,135.01,782.04
1000,1715411604690,1.83,-1.9300000000000002,0.59,-59.69,135.01,782.04
1001,1715411604700,1.83,-1.93,0.59,-59.69,135.01,782.04
1002,1715411604710,2.268031914893617,-1.9802659574468087,0.4679255319148936,-210.94659574468085,150.5812765957447,830.1400531914893
1003,1715411604720,2.44,-2.0,0.42,-298.65,159.61,858.0299999999999
1004,1715411604730,2.44,-2.0,0.42000000000000004,-298.65,159.61,858.03
1005,1715411604740,2.44,-2.0,0.42,-298.65,159.61,858.0299999999999
1006,1715411604750,2.3703043478260875,-2.617304347826087,0.191,-218.01000000000002,-77.73565217391305,817.6826086956522
1007,1715411604760,2.37,-2.62,0.19,-210.33,-100.34,813.84
1008,1715411604770,2.37,-2.62,0.19,-210.32999999999998,-100.34,813.84
1009,1715411604780,2.37,-2.5771428571428574,0.18093406593406594,-210.33000000000004,-100.34,813.84
1010,1715411604790,2.37,-2.1,0.08,-23.791666666666668,-218.45800000000003,680.5393333333333
1011,1715411604800,2.37,-2.1,0.08,-20.63,-220.46000000000004,678.28
1012,1715411604810,2.37,-2.1,0.08,-20.63,-220.46,678.28
1013,1715411604820,2.37,-2.1,0.08,-20.63,-220.46,678.28
1014,1715411604830,2.479902280130293,-1.746742671009772,0.26055374592833874,-75.79091205211725,-212.54078175895768,568.3021498371336
1015,1715411604840,2.51,-1.65,0.31,-91.19,-210.33,537.6
1016,1715411604850,2.51,-1.65,0.31,-91.19,-210.33,537.6
1017,1715411604860,2.591,-1.3310625,0.5074375,-84.02125,-117.473375,537.053625
1018,1715411604870,2.67,-1.02,0.7,-72.69,29.3,536.19
1019,1715411604880,2.67,-1.02,0.7,-72.69,29.3,536.19
1020,1715411604890,2.67,-1.02,0.7,-72.69,29.3,536.19
1021,1715411604900,2.9390647482014387,-0.5372661870503597,0.09856115107913668,-99.89589928057555,82.0482014388489,434.61589928057555
1022,1715411604910,3.01,-0.41,-0.06,-112.92,107.3,385.99
1023,1715411604920,3.0099999999999993,-0.41,-0.06,-112.92,107.3,385.99000000000007
1024,1715411604930,3.049257425742574,-0.38747524752475243,-0.017524752475247526,-112.92,107.3,385.98999999999995
1025,1715411604940,3.6200000000000006,-0.06,0.6,41.14115853658536,-44.73548780487805,61.170731707317074
1026,1715411604950,3.62,-0.06,0.6,68.85,-72.08,2.75
1027,1715411604960,3.6199999999999997,-0.06,0.6,68.85,-72.08,2.75
1028,1715411604970,3.62,-0.05999999999999999,0.6,68.85,-72.08,2.75
1029,1715411604980,3.518679245283019,-0.9972169811320755,0.22849056603773585,51.357358490566035,-3.503207547169811,-103.25509433962263
1030,1715411604990,3.5,-1.17,0.16,46.51,15.5,-132.63
1031,1715411605000,3.5,-1.17,0.16,46.51,15.5,-132.63
1032,1715411605010,3.5,-1.17,0.16,46.51,15.5,-132.63
1033,1715411605020,3.4766467065868265,-1.2556287425149701,-0.04239520958083833,114.03125748502995,59.00209580838324,-229.5943113772455
1034,1715411605030,3.47,-1.28,-0.1,149.96,82.15,-281.19
1035,1715411605040,3.4699999999999998,-1.28,-0.1,149.96,82.15,-281.19
1036,1715411605050,3.4699999999999998,-1.28,-0.1,149.96,82.15,-281.19
1037,1715411605060,3.6001115241635686,-1.317174721189591,-0.2579925650557621,82.29271375464684,62.46598513011152,-337.686282527881
1038,1715411605070,3.61,-1.32,-0.27,77.15,60.970000000000006,-341.98
1039,1715411605080,3.61,-1.32,-0.27,77.15,60.97,-341.98
1040,1715411605090,3.418503937007874,-1.2122834645669291,-0.11141732283464569,77.15,60.97,-341.98
1041,1715411605100,2.97,-0.96,0.26,13.44037037037037,152.4225925925926,-403.6385185185185
1042,1715411605110,2.97,-0.96,0.26,10.99,155.94,-406.01
1043,1715411605120,2.97,-0.96,0.26,10.99,155.94,-406.01
1044,1715411605130,2.905909090909091,-0.9409090909090909,0.24363636363636365,29.900965909090907,147.57375,-416.85659090909087
1045,1715411605140,2.5,-0.82,0.14,155.7,91.92,-489.01
1046,1715411605150,2.5,-0.82,0.14,155.7,91.92,-489.00999999999993
1047,1715411605160,2.5,-0.82,0.14,155.7,91.92,-489.01
1048,1715411605170,2.5763636363636366,-0.7563636363636363,0.3224242424242424,164.67787878787877,72.70509090909091,-533.5139393939394
1049,1715411605180,2.68,-0.67,0.57,183.65,32.1,-627.56
1050,1715411605190,2.68,-0.67,0.57,183.65,32.1,-627.56
1051,1715411605200,,,,,,
1052,1715411605210,,,,,,
1053,1715411605220,2.6515,-1.2970000000000002,0.57,134.022,142.623,-662.7004999999999
1054,1715411605230,2.65,-1.33,0.57,131.41,148.44,-664.55
1055,1715411605240,2.65,-1.33,0.57,131.41,148.44,-664.55
1056,1715411605250,2.752028985507246,-1.6082608695652172,0.6534782608695653,156.1068115942029,153.55922705314012,-706.5587922705313
1057,1715411605260,2.76,-1.63,0.66,159.97,154.36,-713.13
1058,1715411605270,2.76,-1.6299999999999997,0.66,159.97,154.36,-713.13
1059,1715411605280,2.761125,-1.6435,0.6571875,159.97,154.36,-713.13
1060,1715411605290,2.78,-1.87,0.61,157.4612,140.9634,-714.8646
1061,1715411605300,2.78,-1.8699999999999999,0.61,157.41,140.69,-714.9
1062,1715411605310,2.78,-1.87,0.61,157.41,140.69,-714.9
1063,1715411605320,2.78,-1.87,0.61,157.41,140.69,-714.9
1064,1715411605330,2.2024999999999997,-2.1175,0.5183333333333333,193.88416666666666,147.565,-678.2058333333333
1065,1715411605340,2.15,-2.14,0.51,197.2,148.19,-674.87
1066,1715411605350,2.15,-2.14,0.51,197.2,148.19,-674.87
1067,1715411605360,1.0287387387387388,-2.886036036036036,-0.15216216216216216,212.86756756756756,155.91207207207208,-637.2315315315315
1068,1715411605370,-0.39,-3.8300000000000005,-0.99,253.29999999999998,175.84,-540.1
1069,1715411605380,-0.39,-3.83,-0.99,253.3,175.84,-540.1
1070,1715411605390,-0.39,-3.83,-0.99,253.30000000000004,175.84,-540.1
1071,1715411605400,-2.1596946564885493,-3.3561068702290076,-1.6712213740458013,202.19496183206107,39.667175572519085,-342.5140458015267
1072,1715411605410,-2.78,-3.19,-1.91,145.32,-111.88,-122.62
1073,1715411605420,-2.78,-3.19,-1.91,145.32,-111.88,-122.62
1074,1715411605430,-2.78,-3.19,-1.9100000000000001,145.32,-111.88,-122.62000000000002
1075,1715411605440,-2.3762790697674414,-2.8340310077519377,-1.2631782945736434,42.17023255813953,-84.08186046511628,-29.159534883720934
1076,1715411605450,-1.85,-2.37,-0.42,-224.3,-12.27,212.28
1077,1715411605460,-1.85,-2.37,-0.42,-224.3,-12.27,212.28
1078,1715411605470,-1.85,-2.37,-0.42000000000000004,-224.3,-12.27,212.28
1079,1715411605480,-0.9577209302325581,-2.5173488372093025,-0.25627906976744186,-323.52841860465116,-28.721953488372094,435.8678139534884
1080,1715411605490,-0.76,-2.55,-0.22,-356.81,-34.24,510.86
1081,1715411605500,-0.76,-2.55,-0.22,-356.81,-34.24,510.86
1082,1715411605510,-0.5588571428571428,-2.6012,-0.17977142857142858,-356.81,-34.24,510.86
1083,1715411605520,1.44,-3.11,0.22,-117.70221153846153,-289.3621153846154,724.5526923076923
1084,1715411605530,1.44,-3.11,0.22,-110.6,-296.94,730.9
1085,1715411605540,1.44,-3.11,0.22,-110.6,-296.94,730.9
1086,1715411605550,1.698984375,-3.185,0.216484375,-110.6,-296.94,730.9
1087,1715411605560,3.65,-3.75,0.19,98.87239130434781,-337.6610869565218,955.3280434782608
1088,1715411605570,3.65,-3.75,0.19,136.47,-344.97,995.61
1089,1715411605580,3.6499999999999995,-3.75,0.19,136.47,-344.97,995.61
1090,1715411605590,4.157462686567165,-3.3313432835820893,-0.2794029850746269,209.095,-275.2933582089552,1007.2114179104478
1091,1715411605600,4.45,-3.09,-0.55,253.72,-232.48,1014.34
1092,1715411605610,4.45,-3.09,-0.55,253.72,-232.48,1014.34
1093,1715411605620,4.45,-3.09,-0.55,253.71999999999997,-232.47999999999996,1014.3399999999999
1094,1715411605630,3.668730158730159,-2.6653968253968254,-0.23296296296296298,146.62,-90.44190476190477,843.1257142857144
1095,1715411605640,3.07,-2.34,0.01,28.81,65.8,654.79
1096,1715411605650,3.07,-2.34,0.01,28.81,65.8,654.79
1097,1715411605660,3.0699999999999994,-2.34,0.010000000000000002,28.809999999999995,65.8,654.79
1098,1715411605670,3.2449999999999997,-2.43390243902439,-0.20341463414634145,132.88378048780487,58.63353658536585,697.0717073170731
1099,1715411605680,3.48,-2.56,-0.49,272.64,49.01,753.85
1100,1715411605690,3.48,-2.56,-0.49,272.64,49.01,753.85
1101,1715411605700,3.48,-2.56,-0.49,272.64,49.01,753.85
1102,1715411605710,3.523720930232558,-1.0662015503875968,-0.694031007751938,89.38031007751938,210.93054263565892,680.3445736434109
1103,1715411605720,3.54,-0.51,-0.77,-91.06,370.36,607.97
1104,1715411605730,3.54,-0.51,-0.77,-91.06,370.36,607.97
1105,1715411605740,3.2906666666666666,-1.1956666666666667,-0.9626666666666667,-101.5544,174.4776,527.75
1106,1715411605750,3.1,-1.7199999999999998,-1.11,-109.8,20.57,464.72
1107,1715411605760,3.1,-1.7200000000000002,-1.11,-109.8,20.57,464.72
1108,1715411605770,3.1,-1.72,-1.11,-109.80000000000001,20.57,464.72
1109,1715411605780,3.7967058823529407,-0.4095294117647059,0.24194117647058824,-78.29652941176471,-41.077294117647064,272.6212941176471
1110,1715411605790,3.94,-0.14,0.52,-67.63,-61.95,207.58
1111,1715411605800,3.94,-0.14,0.52,-67.63,-61.95,207.58
1112,1715411605810,3.443357664233577,-0.48948905109489055,0.2946715328467154,-67.76204379562043,-16.5407299270073,160.66700729927007
1113,1715411605820,2.86,-0.9,0.03,-68.3,168.46,-30.46
1114,1715411605830,2.86,-0.9,0.030000000000000002,-68.3,168.46,-30.460000000000004
1115,1715411605840,2.86,-0.9,0.03,-68.3,168.46,-30.46
1116,1715411605850,2.86,-0.9,0.030000000000000002,-68.3,168.46,-30.46
1117,1715411605860,3.167704081632653,-1.5403571428571428,-0.40244897959183673,30.531224489795918,57.802959183673465,-213.69362244897957
1118,1715411605870,3.23,-1.67,-0.49,50.54,35.4,-250.79
1119,1715411605880,3.23,-1.6700000000000002,-0.48999999999999994,50.54,35.4,-250.78999999999996
1120,1715411605890,3.250756756756757,-1.7893513513513513,-0.18383783783783783,38.500702702702704,48.51772972972972,-283.7032972972973
1121,1715411605900,3.27,-1.9,0.1,19.17,69.58,-336.55
1122,1715411605910,3.2700000000000005,-1.9,0.1,19.17,69.58,-336.55
1123,1715411605920,3.27,-1.9,0.1,19.17,69.58,-336.55
1124,1715411605930,3.1744585987261145,-1.8044585987261148,0.06751592356687898,0.8241401273885357,110.44687898089173,-342.4047770700637
1125,1715411605940,2.77,-1.4,-0.07,-76.84,283.45,-367.19
1126,1715411605950,2.77,-1.4,-0.07,-76.84,283.45,-367.19
1127,1715411605960,2.77,-1.4,-0.07,-76.84,283.45,-367.19
1128,1715411605970,2.77,-1.2745806451612902,-0.09322580645161291,-4.479999999999998,226.31451612903226,-413.5881935483871
1129,1715411605980,2.77,-1.13,-0.12,130.86,119.45,-500.37
1130,1715411605990,2.77,-1.13,-0.12,130.86,119.45,-500.37
1131,1715411606000,2.796283185840708,-1.1387610619469024,-0.05283185840707964,130.86,119.45,-500.37
1132,1715411606010,3.04,-1.22,0.57,169.31599999999997,83.56360000000001,-627.3364
1133,1715411606020,3.04,-1.22,0.57,174.56,78.67,-644.65
1134,1715411606030,3.0400000000000005,-1.22,0.57,174.56000000000003,78.67,-644.65
1135,1715411606040,3.04,-1.22,0.57,174.56,78.67,-644.65
1136,1715411606050,2.8136898395721923,-1.6135828877005347,0.3240106951871658,167.89882352941174,150.93898395721925,-670.187165775401
1137,1715411606060,2.81,-1.62,0.32,166.2,169.37,-676.7
1138,1715411606070,2.81,-1.62,0.32,166.2,169.37,-676.7
1139,1715411606080,2.823,-1.6285,0.33,165.31799999999998,167.31300000000002,-679.4525000000001
1140,1715411606090,3.07,-1.79,0.52,148.56,128.23,-731.75
1141,1715411606100,3.07,-1.7899999999999998,0.52,148.56,128.23,-731.75
1142,1715411606110,3.07,-1.79,0.52,148.56,128.23,-731.75
1143,1715411606120,3.0124836601307186,-1.8527450980392155,0.47032679738562094,152.8607843137255,130.591045751634,-731.3200653594771
1144,1715411606130,2.85,-2.03,0.33,178.47,144.65,-728.76
1145,1715411606140,2.85,-2.03,0.33,178.47,144.65,-728.76
1146,1715411606150,2.85,-2.03,0.33,178.47,144.65,-728.76
1147,1715411606160,2.64,-2.117073170731707,0.4273170731707317,186.8879674796748,122.89243902439024,-738.1829268292682
1148,1715411606170,2.44,-2.2,0.52,200.5,87.71,-753.42
1149,1715411606180,2.44,-2.2,0.52,200.5,87.71,-753.42
1150,1715411606190,2.44,-2.2,0.52,200.5,87.71,-753.42
1151,1715411606200,1.0127272727272727,-2.4454545454545458,-0.007272727272727269,145.14727272727274,70.53181818181818,-701.929090909091
1152,1715411606210,0.8700000000000001,-2.47,-0.06,124.38999999999999,64.09,-682.62
1153,1715411606220,0.8700000000000001,-2.47,-0.06,124.38999999999999,64.09,-682.6199999999999
1154,1715411606230,0.87,-2.47,-0.06,124.39,64.09,-682.62
1155,1715411606240,-0.4473837209302326,-2.9959883720930236,-0.3736627906976744,58.73651162790698,63.74,-539.12
1156,1715411606250,-1.8600000000000003,-3.56,-0.71,-36.93,63.22999999999999,-330.02
1157,1715411606260,-1.86,-3.56,-0.71,-36.93,63.23,-330.02
1158,1715411606270,-1.86,-3.5600000000000005,-0.71,-36.93,63.23,-330.02
1159,1715411606280,-2.6828346456692915,-3.378110236220473,-1.2383464566929134,-29.75748031496063,20.194881889763778,-71.32921259842519
1160,1715411606290,-2.81,-3.35,-1.32,-26.92,3.17,31.01
1161,1715411606300,-2.81,-3.35,-1.32,-26.92,3.17,31.01
1162,1715411606310,-2.775153846153846,-3.3356923076923075,-1.3061538461538462,-26.92,3.17,31.01
1163,1715411606320,-1.3,-2.73,-0.72,-108.27671641791045,-107.13597014925372,392.6234328358209
1164,1715411606330,-1.3,-2.73,-0.72,-110.78000000000002,-110.53000000000002,403.75
1165,1715411606340,-1.3,-2.73,-0.72,-110.78,-110.53,403.75
1166,1715411606350,-1.3,-2.73,-0.72,-110.78,-110.53,403.75
1167,1715411606360,1.1050000000000002,-2.4885714285714284,-0.22785714285714287,-161.54454545454547,-148.75454545454545,674.949090909091
1168,1715411606370,1.29,-2.47,-0.19,-169.56,-154.79,717.77
1169,1715411606380,1.29,-2.47,-0.19,-169.56,-154.79,717.77
1170,1715411606390,2.245573770491803,-2.8983606557377053,-0.23942622950819673,-131.51270491803277,-178.5911475409836,810.2394262295081
1171,1715411606400,3.03,-3.25,-0.28,-74.83,-214.05,948.0
1172,1715411606410,3.03,-3.25,-0.28,-74.83,-214.05,948.0
1173,1715411606420,3.03,-3.25,-0.28,-74.83,-214.05,948.0
1174,1715411606430,3.422857142857143,-2.935064935064935,-0.4585714285714286,-59.444935064935066,-211.9562987012987,942.3370129870129
1175,1715411606440,4.24,-2.28,-0.83,49.87,-197.07999999999998,902.1
1176,1715411606450,4.24,-2.28,-0.83,49.87,-197.08,902.1
1177,1715411606460,4.24,-2.28,-0.8299999999999998,49.87,-197.08,902.1
1178,1715411606470,3.781315789473684,-2.4955263157894736,-0.43763157894736837,24.859473684210524,-174.35736842105266,852.6615789473684
1179,1715411606480,3.41,-2.67,-0.12,-2.93,-149.11,797.73
1180,1715411606490,3.41,-2.67,-0.12,-2.93,-149.11,797.73
1181,1715411606500,3.41,-2.67,-0.12,-2.93,-149.11,797.7299999999999
1182,1715411606510,3.377222222222222,-2.037857142857143,-0.28388888888888886,-0.24222222222222228,-127.07396825396826,716.6190476190476
1183,1715411606520,3.3400000000000003,-1.32,-0.4699999999999999,2.81,-102.05,624.51
1184,1715411606530,3.34,-1.32,-0.47,2.81,-102.05,624.51
1185,1715411606540,3.34,-1.32,-0.47,2.81,-102.05,624.51
1186,1715411606550,2.7215384615384615,-2.2338461538461543,-0.17461538461538462,-74.646,-91.41353846153847,624.2496923076923
1187,1715411606560,2.67,-2.31,-0.15,-104.31,-87.34,624.15
1188,1715411606570,2.67,-2.31,-0.15,-104.31,-87.34,624.15
1189,1715411606580,3.005,-2.1125000000000003,-0.22999999999999998,-92.12057692307692,-80.17461538461538,622.7528846153846
1190,1715411606590,4.01,-1.52,-0.47000000000000003,22.46,-12.82,609.62
1191,1715411606600,4.01,-1.52,-0.4699999999999999,22.46,-12.82,609.62
1192,1715411606610,4.01,-1.52,-0.47,22.46,-12.82,609.62
1193,1715411606620,3.87,-1.2327272727272727,-0.4572727272727273,10.332207792207793,-26.74077922077922,587.0958441558441
1194,1715411606630,3.24,0.06,-0.4,-133.18,-191.47,320.56
1195,1715411606640,3.24,0.06,-0.4,-133.18,-191.47,320.56
1196,1715411606650,3.24,0.06,-0.4,-133.18,-191.47,320.56
1197,1715411606660,3.24,0.06,-0.4,-133.18,-191.47,320.56
1198,1715411606670,3.24,0.06,-0.4,-133.18,-191.47,320.56
1199,1715411606680,3.510483870967742,-0.09725806451612903,0.36112903225806453,-15.38241935483871,-138.44556451612902,134.72919354838712
1200,1715411606690,3.67,-0.19,0.81,56.52,-106.08,21.3
1201,1715411606700,3.6647712418300658,-0.20797385620915032,0.7694771241830065,53.65169934640524,-95.20549019607843,15.850653594771243
1202,1715411606710,3.5100000000000002,-0.7400000000000001,-0.43,-31.25,226.68,-145.45
1203,1715411606720,3.51,-0.74,-0.43,-31.25,226.68,-145.45
1204,1715411606730,3.5099999999999993,-0.74,-0.43,-31.25,226.67999999999998,-145.45
1205,1715411606740,3.4750735294117647,-1.3407352941176471,-0.5627205882352941,-0.13029411764705792,164.7560294117647,-275.07338235294117
1206,1715411606750,3.46,-1.6,-0.62,23.01,118.71,-371.46
1207,1715411606760,3.46,-1.6,-0.62,23.01,118.71,-371.46
1208,1715411606770,3.46,-1.6000000000000003,-0.6199999999999999,23.01,118.71,-371.46
1209,1715411606780,3.484146341463415,-1.6965853658536585,-0.3382926829268293,9.712439024390244,129.29146341463414,-425.85268292682923
1210,1715411606790,3.49,-1.72,-0.27,4.21,133.67,-448.36
1211,1715411606800,3.4900000000000007,-1.72,-0.27,4.21,133.67,-448.36
1212,1715411606810,3.49,-1.72,-0.27,4.21,133.67,-448.35999999999996
1213,1715411606820,3.0973170731707316,-1.1821951219512195,-0.2785365853658537,-39.087560975609755,211.50658536585365,-461.1819512195122
1214,1715411606830,3.03,-1.09,-0.28,-46.51,224.85000000000002,-463.38000000000005
1215,1715411606840,3.03,-1.09,-0.28,-46.51,224.85,-463.38
1216,1715411606850,2.7566666666666664,-1.1051851851851853,-0.1964814814814815,-36.03777777777778,222.68333333333334,-469.217962962963
1217,1715411606860,2.67,-1.11,-0.17,-29.11,221.25,-473.08
1218,1715411606870,2.67,-1.11,-0.17,-29.11,221.25,-473.08
1219,1715411606880,2.67,-1.11,-0.17,-29.11,221.25,-473.08
1220,1715411606890,2.769658119658119,-1.2187179487179487,0.26487179487179485,91.16222222222221,161.9777777777778,-546.6633333333333
1221,1715411606900,2.78,-1.23,0.31,187.38,114.56,-605.53
1222,1715411606910,2.78,-1.23,0.31,187.38,114.56,-605.53
1223,1715411606920,2.818524590163934,-1.2472131147540984,0.3181967213114754,186.98868852459015,115.09229508196721,-606.4055737704917
1224,1715411606930,3.25,-1.44,0.41,163.51,147.03,-658.94
1225,1715411606940,3.25,-1.44,0.41,163.51,147.03,-658.94
1226,1715411606950,3.25,-1.44,0.41,163.51,147.03,-658.94
1227,1715411606960,3.2773966942148762,-1.4980165289256198,0.4261157024793388,161.0081818181818,144.83818181818182,-665.8863636363636
1228,1715411606970,3.42,-1.8,0.51,135.99,122.92,-735.35
1229,1715411606980,3.42,-1.8,0.51,135.99,122.92,-735.35
1230,1715411606990,3.42,-1.8,0.51,135.99,122.92,-735.35
1231,1715411607000,3.42,-1.8000000000000003,0.51,135.99,122.92000000000002,-735.35
1232,1715411607010,3.1681224489795916,-2.074775510204082,0.2657551020408163,164.90240816326528,147.62800000000001,-744.0642040816327
1233,1715411607020,3.09,-2.16,0.19,176.7,157.71,-747.62
1234,1715411607030,3.0899999999999994,-2.16,0.18999999999999997,176.7,157.71,-747.62
1235,1715411607040,3.09,-2.16,0.19,176.7,157.71,-747.62
1236,1715411607050,2.1466355140186915,-2.22411214953271,0.29990654205607475,218.43644859813085,7.965140186915889,-760.7583177570093
1237,1715411607060,2.06,-2.23,0.31,226.32,-20.32,-763.24
1238,1715411607070,2.06,-2.23,0.31,226.32,-20.32,-763.24
1239,1715411607080,0.7417695473251029,-2.645390946502058,-0.11810699588477365,180.62123456790124,21.728395061728392,-691.7190123456791
1240,1715411607090,-1.05,-3.21,-0.7,94.12,101.32,-556.34
1241,1715411607100,-1.05,-3.21,-0.7,94.12,101.32,-556.34
1242,1715411607110,-1.05,-3.21,-0.7,94.12,101.32,-556.34
1243,1715411607120,-1.381304347826087,-3.241304347826087,-0.577391304347826,83.79608695652175,66.94173913043478,-480.82695652173913
1244,1715411607130,-2.32,-3.33,-0.23,46.63,-56.82,-208.98
1245,1715411607140,-2.32,-3.33,-0.23,46.63,-56.82,-208.98
1246,1715411607150,-2.32,-3.33,-0.23000000000000004,46.63,-56.82,-208.98
1247,1715411607160,-2.317254901960784,-3.2613725490196077,-0.21901960784313723,28.270915032679742,-41.61869281045752,-127.84823529411764
1248,1715411607170,-2.31,-3.0799999999999996,-0.19,-50.23,23.380000000000003,219.06
1249,1715411607180,-2.31,-3.08,-0.19,-50.23,23.38,219.06
1250,1715411607190,-2.31,-3.08,-0.19,-50.23,23.38,219.06
1251,1715411607200,-0.9502222222222222,-2.6224444444444446,-0.0031111111111111083,-71.77155555555555,27.2117037037037,358.8504444444444
1252,1715411607210,-0.2,-2.37,0.1,-105.1,33.14,575.13
1253,1715411607220,-0.2,-2.37,0.1,-105.1,33.14,575.13
1254,1715411607230,-0.2,-2.37,0.1,-105.1,33.14,575.13
1255,1715411607240,1.0227807486631018,-2.565882352941177,0.2009090909090909,-111.07754010695187,11.69957219251337,696.8651871657754
1256,1715411607250,1.8599999999999999,-2.7,0.27,-117.25,-10.44,822.5699999999999
1257,1715411607260,1.86,-2.7,0.27,-117.25,-10.44,822.57
1258,1715411607270,1.86,-2.7,0.27,-117.25,-10.44,822.57
1259,1715411607280,3.2403864734299517,-3.1044444444444443,-0.0641062801932367,10.311739130434784,-112.35845410628019,936.5873913043478
1260,1715411607290,3.43,-3.16,-0.10999999999999999,32.78,-130.31,956.67
1261,1715411607300,3.43,-3.16,-0.11,32.78,-130.31,956.67
1262,1715411607310,3.43,-3.16,-0.11,32.78,-130.31,956.67
1263,1715411607320,3.470886075949367,-3.0613924050632915,-0.0210126582278481,47.7226582278481,-117.18556962025316,933.196582278481
1264,1715411607330,3.6000000000000005,-2.75,0.26,94.91,-75.74,859.0700000000002
1265,1715411607340,3.6,-2.75,0.26,94.91,-75.74,859.07
1266,1715411607350,3.2399999999999998,-2.4663636363636363,-0.08363636363636363,50.91090909090909,-21.955454545454543,819.0378787878788
1267,1715411607360,2.94,-2.23,-0.37,-16.78,60.78999999999999,757.45
1268,1715411607370,2.94,-2.23,-0.36999999999999994,-16.78,60.79,757.4500000000002
1269,1715411607380,2.94,-2.23,-0.37,-16.78,60.79,757.45
1270,1715411607390,2.94,-2.23,-0.37,-16.78,60.79,757.45
1271,1715411607400,2.94,-2.23,-0.37,-16.78,60.79,757.45
1272,1715411607410,2.8624313725490196,-2.2029411764705884,-0.36819607843137253,-16.78,60.79,757.45
1273,1715411607420,2.51,-2.08,-0.36,-16.78,60.79,757.45
1274,1715411607430,2.7774045801526714,-1.9735114503816795,-0.3055725190839695,-20.810000000000002,80.31763358778626,727.581145038168
1275,1715411607440,3.64,-1.63,-0.13,-33.81,143.31,631.23
1276,1715411607450,3.64,-1.63,-0.13,-33.81,143.31,631.23
1277,1715411607460,3.46031007751938,-1.7671317829457363,-0.74,-11.030930232558141,30.55186046511628,563.0532558139535
1278,1715411607470,3.26,-1.92,-1.42,31.489999999999995,-179.93,435.79
1279,1715411607480,3.26,-1.92,-1.42,31.49,-179.93,435.79
1280,1715411607490,3.26,-1.92,-1.42,31.49,-179.93,435.79
1281,1715411607500,3.26,-1.92,-1.42,31.49,-179.93,435.79
1282,1715411607510,4.434193548387097,-0.5011827956989248,-0.2597849462365591,-61.58580645161291,-49.00741935483872,342.1131182795699
1283,1715411607520,4.94,0.11,0.24,-101.67999999999999,7.39,301.76
1284,1715411607530,4.94,0.11,0.24,-101.68,7.39,301.76
1285,1715411607540,4.242619047619048,-0.36614285714285716,-0.029333333333333343,-82.33609523809524,122.48671428571429,123.77876190476191
1286,1715411607550,3.49,-0.88,-0.32,-61.46000000000001,246.7,-68.3
1287,1715411607560,3.4899999999999998,-0.88,-0.32,-61.46,246.70000000000002,-68.3
1288,1715411607570,3.49,-0.88,-0.32,-61.46000000000001,246.7,-68.3
1289,1715411607580,3.585722543352601,-1.2682080924855492,-0.5965317919075145,-3.436416184971097,200.88034682080928,-158.4193063583815
1290,1715411607590,3.6699999999999995,-1.61,-0.84,70.62,142.4,-273.44
1291,1715411607600,3.67,-1.61,-0.84,70.62,142.4,-273.44
