id,timestamp,acc_x,acc_y,acc_z,gyro_x,gyro_y,gyro_z
0,1715534611890,-3.79,-0.54,5.19,-63.42,122.92,-114.81
1,1715534611900,-4.438,-0.284,5.422000000000001,-40.788,7.492000000000004,-141.20999999999998
2,1715534611910,-4.6,-0.22,5.48,-25.7,-69.46,-158.81
3,1715534611920,-4.6,-0.22000000000000003,5.48,-25.7,-69.46,-158.81
4,1715534611930,-4.6,-0.22,5.48,-25.7,-69.46,-158.81
5,1715534611940,-3.66,-0.24,4.433333333333334,107.07333333333334,-12.413333333333332,-25.143333333333334
6,1715534611950,-3.19,-0.25,3.91,173.46,16.11,41.69
7,1715534611960,-3.19,-0.25,3.91,173.46,16.11,41.69
8,1715534611970,-3.19,-0.25,3.91,173.46,16.11,41.69
9,1715534611980,-2.2066666666666666,-0.5,2.626666666666667,216.54333333333332,53.49333333333333,113.86500000000001
10,1715534611990,-2.01,-0.55,2.37,225.16,60.970000000000006,128.3
11,1715534612000,-2.01,-0.55,2.37,225.16,60.97,128.3
12,1715534612010,-1.9216666666666666,-0.5316666666666667,2.1300000000000003,225.16,60.97,128.3
13,1715534612020,-1.48,-0.44000000000000006,0.93,391.48,77.88,310.18
14,1715534612030,-1.4799999999999998,-0.44,0.93,391.48,77.88,310.18
15,1715534612040,-1.48,-0.44000000000000006,0.93,391.48,77.88,310.18
16,1715534612050,-1.4366666666666665,-0.5299999999999999,0.8233333333333334,391.48,77.88,310.18
17,1715534612060,-1.22,-0.9800000000000001,0.29,364.528,87.936,395.284
18,1715534612070,-1.22,-0.9800000000000001,0.29,357.79,90.45,416.56000000000006
19,1715534612080,-1.22,-0.98,0.29,357.79,90.45,416.56
20,1715534612090,-1.124,-1.154,0.25999999999999995,275.72200000000004,5.31,439.192
21,1715534612100,-1.06,-1.27,0.24,221.01,-51.45,454.2799999999999
22,1715534612110,-1.06,-1.27,0.24,221.01,-51.45,454.2799999999999
23,1715534612120,-1.06,-1.27,0.24,221.01,-51.45,454.2799999999999
24,1715534612130,-0.9550000000000001,-1.3,0.345,195.665,-79.94,429.6375
25,1715534612140,-0.64,-1.39,0.66,119.63,-165.41,355.71
26,1715534612150,-0.64,-1.39,0.66,119.63,-165.41,355.71
27,1715534612160,-0.64,-1.39,0.66,119.63,-165.41,355.71
28,1715534612170,-0.76,-1.174,0.524,102.24600000000001,-177.762,269.726
29,1715534612180,-0.79,-1.12,0.49,97.9,-180.85,248.23
30,1715534612190,-0.79,-1.12,0.49,97.9,-180.85,248.23
31,1715534612200,-0.79,-1.12,0.49,97.9,-180.85,248.23
32,1715534612210,-0.79,-1.12,0.49,97.9,-180.85,248.23
33,1715534612220,-0.52,-1.03,0.36,119.14,-146.67,218.02
34,1715534612230,-0.52,-1.03,0.36,119.14,-146.67,218.02
35,1715534612240,-0.52,-1.03,0.36,119.14,-146.67,218.02
36,1715534612250,-0.54,-0.7799999999999999,0.22,81.36,-112.0,192.5
37,1715534612260,-0.54,-0.78,0.22,81.36,-112.0,192.5
38,1715534612270,-0.54,-0.78,0.22,81.36,-112.0,192.5
39,1715534612280,-0.54,-0.7799999999999999,0.22,81.36,-112.0,192.5
40,1715534612290,-0.54,-0.78,0.22,81.36,-112.0,192.5
41,1715534612300,-0.54,-0.7799999999999999,0.22,81.36,-112.0,192.5
42,1715534612310,-0.54,-0.78,0.22,81.36,-112.0,192.5
43,1715534612320,-0.54,-0.7799999999999999,0.22,81.36,-112.0,192.5
44,1715534612330,-0.54,-0.78,0.22,81.36,-112.0,192.5
45,1715534612340,-0.54,-0.7799999999999999,0.22,81.36,-112.0,192.5
46,1715534612350,-0.54,-0.78,0.22,81.36,-112.0,192.5
47,1715534612360,-0.54,-0.7799999999999999,0.22,81.36,-112.0,192.5
48,1715534612370,-0.54,-0.7799999999999999,0.22,81.36,-112.0,192.5
49,1715534612380,1.76,-0.1,-0.75,338.87,67.5,248.72
50,1715534612390,1.76,-0.1,-0.75,338.87,67.5,248.72
51,1715534612400,3.425,-0.205,-2.25,274.0475,114.6975,109.88
52,1715534612410,3.98,-0.24,-2.75,252.44,130.43,63.6
53,1715534612420,3.98,-0.24,-2.75,252.43999999999997,130.43,63.6
54,1715534612430,3.98,-0.24,-2.75,252.44,130.43,63.6
55,1715534612440,3.77,-0.69,-2.19,45.41,-27.59,-94.97
56,1715534612450,3.77,-0.69,-2.19,45.41,-27.59,-94.97
57,1715534612460,3.77,-0.69,-2.19,45.41,-27.59,-94.97
58,1715534612470,3.77,-0.69,-2.19,45.41,-27.59,-94.97
59,1715534612480,0.89,-1.12,-1.12,25.02,4.88,-318.6
60,1715534612490,0.89,-1.12,-1.12,25.02,4.88,-318.6
61,1715534612500,0.89,-1.12,-1.12,25.02,4.88,-318.6
62,1715534612510,0.55,-1.08,-0.9875,-5.649999999999999,-10.6075,-321.225
63,1715534612520,-0.47,-0.96,-0.59,-97.66000000000001,-57.07,-329.1
64,1715534612530,-0.47,-0.96,-0.59,-97.66,-57.07,-329.1
65,1715534612540,-0.47,-0.96,-0.59,-97.66000000000001,-57.07,-329.1
66,1715534612550,-0.47,-0.96,-0.59,-97.66,-57.07,-329.1
67,1715534612560,-0.81,-1.05,0.47,-235.17,109.01,-337.59
68,1715534612570,-0.81,-1.05,0.47,-235.17,109.01,-337.59
69,1715534612580,-1.19,-1.1400000000000001,0.595,-235.17,109.01,-337.59
70,1715534612590,-1.57,-1.23,0.72,-231.02,153.44,-307.07
71,1715534612600,-1.57,-1.23,0.7200000000000001,-231.02,153.44,-307.07
72,1715534612610,-1.57,-1.23,0.72,-231.02,153.44,-307.07
73,1715534612620,-1.4966666666666668,-1.2466666666666668,0.7266666666666666,-221.41666666666666,106.34333333333332,-309.39
74,1715534612630,-1.35,-1.28,0.74,-202.21,12.15,-314.03
75,1715534612640,-1.3500000000000003,-1.28,0.7399999999999999,-202.21,12.15,-314.03
76,1715534612650,-1.35,-1.28,0.74,-202.21,12.15,-314.03
77,1715534612660,-1.14,-1.2,0.6999999999999998,-229.61,37.17,-291.69
78,1715534612670,-1.14,-1.2,0.7,-229.61,37.17,-291.69
79,1715534612680,-1.14,-1.2,0.7,-229.61,37.17,-291.69
80,1715534612690,-1.14,-1.2,0.6999999999999998,-229.61,37.17,-291.69
81,1715534612700,-1.05,-1.2,0.9,-286.74333333333334,-8.323333333333332,-313.25666666666666
82,1715534612710,-1.05,-1.2,0.9,-315.31,-31.07,-324.04
83,1715534612720,-1.05,-1.2,0.9,-315.31,-31.070000000000004,-324.04
84,1715534612730,-1.0325,-1.2025,0.915,-294.0225,-4.762500000000003,-323.87
85,1715534612740,-0.98,-1.21,0.96,-230.16,74.16,-323.36
86,1715534612750,-0.98,-1.21,0.96,-230.16,74.16,-323.36
87,1715534612760,-0.98,-1.21,0.96,-230.16,74.16,-323.36
88,1715534612770,-1.0175,-1.1225,0.99,-225.935,77.5175,-312.5575
89,1715534612780,-1.13,-0.86,1.08,-213.26,87.58999999999999,-280.15
90,1715534612790,-1.13,-0.86,1.08,-213.26,87.58999999999999,-280.15
91,1715534612800,-1.13,-0.86,1.08,-213.26,87.58999999999999,-280.15
92,1715534612810,-1.13,-0.86,1.08,-213.26,87.59,-280.15
93,1715534612820,-1.13,-0.86,1.08,-213.26,87.58999999999999,-280.15
94,1715534612830,-1.13,-0.86,1.08,-213.26,87.59,-280.15
95,1715534612840,-1.13,-0.86,1.08,-213.26,87.58999999999999,-280.15
96,1715534612850,-1.13,-0.86,1.08,-213.26,87.59,-280.15
97,1715534612860,-1.13,-0.86,1.08,-213.26,87.59,-280.15
98,1715534612870,-1.13,-0.86,1.08,-213.26,87.59,-280.15
99,1715534612880,-1.13,-0.86,1.08,-213.26,87.58999999999999,-280.15
100,1715534612890,-1.13,-0.86,1.08,-213.26,87.58999999999999,-280.15
101,1715534612900,-2.995,0.0050000000000000044,2.265,-140.69,60.06,-195.64999999999998
102,1715534612910,-4.86,0.87,3.4500000000000006,-68.12,32.53,-111.15000000000002
103,1715534612920,-4.86,0.87,3.4500000000000006,-68.12,32.53,-111.15000000000002
104,1715534612930,-5.95,0.11,3.22,53.89,7.26,-19.35
105,1715534612940,-5.95,0.11,3.22,53.89,7.26,-19.35
106,1715534612950,-5.95,0.11,3.22,53.89000000000001,7.260000000000001,-19.35
107,1715534612960,-5.657500000000001,0.05,3.015,53.89,7.26,-19.35
108,1715534612970,-4.78,-0.13,2.4,119.57,-14.949999999999998,179.38
109,1715534612980,-4.78,-0.13,2.4,119.57,-14.949999999999998,179.38
110,1715534612990,-4.78,-0.13,2.4,119.57,-14.949999999999998,179.38
111,1715534613000,-4.3,-0.10500000000000001,2.205,119.57,-14.95,179.38
112,1715534613010,-2.86,-0.03,1.62,191.47,-49.32,266.97
113,1715534613020,-2.86,-0.03,1.62,191.47,-49.32,266.97
114,1715534613030,-2.86,-0.03,1.62,191.47,-49.32,266.97
115,1715534613040,-2.5949999999999998,-0.11499999999999999,1.465,217.2725,-19.869999999999997,292.77250000000004
116,1715534613050,-1.8,-0.36999999999999994,1.0,294.68,68.48,370.18
117,1715534613060,-1.8,-0.36999999999999994,1.0,294.68,68.48,370.18
118,1715534613070,-1.8,-0.37,1.0,294.68,68.48,370.18
119,1715534613080,-1.8,-0.36999999999999994,1.0,294.68,68.48,370.18
120,1715534613090,-1.5199999999999998,-0.8033333333333333,0.5533333333333333,281.0466666666667,127.44,456.32
121,1715534613100,-1.38,-1.02,0.33,274.23,156.92,499.39
122,1715534613110,-1.38,-1.02,0.33,274.23,156.92,499.39000000000004
123,1715534613120,-1.2566666666666666,-1.1366666666666667,0.38999999999999996,220.60000000000002,121.76333333333332,499.7966666666666
124,1715534613130,-1.01,-1.37,0.51,113.34,51.45,500.61
125,1715534613140,-1.01,-1.37,0.51,113.34,51.45,500.61
126,1715534613150,-1.01,-1.37,0.51,113.34,51.45,500.61
127,1715534613160,-1.0433333333333332,-1.3733333333333333,0.6266666666666666,77.16666666666667,56.88333333333333,473.73333333333335
128,1715534613170,-1.11,-1.38,0.86,4.82,67.75,419.98
129,1715534613180,-1.11,-1.38,0.86,4.82,67.75,419.98
130,1715534613190,-1.34,-1.3299999999999998,0.8433333333333334,4.82,67.75,419.98
131,1715534613200,-1.8,-1.23,0.81,-17.7,154.97,376.28
132,1715534613210,-1.8,-1.23,0.81,-17.7,154.97,376.28
133,1715534613220,-1.8,-1.23,0.81,-17.7,154.97,376.28
134,1715534613230,-1.7666666666666666,-1.23,0.7333333333333334,-8.463333333333333,97.06666666666666,377.93
135,1715534613240,-1.7,-1.23,0.58,10.01,-18.74,381.23
136,1715534613250,-1.7,-1.23,0.58,10.01,-18.74,381.23
137,1715534613260,-1.7,-1.23,0.58,10.01,-18.74,381.23
138,1715534613270,-1.2066666666666668,-1.19,0.3933333333333333,33.49,-67.93333333333334,383.87000000000006
139,1715534613280,-0.96,-1.17,0.3,45.23,-92.53,385.19
140,1715534613290,-0.96,-1.17,0.3,45.23,-92.53,385.19
141,1715534613300,-0.96,-1.17,0.3,45.23,-92.53000000000002,385.19
142,1715534613310,-0.63,-1.125,0.16999999999999998,35.83,-46.45,349.24
143,1715534613320,-0.3,-1.08,0.04,26.429999999999996,-0.36999999999999994,313.29
144,1715534613330,-0.3,-1.08,0.04,26.429999999999996,-0.36999999999999994,313.29
145,1715534613340,-0.3,-1.08,0.04,26.43,-0.37,313.29
146,1715534613350,-0.3,-1.08,0.04,26.429999999999996,-0.36999999999999994,313.29
147,1715534613360,-0.3,-1.08,0.04,26.429999999999996,-0.36999999999999994,313.29
148,1715534613370,-0.3,-1.08,0.04,26.429999999999996,-0.36999999999999994,313.29
149,1715534613380,-0.3,-1.08,0.04,26.43,-0.37,313.29
150,1715534613390,-0.3,-1.08,0.04,26.43,-0.37,313.29
151,1715534613400,-0.3,-1.08,0.04,26.43,-0.37,313.29
152,1715534613410,-0.3,-1.08,0.04,26.429999999999996,-0.36999999999999994,313.29
153,1715534613420,0.15333333333333335,-1.18,0.03333333333333333,60.85333333333333,107.23666666666666,296.06
154,1715534613430,3.4,-2.44,2.58,71.78,44.07,85.57
155,1715534613440,3.4,-2.44,2.58,71.78,44.07,85.57
156,1715534613450,3.4,-2.44,2.58,71.78,44.07,85.57
157,1715534613460,3.4566666666666666,-2.183333333333333,2.4,71.78,44.07,85.57
158,1715534613470,3.57,-1.67,2.04,121.35499999999999,-234.21000000000004,-65.58500000000001
159,1715534613480,3.57,-1.67,2.04,137.88,-326.97,-115.96999999999998
160,1715534613490,3.57,-1.67,2.04,137.88,-326.97,-115.96999999999998
161,1715534613500,2.58,-1.68,1.465,173.37,-275.425,-159.06
162,1715534613510,1.59,-1.6900000000000002,0.89,208.86,-223.88,-202.15
163,1715534613520,1.59,-1.6900000000000002,0.89,208.86,-223.88,-202.15
164,1715534613530,1.59,-1.6900000000000002,0.89,208.86,-223.88,-202.15
165,1715534613540,0.13500000000000004,-1.5175,0.215,215.865,-212.89249999999998,-307.39
166,1715534613550,-0.3499999999999999,-1.46,-0.01,218.19999999999996,-209.23,-342.47
167,1715534613560,-0.35,-1.46,-0.01,218.2,-209.23,-342.47
168,1715534613570,-0.3499999999999999,-1.46,-0.01,218.19999999999996,-209.23,-342.47
169,1715534613580,-1.5425,-1.6025,-0.19,159.5125,-211.6975,-465.425
170,1715534613590,-1.9400000000000002,-1.6499999999999997,-0.25,139.95,-212.52,-506.41
171,1715534613600,-1.9400000000000002,-1.6499999999999997,-0.25,139.95,-212.52,-506.41
172,1715534613610,-1.9400000000000002,-1.6499999999999997,-0.25,139.95,-212.52,-506.41
173,1715534613620,-3.2466666666666666,-1.5233333333333334,-0.49,113.99000000000001,-147.54,-543.8033333333334
174,1715534613630,-3.9,-1.46,-0.61,101.01,-115.05,-562.5
175,1715534613640,-3.9,-1.46,-0.61,101.01,-115.05,-562.5
176,1715534613650,-3.9,-1.46,-0.61,101.01,-115.05,-562.5
177,1715534613660,-2.79,-0.87,-0.01,-53.83,-355.35,-394.59
178,1715534613670,-2.79,-0.87,-0.01,-53.83,-355.35,-394.59
179,1715534613680,-2.79,-0.87,-0.01,-53.83,-355.35,-394.59
180,1715534613690,-2.39,-0.895,0.13499999999999998,-53.83,-355.35,-394.59
181,1715534613700,-1.19,-0.9700000000000001,0.57,-12.530000000000001,-261.72,-349.83
182,1715534613710,-1.19,-0.97,0.57,70.07,-74.46,-260.31
183,1715534613720,-1.19,-0.97,0.57,70.07,-74.46,-260.31
184,1715534613730,-1.2,-0.88,0.38,79.68,0.15500000000000114,-271.78499999999997
185,1715534613740,-1.21,-0.79,0.19000000000000003,89.29,74.77,-283.26
186,1715534613750,-1.21,-0.79,0.19,89.29,74.77,-283.26
187,1715534613760,-1.21,-0.79,0.19000000000000003,89.29,74.77,-283.26
188,1715534613770,-1.3633333333333333,-0.6433333333333333,0.10333333333333333,89.29,74.77,-283.26
189,1715534613780,-1.4400000000000002,-0.57,0.06,45.31,-95.84333333333335,-367.98
190,1715534613790,-1.4400000000000002,-0.57,0.06,23.320000000000004,-181.15,-410.34
191,1715534613800,-1.4400000000000002,-0.57,0.06,23.320000000000004,-181.15,-410.34
192,1715534613810,-1.4024999999999999,-0.435,0.165,-29.555,-298.24749999999995,-452.91
193,1715534613820,-1.39,-0.39,0.2,-47.18,-337.28,-467.1
194,1715534613830,-1.39,-0.38999999999999996,0.20000000000000004,-47.18,-337.28,-467.1000000000001
195,1715534613840,-1.39,-0.39,0.2,-47.18,-337.28,-467.1
196,1715534613850,-2.7000000000000006,0.14,0.34,-14.14,-133.70666666666668,-438.4533333333334
197,1715534613860,-2.7000000000000006,0.14,0.34,2.38,-31.92,-424.12999999999994
198,1715534613870,-2.7,0.14,0.34,2.38,-31.92,-424.13
199,1715534613880,-2.7000000000000006,0.14,0.34,2.38,-31.92,-424.12999999999994
200,1715534613890,-2.7,0.14,0.34,2.38,-31.92,-424.13
201,1715534613900,-2.7000000000000006,0.14,0.34,2.38,-31.92,-424.12999999999994
202,1715534613910,-2.7,0.14,0.34,2.38,-31.92,-424.13
203,1715534613920,-2.7000000000000006,0.14,0.34,2.38,-31.92,-424.12999999999994
204,1715534613930,-2.7000000000000006,0.14,0.34,2.38,-31.92,-424.12999999999994
205,1715534613940,-2.7,0.14,0.34,2.38,-31.92,-424.13
206,1715534613950,-5.93,0.5,-0.6999999999999998,39.18,-53.65,-28.38
207,1715534613960,-5.916666666666667,0.14,-0.7999999999999999,49.43666666666667,5.349999999999999,43.47666666666667
208,1715534613970,-5.89,-0.58,-1.0,69.95,123.35,187.19
209,1715534613980,-5.89,-0.58,-1.0,69.95,123.34999999999998,187.18999999999997
210,1715534613990,-5.89,-0.58,-1.0,69.95,123.34999999999998,187.18999999999997
211,1715534614000,-5.89,-0.58,-1.0,69.95,123.35,187.19
212,1715534614010,-4.43,-0.5533333333333333,-0.66,17.05,30.74333333333333,248.15
213,1715534614020,-3.7000000000000006,-0.54,-0.49,-9.4,-15.56,278.63
214,1715534614030,-3.7000000000000006,-0.54,-0.49,-9.4,-15.56,278.63
215,1715534614040,-2.9333333333333336,-0.3866666666666667,-0.49,17.373333333333335,19.63333333333333,310.49
216,1715534614050,-2.55,-0.31,-0.49,30.76,37.23,326.42
217,1715534614060,-2.55,-0.31,-0.49,30.76,37.23,326.42
218,1715534614070,-2.55,-0.31,-0.49,30.76,37.23,326.42
219,1715534614080,-2.3766666666666665,-0.27999999999999997,-0.5666666666666667,17.7,73.21999999999998,356.06
220,1715534614090,-2.03,-0.22,-0.7200000000000001,-8.42,145.2,415.34
221,1715534614100,-2.03,-0.22,-0.72,-8.42,145.2,415.34
222,1715534614110,-1.9549999999999998,-0.355,-0.595,-8.42,145.2,415.34
223,1715534614120,-1.7299999999999998,-0.7600000000000001,-0.22,-90.03000000000002,175.6,427.8
224,1715534614130,-1.7299999999999998,-0.7600000000000001,-0.22,-90.03000000000002,175.6,427.8
225,1715534614140,-1.73,-0.76,-0.22000000000000003,-90.03,175.6,427.8
226,1715534614150,-1.6666666666666667,-0.9566666666666667,-0.04666666666666667,-125.91666666666667,164.98,433.5366666666667
227,1715534614160,-1.54,-1.35,0.3,-197.69,143.74,445.01
228,1715534614170,-1.54,-1.35,0.3,-197.69,143.74,445.01
229,1715534614180,-1.54,-1.35,0.3,-197.69,143.74,445.01
230,1715534614190,-1.49,-1.3866666666666667,0.37333333333333335,-196.98000000000002,153.77,441.75333333333333
231,1715534614200,-1.39,-1.46,0.52,-195.56,173.83,435.24
232,1715534614210,-1.39,-1.46,0.52,-195.56000000000003,173.83,435.24
233,1715534614220,-1.39,-1.46,0.52,-195.56,173.83,435.24
234,1715534614230,-1.39,-1.46,0.52,-195.56000000000003,173.83,435.24
235,1715534614240,-1.66,-1.22,0.39,-154.97,119.81,356.69
236,1715534614250,-1.66,-1.22,0.39,-154.97,119.81,356.69
237,1715534614260,-1.66,-1.22,0.38999999999999996,-154.97,119.81,356.69
238,1715534614270,-1.9866666666666666,-1.32,0.29,-155.41666666666666,52.550000000000004,331.3833333333334
239,1715534614280,-2.15,-1.37,0.24,-155.64,18.92,318.73
240,1715534614290,-2.15,-1.37,0.24,-155.64,18.92,318.73
241,1715534614300,-2.15,-1.37,0.24,-155.64,18.92,318.73
242,1715534614310,-1.9799999999999998,-1.41,0.21,-140.58333333333334,19.956666666666667,341.85999999999996
243,1715534614320,-1.98,-1.41,0.21,-110.47,22.03,388.12
244,1715534614330,-1.98,-1.41,0.21000000000000002,-110.47,22.03,388.12
245,1715534614340,-1.8225,-1.415,0.1725,-110.47,22.03,388.12
246,1715534614350,-1.3500000000000003,-1.43,0.06,-83.44,-10.19,413.21
247,1715534614360,-1.35,-1.43,0.06,-83.44,-10.19,413.21
248,1715534614370,-1.35,-1.43,0.06,-83.44,-10.19,413.21
249,1715534614380,-1.3500000000000003,-1.43,0.06,-83.44,-10.19,413.21
250,1715534614390,-1.3500000000000003,-1.43,0.06,-83.44,-10.19,413.21
251,1715534614400,-1.3500000000000003,-1.43,0.06,-83.44,-10.19,413.21
252,1715534614410,-1.3500000000000003,-1.43,0.06,-83.44,-10.19,413.21
253,1715534614420,-1.3500000000000003,-1.43,0.06,-83.44,-10.19,413.21
254,1715534614430,-1.35,-1.43,0.06,-83.44,-10.19,413.21
255,1715534614440,-1.3500000000000003,-1.43,0.06,-83.44,-10.19,413.21
256,1715534614450,-1.3500000000000003,-1.43,0.06,-83.44,-10.19,413.21
257,1715534614460,-1.3500000000000003,-1.43,0.06,-83.44,-10.19,413.21
258,1715534614470,-0.0024999999999999467,-1.665,0.54,-31.314999999999998,-26.152500000000003,291.47499999999997
259,1715534614480,4.04,-2.37,1.9799999999999998,125.06,-74.04,-73.73
260,1715534614490,4.04,-2.37,1.9799999999999998,125.06,-74.04,-73.73
261,1715534614500,3.8666666666666667,-2.19,1.8399999999999999,112.97333333333334,-157.78,-162.51666666666668
262,1715534614510,3.78,-2.1,1.77,106.93,-199.65,-206.91
263,1715534614520,3.78,-2.1,1.7700000000000002,106.93,-199.65,-206.91
264,1715534614530,3.78,-2.1,1.77,106.93,-199.65,-206.91
265,1715534614540,2.9933333333333336,-2.1766666666666667,1.43,156.49333333333334,-171.59333333333333,-253.72333333333336
266,1715534614550,1.42,-2.33,0.75,255.62,-115.48,-347.3500000000001
267,1715534614560,1.42,-2.33,0.75,255.62,-115.48,-347.35
268,1715534614570,1.42,-2.33,0.75,255.62,-115.48,-347.3500000000001
269,1715534614580,-1.92,-2.59,-0.53,270.26,-200.56,-468.51
270,1715534614590,-1.92,-2.59,-0.53,270.26,-200.56000000000003,-468.51
271,1715534614600,-1.92,-2.59,-0.53,270.26,-200.56000000000003,-468.51
272,1715534614610,-1.92,-2.59,-0.53,270.26,-200.56000000000003,-468.51
273,1715534614620,-3.57,-2.19,-0.88,258.3,-175.53333333333333,-500.77666666666664
274,1715534614630,-3.57,-2.19,-0.88,252.32000000000002,-163.02,-516.91
275,1715534614640,-3.57,-2.19,-0.88,252.32,-163.02,-516.91
276,1715534614650,-3.513333333333333,-1.8933333333333333,-0.7666666666666666,183.29,-221.63666666666668,-506.49333333333334
277,1715534614660,-3.4,-1.3,-0.54,45.23,-338.87,-485.66
278,1715534614670,-3.4,-1.3,-0.54,45.23,-338.87,-485.66
279,1715534614680,-3.4,-1.3,-0.54,45.23,-338.87,-485.66
280,1715534614690,-2.893333333333333,-1.3166666666666667,-0.21000000000000005,45.23,-338.87,-485.66
281,1715534614700,-1.88,-1.3500000000000003,0.45,23.21666666666667,-210.16333333333333,-413.3533333333333
282,1715534614710,-1.88,-1.35,0.45,12.21,-145.81,-377.2
283,1715534614720,-1.88,-1.3500000000000003,0.45,12.21,-145.81,-377.2
284,1715534614730,-1.9049999999999998,-1.175,0.245,12.21,-145.81,-377.2
285,1715534614740,-1.93,-1.0,0.04,9.4,-2.93,-307.92
286,1715534614750,-1.93,-1.0,0.04,9.4,-2.93,-307.92
287,1715534614760,-1.93,-1.0,0.04,9.4,-2.93,-307.92
288,1715534614770,-1.6500000000000001,-0.8933333333333332,0.07333333333333333,-54.76666666666666,-165.16333333333333,-312.9666666666667
289,1715534614780,-1.51,-0.84,0.09,-86.85,-246.28,-315.49
290,1715534614790,-1.51,-0.84,0.09,-86.85,-246.28,-315.49
291,1715534614800,-1.51,-0.84,0.09000000000000001,-86.84999999999998,-246.28,-315.49
292,1715534614810,-1.0,-0.7799999999999999,0.3,-43.64000000000001,-143.01,-317.38
293,1715534614820,-1.0,-0.7799999999999999,0.3,-43.64000000000001,-143.01,-317.38
294,1715534614830,-1.0,-0.78,0.3,-43.64,-143.01,-317.38
295,1715534614840,-1.0,-0.7799999999999999,0.3,-43.64000000000001,-143.01,-317.38
296,1715534614850,-1.4725,-0.3825,0.2175,-45.2,-77.685,-337.795
297,1715534614860,-1.63,-0.25,0.19,-45.72,-55.91,-344.6
298,1715534614870,-1.63,-0.25,0.19000000000000003,-45.72,-55.91,-344.6000000000001
299,1715534614880,-1.98,-0.1125,0.10500000000000001,-0.17249999999999943,-76.935,-343.425
300,1715534614890,-3.03,0.3,-0.15,136.47,-140.01,-339.9
301,1715534614900,-3.03,0.3,-0.15,136.47,-140.01,-339.9
302,1715534614910,-3.03,0.3,-0.15,136.47,-140.01,-339.9
303,1715534614920,-3.03,0.3,-0.15,136.47,-140.01,-339.9
304,1715534614930,-3.03,0.3,-0.15,136.47,-140.01,-339.9
305,1715534614940,-3.03,0.3,-0.15,136.47,-140.01,-339.9
306,1715534614950,-3.03,0.3,-0.15,136.47,-140.01,-339.9
307,1715534614960,-3.03,0.3,-0.15,136.47,-140.01,-339.9
308,1715534614970,-3.03,0.3,-0.15,136.47,-140.01,-339.9
309,1715534614980,-3.03,0.3,-0.15,136.47,-140.01,-339.9
310,1715534614990,-3.03,0.3,-0.15,136.47,-140.01,-339.9
311,1715534615000,-6.41,0.25,-1.0,91.19,123.90000000000002,-18.74
312,1715534615010,-5.87,-0.71,-0.92,-87.4,32.96,181.64
313,1715534615020,-5.87,-0.71,-0.92,-87.40000000000002,32.96,181.64
314,1715534615030,-5.87,-0.71,-0.92,-87.40000000000002,32.96,181.64
315,1715534615040,-3.72,-0.7200000000000001,-0.08,-45.65,0.18000000000000002,294.01
316,1715534615050,-3.72,-0.7200000000000001,-0.08,-45.65,0.18000000000000002,294.01
317,1715534615060,-3.72,-0.7200000000000001,-0.08,-45.65,0.18000000000000002,294.01
318,1715534615070,-3.72,-0.72,-0.08,-45.65,0.18,294.01
319,1715534615080,-2.82,-0.47,-0.19,10.19,44.74,367.25
320,1715534615090,-2.82,-0.47,-0.19000000000000003,10.19,44.74,367.25
321,1715534615100,-2.82,-0.47,-0.19,10.19,44.74,367.25
322,1715534615110,-2.7325,-0.5,-0.24,-2.0924999999999994,49.6225,396.6225
323,1715534615120,-2.47,-0.59,-0.38999999999999996,-38.94,64.27,484.74
324,1715534615130,-2.47,-0.59,-0.39,-38.94,64.27,484.74
325,1715534615140,-2.47,-0.59,-0.39,-38.94,64.27,484.74
326,1715534615150,-2.3925,-0.7625,-0.35000000000000003,-50.185,75.0875,505.8575
327,1715534615160,-2.16,-1.28,-0.23,-83.92,107.54,569.21
328,1715534615170,-2.16,-1.28,-0.23,-83.92,107.54,569.21
329,1715534615180,-2.16,-1.28,-0.23,-83.92,107.54,569.21
330,1715534615190,-2.1533333333333338,-1.5,-0.13333333333333333,-134.66333333333333,63.17000000000001,567.7466666666668
331,1715534615200,-2.14,-1.94,0.06,-236.15,-25.57,564.82
332,1715534615210,-2.14,-1.9400000000000002,0.06,-236.15,-25.570000000000004,564.82
333,1715534615220,-2.14,-1.94,0.06,-236.15,-25.57,564.82
334,1715534615230,-2.14,-1.9400000000000002,0.06,-236.15,-25.570000000000004,564.82
335,1715534615240,-1.6333333333333335,-2.0,0.5666666666666667,-180.44333333333336,30.129999999999995,529.4200000000001
336,1715534615250,-1.38,-2.03,0.82,-152.59,57.98,511.72
337,1715534615260,-1.38,-2.03,0.82,-152.59,57.98,511.72
338,1715534615270,-1.4933333333333334,-1.5966666666666665,0.62,-68.97,62.62,438.27333333333337
339,1715534615280,-1.55,-1.38,0.52,-27.16,64.94,401.55
340,1715534615290,-1.55,-1.38,0.52,-27.16,64.94,401.55
341,1715534615300,-1.55,-1.38,0.52,-27.16,64.94,401.55
342,1715534615310,-2.04,-1.41,0.17,-10.285,46.66,380.28
343,1715534615320,-2.04,-1.41,0.17,6.59,28.38,359.01
344,1715534615330,-2.04,-1.41,0.17,6.590000000000001,28.380000000000003,359.01
345,1715534615340,-1.92,-1.3766666666666667,0.06333333333333334,2.948333333333333,33.089999999999996,355.6433333333334
346,1715534615350,-1.6800000000000002,-1.31,-0.15,-15.26,56.64,338.81
347,1715534615360,-1.68,-1.31,-0.15,-15.26,56.64000000000001,338.81
348,1715534615370,-1.68,-1.31,-0.15,-15.26,56.64,338.81
349,1715534615380,-0.655,-1.5550000000000002,-0.039999999999999994,-41.8875,45.195,345.675
350,1715534615390,0.37,-1.8,0.07,-121.77,10.86,366.27
351,1715534615400,0.37,-1.8,0.07,-121.77,10.86,366.27
352,1715534615410,0.37,-1.8,0.07,-121.77,10.86,366.27
353,1715534615420,0.36999999999999994,-1.8,0.07,-121.77,10.86,366.27
354,1715534615430,3.61,-1.8,0.68,53.89,154.97,238.04
355,1715534615440,3.61,-1.8,0.68,53.89,154.97,238.04
356,1715534615450,3.61,-1.8,0.68,53.89000000000001,154.97,238.04
357,1715534615460,3.61,-1.8,0.68,53.89,154.97,238.04
358,1715534615470,3.61,-1.8,0.68,53.89,154.97,238.04
359,1715534615480,3.61,-1.8,0.68,53.89000000000001,154.97,238.04
360,1715534615490,3.61,-1.8,0.68,53.89000000000001,154.97,238.04
361,1715534615500,3.61,-1.8,0.68,53.89000000000001,154.97,238.04
362,1715534615510,3.61,-1.8,0.68,53.89000000000001,154.97,238.04
363,1715534615520,3.7900000000000005,-1.78,0.7799999999999999,48.39666666666667,95.74333333333334,155.58
364,1715534615530,4.17,-1.09,1.02,41.5,-140.32,-99.37
365,1715534615540,3.03,-1.54,0.9700000000000001,112.49,18.98,-145.51
366,1715534615550,3.03,-1.54,0.97,112.49,18.98,-145.51
367,1715534615560,3.03,-1.54,0.9700000000000001,112.49,18.98,-145.51
368,1715534615570,2.29,-1.615,0.7075,148.14999999999998,11.7325,-168.17
369,1715534615580,0.07,-1.84,-0.08,255.13,-10.01,-236.15
370,1715534615590,0.07,-1.84,-0.08,255.13,-10.01,-236.15
371,1715534615600,0.07,-1.84,-0.08,255.13,-10.01,-236.15
372,1715534615610,-0.9233333333333332,-1.6933333333333334,-0.4466666666666666,236.37,-106.24333333333334,-333.3566666666666
373,1715534615620,-1.42,-1.62,-0.63,226.99,-154.36,-381.96
374,1715534615630,-1.42,-1.62,-0.63,226.99,-154.36,-381.96
375,1715534615640,-1.42,-1.62,-0.63,226.99,-154.36,-381.96
376,1715534615650,-1.7966666666666666,-1.5566666666666666,-0.6666666666666666,210.95666666666668,-140.24,-398.7633333333333
377,1715534615660,-2.55,-1.43,-0.7399999999999999,178.89,-112.0,-432.37000000000006
378,1715534615670,-2.55,-1.43,-0.74,178.89,-112.0,-432.37
379,1715534615680,-2.55,-1.43,-0.7399999999999999,178.89,-112.0,-432.37000000000006
380,1715534615690,-2.4566666666666666,-1.13,-0.5333333333333333,15.23666666666666,-281.96,-418.57666666666665
381,1715534615700,-2.41,-0.98,-0.43,-66.59,-366.94,-411.68
382,1715534615710,-2.41,-0.98,-0.43,-66.59,-366.94,-411.68
383,1715534615720,-2.41,-0.98,-0.43,-66.59,-366.94,-411.68
384,1715534615730,-1.69,-1.325,0.38,-161.99,-363.055,-405.9575
385,1715534615740,-1.45,-1.4400000000000002,0.65,-193.79,-361.76,-404.05
386,1715534615750,-1.45,-1.44,0.65,-193.79,-361.76,-404.05
387,1715534615760,-1.45,-1.44,0.65,-193.79,-361.76,-404.05
388,1715534615770,-1.4633333333333332,-1.1666666666666667,0.6833333333333332,-117.49666666666667,-69.15333333333332,-326.13000000000005
389,1715534615780,-1.47,-1.03,0.7,-79.35,77.15,-287.17
390,1715534615790,-1.47,-1.03,0.6999999999999998,-79.35,77.15,-287.17
391,1715534615800,-1.3766666666666667,-0.91,0.6266666666666666,-82.23666666666666,47.67000000000001,-293.90333333333336
392,1715534615810,-1.19,-0.67,0.48,-88.01,-11.29,-307.37
393,1715534615820,-1.19,-0.67,0.48,-88.01,-11.29,-307.37
394,1715534615830,-1.19,-0.67,0.48,-88.01,-11.29,-307.37
395,1715534615840,-1.19,-0.67,0.48,-88.01,-11.29,-307.37
396,1715534615850,-0.74,-0.41,0.39,-139.47,-195.01,-368.96
397,1715534615860,-0.74,-0.41,0.39,-139.47,-195.01,-368.96
398,1715534615870,-0.7399999999999999,-0.41,0.38999999999999996,-139.47,-195.01,-368.96
399,1715534615880,-0.91,-0.305,0.42000000000000004,-165.53,-252.475,-428.255
400,1715534615890,-1.08,-0.20000000000000004,0.45,-191.59,-309.94,-487.55
401,1715534615900,-1.08,-0.2,0.45,-191.59,-309.94,-487.55
402,1715534615910,-1.08,-0.20000000000000004,0.45,-191.59,-309.94,-487.55
403,1715534615920,-4.6866666666666665,-0.42,1.0233333333333334,-220.11,-48.666666666666664,-460.7366666666667
404,1715534615930,-6.489999999999999,-0.53,1.31,-234.37,81.97,-447.33
405,1715534615940,-6.49,-0.53,1.31,-234.37,81.97,-447.33
406,1715534615950,-6.489999999999999,-0.53,1.31,-234.37,81.97,-447.33
407,1715534615960,-6.489999999999999,-0.53,1.31,-234.37,81.97,-447.33
408,1715534615970,-6.49,-0.53,1.31,-234.37,81.97,-447.33
409,1715534615980,-6.489999999999999,-0.53,1.31,-234.37,81.97,-447.33
410,1715534615990,-6.49,-0.53,1.31,-234.37,81.97,-447.33
411,1715534616000,-6.49,-0.53,1.31,-234.37,81.97,-447.33
412,1715534616010,-6.49,-0.53,1.31,-234.37,81.97,-447.33
413,1715534616020,-6.489999999999999,-0.53,1.31,-234.37,81.97,-447.33
414,1715534616030,-6.49,-0.53,1.31,-234.37,81.97,-447.33
415,1715534616040,-6.489999999999999,-0.53,1.31,-234.37,81.97,-447.33
416,1715534616050,-3.91,-0.66,1.37,199.04,-21.85,318.97
417,1715534616060,-3.91,-0.66,1.37,199.04,-21.850000000000005,318.97
418,1715534616070,-3.91,-0.66,1.37,199.04,-21.850000000000005,318.97
419,1715534616080,-2.6275000000000004,-0.6825,0.89,237.5825,71.165,395.5075
420,1715534616090,-2.2,-0.69,0.73,250.42999999999998,102.17,421.02
421,1715534616100,-2.2,-0.69,0.73,250.42999999999998,102.17,421.02
422,1715534616110,-1.8966666666666667,-0.79,0.5733333333333334,250.42999999999998,102.17,421.02
423,1715534616120,-1.29,-0.9899999999999999,0.26,190.25,206.85,528.87
424,1715534616130,-1.29,-0.9899999999999999,0.26,190.25,206.85,528.87
425,1715534616140,-1.29,-0.99,0.26,190.25,206.85,528.87
426,1715534616150,-1.19,-1.0966666666666667,0.32,84.53666666666668,220.27666666666667,568.4233333333333
427,1715534616160,-1.14,-1.15,0.3499999999999999,31.679999999999996,226.99,588.2
428,1715534616170,-1.14,-1.15,0.35,31.68,226.99,588.2
429,1715534616180,-1.14,-1.15,0.3499999999999999,31.679999999999996,226.99,588.2
430,1715534616190,-0.9899999999999999,-1.16,0.58,-36.68,197.68999999999997,550.64
431,1715534616200,-0.99,-1.16,0.58,-70.86,183.04,531.86
432,1715534616210,-0.9899999999999999,-1.16,0.58,-70.86,183.04,531.86
433,1715534616220,-0.9899999999999999,-1.16,0.58,-70.86,183.04,531.86
434,1715534616230,-1.0425,-1.0775000000000001,0.535,-105.8775,124.675,450.7925
435,1715534616240,-1.06,-1.05,0.52,-117.55,105.22,423.77
436,1715534616250,-1.06,-1.05,0.52,-117.55,105.21999999999998,423.77
437,1715534616260,-1.06,-1.05,0.52,-117.55,105.21999999999998,423.77
438,1715534616270,-1.19,-0.86,0.61,-32.17,10.86,286.25
439,1715534616280,-1.19,-0.86,0.61,-32.17,10.86,286.25
440,1715534616290,-1.4000000000000001,-0.7999999999999999,0.5333333333333333,-35.483333333333334,2.416666666666666,280.49333333333334
441,1715534616300,-1.82,-0.68,0.38,-42.11,-14.47,268.98
442,1715534616310,-1.82,-0.68,0.38000000000000006,-42.11,-14.47,268.98
443,1715534616320,-1.82,-0.68,0.38000000000000006,-42.11,-14.47,268.98
444,1715534616330,-1.82,-0.68,0.38,-42.11,-14.47,268.98
445,1715534616340,-1.99,-0.9499999999999998,0.41,-96.86,-14.65,313.9
446,1715534616350,-1.99,-0.95,0.41,-96.86,-14.65,313.9
447,1715534616360,-1.99,-0.9499999999999998,0.41,-96.86,-14.65,313.9
448,1715534616370,-1.1875,-1.1375,0.38,-72.1425,-7.4025,318.3875
449,1715534616380,-0.92,-1.2,0.37,2.01,14.34,331.85
450,1715534616390,-0.92,-1.2,0.37,2.01,14.34,331.85
451,1715534616400,-0.92,-1.2,0.37,2.01,14.34,331.85
452,1715534616410,3.75,-1.59,1.11,189.21,318.73,301.27
453,1715534616420,3.75,-1.59,1.11,189.21,318.73,301.27
454,1715534616430,3.75,-1.59,1.11,189.21,318.73,301.27
455,1715534616440,3.75,-1.59,1.11,189.21,318.73,301.27
456,1715534616450,4.53,-2.44,2.08,234.37,355.71,121.34
457,1715534616460,4.53,-2.44,2.08,234.37,355.71,121.33999999999999
458,1715534616470,4.53,-2.44,2.08,234.37,355.71,121.33999999999999
459,1715534616480,4.53,-2.44,2.08,234.37,355.71,121.34
460,1715534616490,4.53,-2.44,2.08,234.37,355.71,121.33999999999999
461,1715534616500,4.53,-2.44,2.08,234.37,355.71,121.34
462,1715534616510,4.53,-2.44,2.08,234.37,355.71,121.34
463,1715534616520,4.53,-2.44,2.08,234.37,355.71,121.34
464,1715534616530,4.53,-2.44,2.08,234.37,355.71,121.33999999999999
465,1715534616540,4.53,-2.44,2.08,234.37,355.71,121.33999999999999
466,1715534616550,4.53,-2.44,2.08,234.37,355.71,121.33999999999999
467,1715534616560,4.53,-2.44,2.08,234.37,355.71,121.34
468,1715534616570,2.23,-1.8199999999999998,0.63,189.175,51.50999999999999,-100.39999999999999
469,1715534616580,0.5,-1.66,0.05000000000000001,143.98,-252.68999999999997,-322.14
470,1715534616590,0.5,-1.66,0.05000000000000001,143.98,-252.68999999999997,-322.14
471,1715534616600,-1.09,-1.5474999999999999,-0.1225,4.224999999999998,-292.005,-450.96
472,1715534616610,-1.62,-1.51,-0.18000000000000002,-42.36,-305.11,-493.8999999999999
473,1715534616620,-1.62,-1.51,-0.18,-42.36,-305.11,-493.9
474,1715534616630,-1.62,-1.51,-0.18000000000000002,-42.36,-305.11,-493.8999999999999
475,1715534616640,-2.22,-1.8020000000000003,0.16799999999999998,-51.1,-185.50600000000003,-514.6279999999999
476,1715534616650,-3.1199999999999997,-2.24,0.69,-64.21,-6.099999999999999,-545.72
477,1715534616660,-3.1199999999999997,-2.24,0.69,-64.21,-6.099999999999999,-545.72
478,1715534616670,-3.12,-2.24,0.69,-64.21,-6.1,-545.72
479,1715534616680,-3.72,-1.19,0.26,8.91,-117.07,-432.31
480,1715534616690,-3.72,-1.19,0.26,8.91,-117.07,-432.31
481,1715534616700,-3.72,-1.19,0.26,8.91,-117.07,-432.31
482,1715534616710,-3.72,-1.19,0.26,8.91,-117.07,-432.31
483,1715534616720,-1.76,-1.02,0.51,-111.88,-378.17,-352.48
484,1715534616730,-1.76,-1.02,0.51,-111.88,-378.17,-352.48
485,1715534616740,-1.76,-1.02,0.51,-111.88,-378.17,-352.48
486,1715534616750,-1.57,-1.04,0.5375,-109.195,-288.8925,-339.7225
487,1715534616760,-1.0,-1.1,0.62,-101.14,-21.06,-301.45
488,1715534616770,-1.0,-1.1,0.62,-101.14,-21.06,-301.45
489,1715534616780,-1.0,-1.1,0.62,-101.14,-21.06,-301.45
490,1715534616790,-1.185,-1.045,0.37,-94.85,50.17,-309.11
491,1715534616800,-1.37,-0.99,0.12,-88.56,121.4,-316.77
492,1715534616810,-1.37,-0.9899999999999999,0.12,-88.56,121.40000000000002,-316.77
493,1715534616820,-1.37,-0.9899999999999999,0.12,-88.56,121.40000000000002,-316.77
494,1715534616830,-1.545,-0.87,0.09,-166.16500000000002,-10.590000000000003,-384.4
495,1715534616840,-1.72,-0.75,0.06,-243.77,-142.58,-452.03
496,1715534616850,-1.72,-0.75,0.06,-243.77,-142.58,-452.03
497,1715534616860,-1.72,-0.75,0.06,-243.77,-142.58,-452.03
498,1715534616870,-2.23,-0.455,0.32999999999999996,-215.45,-93.965,-446.565
499,1715534616880,-2.74,-0.16,0.6,-187.13,-45.35,-441.1
500,1715534616890,-2.74,-0.16,0.6,-187.13,-45.35,-441.1000000000001
501,1715534616900,-2.74,-0.16,0.6,-187.13,-45.35,-441.1000000000001
502,1715534616910,-3.6625,1.205,1.095,-143.465,6.009999999999999,-322.675
503,1715534616920,-3.97,1.66,1.26,-128.91,23.13,-283.2
504,1715534616930,-3.97,1.66,1.26,-128.91,23.13,-283.2
505,1715534616940,-3.97,1.66,1.26,-128.91,23.13,-283.2
506,1715534616950,-4.683333333333334,1.4966666666666668,0.9733333333333333,-61.79,24.84,-202.26999999999998
507,1715534616960,-6.11,1.17,0.4,72.45,28.26,-40.41
508,1715534616970,-6.11,1.17,0.4,72.45,28.26,-40.41
509,1715534616980,-6.11,1.17,0.4000000000000001,72.45,28.26,-40.41
510,1715534616990,-5.88,-0.66,1.21,-55.2225,39.472500000000004,135.375
511,1715534617000,-5.88,-0.66,1.21,-97.78000000000002,43.21,193.97
512,1715534617010,-5.88,-0.66,1.21,-97.78,43.21,193.97
513,1715534617020,-5.88,-0.66,1.21,-97.78000000000002,43.21,193.97
514,1715534617030,-5.88,-0.66,1.21,-97.78000000000002,43.21,193.97
515,1715534617040,-5.88,-0.66,1.21,-97.78,43.21,193.97
516,1715534617050,-5.88,-0.66,1.21,-97.78000000000002,43.21,193.97
517,1715534617060,-5.88,-0.66,1.21,-97.78000000000002,43.21,193.97
518,1715534617070,-5.88,-0.66,1.21,-97.78,43.21,193.97
519,1715534617080,-5.88,-0.66,1.21,-97.78000000000002,43.21,193.97
520,1715534617090,-4.923333333333333,-0.6699999999999999,1.0799999999999998,-2.4833333333333294,9.113333333333335,233.60333333333332
521,1715534617100,-2.7466666666666666,-0.5366666666666666,0.6233333333333333,198.99333333333334,-36.25333333333333,334.86333333333334
522,1715534617110,-2.22,-0.23,0.23,220.76,9.4,378.8500000000001
523,1715534617120,-2.22,-0.23,0.23,220.76,9.4,378.8500000000001
524,1715534617130,-2.22,-0.23,0.23,220.76,9.4,378.8500000000001
525,1715534617140,-2.12,-0.61,-0.19,201.72,102.11,528.2
526,1715534617150,-2.12,-0.61,-0.19000000000000003,201.72,102.11,528.2
527,1715534617160,-2.12,-0.61,-0.19000000000000003,201.72,102.11,528.2
528,1715534617170,-2.12,-0.61,-0.19000000000000003,201.72,102.11,528.2
529,1715534617180,-2.02,-1.45,-0.17,3.5400000000000005,180.66,731.81
530,1715534617190,-2.02,-1.45,-0.17,3.5400000000000005,180.66,731.81
531,1715534617200,-2.02,-1.45,-0.17,3.5400000000000005,180.66,731.81
532,1715534617210,-1.8800000000000001,-1.4533333333333331,-0.09000000000000001,-7.486666666666667,195.84,688.5966666666667
533,1715534617220,-1.6,-1.46,0.07,-29.54,226.2,602.17
534,1715534617230,-1.6000000000000003,-1.46,0.07,-29.540000000000003,226.19999999999996,602.17
535,1715534617240,-1.6000000000000003,-1.46,0.07,-29.540000000000003,226.19999999999996,602.17
536,1715534617250,-1.6000000000000003,-1.46,0.07,-29.540000000000003,226.19999999999996,602.17
537,1715534617260,-1.41,-0.96,0.22,-33.75,195.67999999999998,456.67
538,1715534617270,-1.41,-0.96,0.22,-33.75,195.67999999999998,456.67
539,1715534617280,-1.41,-0.96,0.22,-33.75,195.67999999999998,456.67
540,1715534617290,-1.29,-0.7575,0.055,-15.41,177.675,438.08000000000004
541,1715534617300,-1.25,-0.69,0.0,2.93,159.67,419.49
542,1715534617310,-1.25,-0.69,0.0,2.93,159.67,419.49
543,1715534617320,-1.25,-0.69,0.0,2.93,159.67,419.49
544,1715534617330,-1.29,-0.47,-0.12,-37.96333333333333,90.98333333333333,332.33666666666664
545,1715534617340,-1.31,-0.36000000000000004,-0.18000000000000002,-58.41,56.64000000000001,288.76
546,1715534617350,-1.31,-0.36000000000000004,-0.18000000000000002,-58.41,56.64000000000001,288.76
547,1715534617360,-1.31,-0.36000000000000004,-0.18000000000000002,-58.41,56.64000000000001,288.76
548,1715534617370,-1.0325,-0.675,-0.0225,-92.4675,30.96,212.635
549,1715534617380,-0.94,-0.7799999999999999,0.03,-103.82,22.399999999999995,187.26
550,1715534617390,-0.94,-0.7799999999999999,0.03,-103.82,22.399999999999995,187.26
551,1715534617400,-0.94,-0.78,0.03,-103.82,22.4,187.26
552,1715534617410,0.18666666666666668,-1.24,0.5033333333333333,-103.55666666666666,39.24666666666666,200.68666666666664
553,1715534617420,0.75,-1.47,0.74,-103.03,72.94,227.54
554,1715534617430,0.75,-1.47,0.74,-103.03,72.94,227.54
555,1715534617440,1.2774999999999999,-1.5575,0.9824999999999999,-67.0175,80.8425,196.275
556,1715534617450,2.86,-1.82,1.71,41.02,104.55,102.48
557,1715534617460,2.86,-1.82,1.71,41.02,104.55,102.48
558,1715534617470,2.86,-1.82,1.71,41.02,104.55,102.48
559,1715534617480,3.02,-1.6099999999999999,1.545,79.685,20.384999999999998,27.315
560,1715534617490,3.18,-1.3999999999999997,1.38,118.34999999999998,-63.78,-47.85
561,1715534617500,3.18,-1.3999999999999997,1.38,118.34999999999998,-63.78,-47.85
562,1715534617510,3.18,-1.3999999999999997,1.38,118.34999999999998,-63.78,-47.85
563,1715534617520,3.3600000000000003,-1.165,1.3199999999999998,51.36,-248.29000000000002,-58.56
564,1715534617530,3.54,-0.93,1.26,-15.63,-432.8,-69.27
565,1715534617540,3.5400000000000005,-0.93,1.26,-15.63,-432.8,-69.27
566,1715534617550,3.54,-0.93,1.26,-15.63,-432.8,-69.27
567,1715534617560,3.54,-0.93,1.26,-15.63,-432.8,-69.27
568,1715534617570,3.54,-0.93,1.26,-15.63,-432.8,-69.27
569,1715534617580,3.5400000000000005,-0.93,1.26,-15.63,-432.8,-69.27
570,1715534617590,3.54,-0.93,1.26,-15.63,-432.8,-69.27
571,1715534617600,3.5400000000000005,-0.93,1.26,-15.63,-432.8,-69.27
572,1715534617610,3.5400000000000005,-0.93,1.26,-15.63,-432.8,-69.27
573,1715534617620,1.575,-1.155,0.595,21.48,-309.48,-207.79
574,1715534617630,-0.39,-1.38,-0.07,58.59,-186.16,-346.31
575,1715534617640,-2.28,-1.34,-0.34,28.08,116.88,-470.52
576,1715534617650,-2.28,-1.34,-0.34,28.08,116.88,-470.52
577,1715534617660,-2.28,-1.34,-0.34,28.08,116.88,-470.52
578,1715534617670,-2.28,-1.34,-0.34,28.08,116.88,-470.52
579,1715534617680,-2.5,-1.0,-0.29,-109.99,-185.0,-439.21
580,1715534617690,-2.5,-1.0,-0.29,-109.99,-185.0,-439.21
581,1715534617700,-2.5,-1.0,-0.29,-109.99,-185.0,-439.21
582,1715534617710,-2.2175000000000002,-1.0075,-0.15249999999999997,-126.4675,-201.54,-409.97499999999997
583,1715534617720,-1.37,-1.03,0.26,-175.9,-251.16,-322.27
584,1715534617730,-1.37,-1.03,0.26,-175.9,-251.16,-322.27
585,1715534617740,-1.37,-1.03,0.26,-175.9,-251.16,-322.27
586,1715534617750,-1.2,-1.0466666666666666,0.3066666666666667,-187.25333333333333,-198.42666666666665,-319.1766666666667
587,1715534617760,-0.86,-1.08,0.4,-209.96,-92.96,-312.99
588,1715534617770,-0.86,-1.08,0.4,-209.96,-92.96,-312.99
589,1715534617780,-0.86,-1.08,0.4000000000000001,-209.96,-92.96,-312.99
590,1715534617790,-0.9066666666666667,-1.16,0.2733333333333334,-206.13333333333333,-19.266666666666666,-329.83666666666664
591,1715534617800,-0.93,-1.2,0.21,-204.22,17.58,-338.26
592,1715534617810,-0.93,-1.2,0.21,-204.22,17.58,-338.26
593,1715534617820,-0.93,-1.2,0.21,-204.22,17.58,-338.26
594,1715534617830,-1.33,-1.45,0.11,-241.45333333333335,9.193333333333333,-427.82
595,1715534617840,-1.33,-1.45,0.11,-260.07,5.0,-472.6000000000001
596,1715534617850,-1.33,-1.45,0.11,-260.07,5.0,-472.6000000000001
597,1715534617860,-1.33,-1.45,0.11,-260.07,5.0,-472.6
598,1715534617870,-1.48,-1.4725,0.1725,-275.4825,3.3375,-478.15250000000003
599,1715534617880,-1.93,-1.54,0.36,-321.72,-1.65,-494.81
600,1715534617890,-1.93,-1.54,0.36000000000000004,-321.72,-1.6499999999999997,-494.81
601,1715534617900,-1.93,-1.54,0.36,-321.72,-1.65,-494.81
602,1715534617910,-2.73,-0.77,1.16,-209.9,-36.27666666666667,-429.71000000000004
603,1715534617920,-2.73,-0.77,1.16,-153.99,-53.59,-397.16
604,1715534617930,-2.73,-0.77,1.16,-153.99,-53.59,-397.16
605,1715534617940,-2.9133333333333336,-0.020000000000000018,1.4933333333333334,-153.99,-53.59,-397.16
606,1715534617950,-3.28,1.4799999999999998,2.16,-182.98,5.25,-230.53
607,1715534617960,-3.28,1.48,2.16,-182.98,5.25,-230.53
608,1715534617970,-3.28,1.4799999999999998,2.16,-182.98,5.25,-230.53
609,1715534617980,-4.56,1.21,2.18,-95.37666666666667,-6.103333333333333,-201.86333333333334
610,1715534617990,-7.12,0.67,2.22,79.83,-28.81,-144.53
611,1715534618000,-7.12,0.67,2.22,79.83,-28.81,-144.53
612,1715534618010,-7.12,0.67,2.22,79.83,-28.81,-144.53
613,1715534618020,-6.6933333333333325,0.38000000000000006,1.9900000000000002,84.47,29.093333333333334,-26.873333333333335
614,1715534618030,-5.84,-0.2,1.53,93.75,144.9,208.44
615,1715534618040,-5.84,-0.20000000000000004,1.53,93.75,144.9,208.43999999999997
616,1715534618050,-5.84,-0.2,1.53,93.75,144.9,208.44
617,1715534618060,-5.84,-0.2,1.53,93.75,144.9,208.44
618,1715534618070,-5.84,-0.20000000000000004,1.53,93.75,144.9,208.43999999999997
619,1715534618080,-5.84,-0.2,1.53,93.75,144.9,208.44
620,1715534618090,-5.84,-0.20000000000000004,1.53,93.75,144.9,208.43999999999997
621,1715534618100,-5.84,-0.2,1.53,93.75,144.9,208.44
622,1715534618110,-5.84,-0.2,1.53,93.75,144.9,208.44
623,1715534618120,-5.84,-0.20000000000000004,1.53,93.75,144.9,208.43999999999997
624,1715534618130,-5.84,-0.2,1.53,93.75,144.9,208.44
625,1715534618140,-4.905,-0.2425,1.2,115.7525,91.31,259.25
626,1715534618150,-2.1,-0.37,0.21,181.76,-69.46,411.68
627,1715534618160,-2.1,-0.36999999999999994,0.21,181.76,-69.46,411.68
628,1715534618170,-2.1,-0.37,0.21,181.76,-69.46,411.68
629,1715534618180,-1.8933333333333333,-0.6433333333333334,-0.03,181.11333333333332,-7.246666666666665,499.4066666666667
630,1715534618190,-1.79,-0.78,-0.15,180.79,23.86,543.27
631,1715534618200,-1.79,-0.7799999999999999,-0.15,180.79,23.86,543.27
632,1715534618210,-1.6833333333333333,-0.9766666666666667,-0.15666666666666665,180.79,23.86,543.27
633,1715534618220,-1.47,-1.37,-0.17,99.69,43.39333333333334,589.8233333333334
634,1715534618230,-1.47,-1.37,-0.17,59.14000000000001,53.16,613.1
635,1715534618240,-1.47,-1.37,-0.17,59.14000000000001,53.16,613.1
636,1715534618250,-1.4966666666666668,-1.34,-0.10333333333333335,19.51,32.876666666666665,581.34
637,1715534618260,-1.55,-1.28,0.03,-59.75,-7.69,517.82
638,1715534618270,-1.55,-1.28,0.03,-59.75,-7.69,517.82
639,1715534618280,-1.55,-1.28,0.03,-59.75,-7.69,517.82
640,1715534618290,-1.37,-1.2733333333333334,0.20333333333333334,-107.97000000000001,-105.87666666666667,469.15333333333336
641,1715534618300,-1.28,-1.27,0.29,-132.08,-154.97,444.82
642,1715534618310,-1.28,-1.27,0.29,-132.08,-154.97,444.82
643,1715534618320,-1.28,-1.27,0.29,-132.08,-154.97,444.82
644,1715534618330,-1.09,-1.19,0.355,-86.93,-135.1475,425.28999999999996
645,1715534618340,-0.52,-0.95,0.55,48.52,-75.68,366.7
646,1715534618350,-0.52,-0.9499999999999998,0.55,48.52,-75.68,366.7
647,1715534618360,-0.56,-0.8825,0.465,48.52,-75.68,366.7
648,1715534618370,-0.68,-0.68,0.21,131.29,36.56,278.44
649,1715534618380,-0.68,-0.68,0.21,131.29,36.56,278.44
650,1715534618390,-0.68,-0.68,0.21,131.29,36.56,278.44
651,1715534618400,-0.8633333333333333,-0.7033333333333335,0.03666666666666666,131.29,36.56,278.44
652,1715534618410,-1.23,-0.75,-0.31,83.76333333333334,30.866666666666664,190.26666666666665
653,1715534618420,-1.23,-0.75,-0.31,60.0,28.02,146.18
654,1715534618430,-1.23,-0.75,-0.31,60.0,28.02,146.18
655,1715534618440,0.2233333333333333,-1.0766666666666667,0.15,61.300000000000004,78.12666666666667,162.25333333333333
656,1715534618450,0.9499999999999998,-1.24,0.38000000000000006,63.9,178.34,194.4
657,1715534618460,0.95,-1.24,0.38,63.9,178.34,194.4
658,1715534618470,0.9499999999999998,-1.24,0.38000000000000006,63.9,178.34,194.4
659,1715534618480,1.7,-1.1233333333333333,0.4366666666666667,112.05666666666667,232.09333333333333,148.9466666666667
660,1715534618490,3.2000000000000006,-0.89,0.55,208.37,339.6,58.04
661,1715534618500,3.2,-0.89,0.55,208.37,339.6,58.04
662,1715534618510,3.2,-0.89,0.55,208.37,339.6,58.04
663,1715534618520,4.2,-1.09,1.6000000000000003,57.98,65.25,-91.31
664,1715534618530,4.2,-1.09,1.6,57.98,65.25,-91.31
665,1715534618540,4.2,-1.09,1.6,57.98,65.25,-91.31
666,1715534618550,4.2,-1.09,1.6000000000000003,57.98,65.25,-91.31
667,1715534618560,3.97,-0.73,2.03,47.79,-54.75,-143.37
668,1715534618570,3.97,-0.73,2.03,47.79,-54.75,-143.37
669,1715534618580,3.97,-0.73,2.03,47.79,-54.75,-143.37
670,1715534618590,3.97,-0.73,2.03,47.79,-54.75,-143.37
671,1715534618600,3.97,-0.73,2.03,47.79,-54.75,-143.37
672,1715534618610,3.97,-0.73,2.03,47.79,-54.75,-143.37
673,1715534618620,3.97,-0.73,2.03,47.79,-54.75,-143.37
674,1715534618630,3.97,-0.73,2.03,47.79,-54.75,-143.37
675,1715534618640,3.97,-0.73,2.03,47.79,-54.75,-143.37
676,1715534618650,3.97,-0.73,2.03,47.79,-54.75,-143.37
677,1715534618660,3.97,-0.73,2.03,47.79,-54.75,-143.37
678,1715534618670,-1.11,-1.9433333333333334,-0.3833333333333333,287.15000000000003,-154.6,-318.78666666666663
679,1715534618680,-2.27,-1.99,-0.63,236.33,-144.1,-373.84
680,1715534618690,-2.27,-1.99,-0.63,236.33,-144.1,-373.84
681,1715534618700,-2.27,-1.99,-0.63,236.33,-144.1,-373.84
682,1715534618710,-2.91,-1.5766666666666669,-0.6233333333333334,236.33,-144.1,-373.84
683,1715534618720,-3.23,-1.37,-0.62,236.33,-144.1,-373.84
684,1715534618730,-3.2299999999999995,-1.37,-0.62,197.074,-76.772,-329.15999999999997
685,1715534618740,-3.23,-1.37,-0.62,187.26,-59.94,-317.99
686,1715534618750,-2.8600000000000003,-1.1800000000000002,-0.445,88.13499999999999,-218.08,-320.58500000000004
687,1715534618760,-2.49,-0.99,-0.27,-10.99,-376.22,-323.18
688,1715534618770,-2.49,-0.99,-0.27,-10.99,-376.22,-323.18
689,1715534618780,-2.49,-0.9899999999999999,-0.27,-10.99,-376.22,-323.18
690,1715534618790,-2.2475,-0.995,-0.11750000000000001,-26.7975,-360.84000000000003,-326.7825
691,1715534618800,-1.5200000000000002,-1.01,0.34,-74.22,-314.7,-337.59
692,1715534618810,-1.52,-1.01,0.34,-74.22,-314.7,-337.59
693,1715534618820,-1.5200000000000002,-1.01,0.34,-74.22,-314.7,-337.59
694,1715534618830,-1.39,-0.81,0.12,-54.01666666666667,-223.37,-310.1033333333333
695,1715534618840,-1.39,-0.81,0.12,-13.61,-40.71,-255.13
696,1715534618850,-1.39,-0.81,0.12,-13.61,-40.71,-255.13
697,1715534618860,-1.39,-0.81,0.12,-13.61,-40.71,-255.13
698,1715534618870,-1.53,-0.57,-0.17,-95.34,-157.78,-329.96
699,1715534618880,-1.53,-0.57,-0.17,-95.33999999999999,-157.78,-329.96
700,1715534618890,-1.53,-0.57,-0.17,-95.33999999999999,-157.78,-329.96
701,1715534618900,-1.4799999999999998,-0.48666666666666664,-0.06333333333333334,-95.33999999999999,-157.78,-329.96
702,1715534618910,-1.38,-0.32,0.15,-309.14,-309.2,-391.35999999999996
703,1715534618920,-1.38,-0.32,0.15,-309.14,-309.2,-391.35999999999996
704,1715534618930,-1.38,-0.32,0.15,-309.14,-309.2,-391.36
705,1715534618940,-1.57,0.09333333333333334,0.33,-309.14,-309.2,-391.35999999999996
706,1715534618950,-1.95,0.92,0.69,-253.72,-72.27,-369.57
707,1715534618960,-1.95,0.92,0.69,-253.72,-72.27,-369.57
708,1715534618970,-1.95,0.92,0.69,-253.72,-72.27,-369.57
709,1715534618980,-3.313333333333333,1.2566666666666666,0.8633333333333333,-147.19333333333333,11.533333333333331,-306.52
710,1715534618990,-6.04,1.93,1.21,65.86,179.14,-180.42
711,1715534619000,-6.04,1.93,1.21,65.86,179.14,-180.42
712,1715534619010,-6.04,1.93,1.21,65.86,179.14,-180.42
713,1715534619020,-5.793333333333333,1.89,0.8033333333333333,65.86,179.14,-180.42
714,1715534619030,-5.669999999999999,1.87,0.6,-12.699999999999998,7.93,111.15000000000002
715,1715534619040,-5.669999999999999,1.87,0.6,-12.699999999999998,7.93,111.15000000000002
716,1715534619050,-5.669999999999999,1.87,0.6,-12.699999999999998,7.93,111.15000000000002
717,1715534619060,-5.599999999999999,0.12,1.18,-105.34999999999998,2.8699999999999997,273.74
718,1715534619070,-5.599999999999999,0.12,1.18,-105.34999999999998,2.8699999999999997,273.74
719,1715534619080,-5.599999999999999,0.12,1.18,-105.34999999999998,2.8699999999999997,273.74
720,1715534619090,-5.6,0.12,1.18,-105.35,2.87,273.74
721,1715534619100,-4.49,-0.10000000000000002,1.17,-32.84,-132.81,290.89
722,1715534619110,-4.49,-0.1,1.17,-32.84,-132.81,290.89
723,1715534619120,-4.49,-0.1,1.17,-32.84,-132.81,290.89
724,1715534619130,-4.49,-0.10000000000000002,1.17,-32.84,-132.81,290.89
725,1715534619140,-4.49,-0.1,1.17,-32.84,-132.81,290.89
726,1715534619150,-4.49,-0.1,1.17,-32.84,-132.81,290.89
727,1715534619160,-4.49,-0.1,1.17,-32.84,-132.81,290.89
728,1715534619170,-4.49,-0.1,1.17,-32.84,-132.81,290.89
729,1715534619180,-4.49,-0.10000000000000002,1.17,-32.84,-132.81,290.89
730,1715534619190,-2.5175,0.26,0.285,103.16499999999999,-86.89500000000001,362.85249999999996
731,1715534619200,-1.86,0.38000000000000006,-0.01,148.5,-71.59,386.84
732,1715534619210,-1.6275,-0.039999999999999994,-0.31,118.93,-65.36500000000001,416.87
733,1715534619220,-1.55,-0.18000000000000002,-0.41,89.36,-59.14000000000001,446.8999999999999
734,1715534619230,-1.55,-0.18000000000000002,-0.41,89.36,-59.14000000000001,446.8999999999999
735,1715534619240,-1.55,-0.18000000000000002,-0.41,89.36,-59.14000000000001,446.8999999999999
736,1715534619250,-1.58,-0.5099999999999999,-0.29666666666666663,57.78333333333333,-56.10999999999999,455.6466666666667
737,1715534619260,-1.64,-1.17,-0.07,-5.37,-50.04999999999999,473.14000000000004
738,1715534619270,-1.64,-1.17,-0.07,-5.37,-50.04999999999999,473.14000000000004
739,1715534619280,-1.64,-1.17,-0.07,-5.37,-50.05,473.14
740,1715534619290,-1.5,-1.37,0.25,50.6,-18.68,462.22
741,1715534619300,-1.5,-1.37,0.25,50.6,-18.68,462.22
742,1715534619310,-1.5,-1.37,0.25,50.6,-18.68,462.22
743,1715534619320,-1.44,-1.29,0.3125,67.75,-25.255,434.1125
744,1715534619330,-1.26,-1.05,0.5,119.2,-44.98,349.79
745,1715534619340,-1.26,-1.05,0.5,119.2,-44.98,349.79
746,1715534619350,-1.26,-1.05,0.5,119.2,-44.98,349.79
747,1715534619360,-1.1199999999999999,-0.9900000000000001,0.4366666666666667,123.16666666666667,-3.376666666666665,349.8733333333334
748,1715534619370,-0.84,-0.87,0.31,131.1,79.83,350.04
749,1715534619380,-0.84,-0.87,0.31,131.1,79.83,350.04
750,1715534619390,-0.84,-0.87,0.31,131.1,79.83,350.04
751,1715534619400,-0.6666666666666666,-0.79,0.12333333333333334,67.54666666666667,139.19666666666666,322.5333333333333
752,1715534619410,-0.58,-0.75,0.03,35.77,168.88,308.78
753,1715534619420,-0.58,-0.75,0.03,35.77,168.88,308.78
754,1715534619430,-0.58,-0.75,0.03,35.77,168.88,308.78
755,1715534619440,-0.36000000000000004,-0.7766666666666667,-0.016666666666666666,45.77666666666667,183.9,230.57333333333335
756,1715534619450,-0.25,-0.79,-0.04,50.78,191.41,191.47
757,1715534619460,-0.25,-0.79,-0.04,50.78,191.41,191.47
758,1715534619470,-0.25,-0.79,-0.04,50.78,191.41,191.47
759,1715534619480,0.19666666666666666,-0.8833333333333334,0.02,-59.446666666666665,78.61666666666666,131.29
760,1715534619490,0.42,-0.93,0.05000000000000001,-114.56,22.22,101.2
761,1715534619500,0.42,-0.93,0.05000000000000001,-114.56,22.22,101.2
762,1715534619510,0.42,-0.93,0.05000000000000001,-114.56,22.22,101.2
763,1715534619520,1.64,-0.82,0.29,25.7,31.31,56.76
764,1715534619530,1.64,-0.82,0.29,25.7,31.31,56.76
765,1715534619540,1.64,-0.82,0.29,25.7,31.31,56.76
766,1715534619550,1.64,-0.82,0.29,25.7,31.31,56.76
767,1715534619560,3.005,-1.0825,0.53,-98.2675,-14.004999999999999,67.11
768,1715534619570,3.46,-1.17,0.61,-139.59,-29.11,70.56
769,1715534619580,3.4599999999999995,-1.17,0.61,-139.59,-29.11,70.56
770,1715534619590,3.5975,-1.0374999999999999,0.7925,-115.39,-14.7225,52.7075
771,1715534619600,4.01,-0.64,1.34,-42.79,28.44,-0.85
772,1715534619610,4.01,-0.64,1.34,-42.79,28.44,-0.85
773,1715534619620,4.01,-0.64,1.34,-42.79,28.44,-0.85
774,1715534619630,4.01,-0.64,1.34,-42.79,28.44,-0.85
775,1715534619640,4.01,-0.64,1.34,-42.79,28.44,-0.85
776,1715534619650,4.01,-0.64,1.34,-42.79,28.44,-0.85
777,1715534619660,4.01,-0.64,1.34,-42.79,28.44,-0.85
778,1715534619670,4.01,-0.64,1.34,-42.79,28.44,-0.85
779,1715534619680,4.01,-0.64,1.34,-42.79,28.44,-0.85
780,1715534619690,4.01,-0.64,1.34,-42.79,28.44,-0.85
781,1715534619700,4.01,-0.64,1.34,-42.79,28.44,-0.85
782,1715534619710,4.01,-0.64,1.34,-42.79,28.44,-0.85
783,1715534619720,-1.04,-1.62,-0.65,202.51,-110.17,-365.17
784,1715534619730,-1.04,-1.62,-0.65,202.51,-110.17,-365.17
785,1715534619740,-1.04,-1.62,-0.65,202.51,-110.17,-365.17
786,1715534619750,-2.55,-1.32,-0.7399999999999999,128.70333333333335,-132.22333333333333,-442.84999999999997
787,1715534619760,-2.55,-1.32,-0.74,91.8,-143.25,-481.69
788,1715534619770,-2.55,-1.32,-0.74,91.8,-143.25,-481.69
789,1715534619780,-2.55,-1.32,-0.7399999999999999,91.8,-143.25,-481.69
790,1715534619790,-2.25,-1.36,-0.18000000000000002,35.52,-189.15,-426.1499999999999
791,1715534619800,-2.25,-1.36,-0.18,35.52,-189.15,-426.15
792,1715534619810,-2.25,-1.36,-0.18,35.52,-189.15,-426.15
793,1715534619820,-2.11,-1.34,-0.10999999999999999,15.360000000000001,-173.7266666666667,-421.7733333333333
794,1715534619830,-1.83,-1.3,0.03,-24.959999999999997,-142.88,-413.02
795,1715534619840,-1.83,-1.3,0.03,-24.96,-142.88,-413.02
796,1715534619850,-1.83,-1.3,0.03,-24.959999999999997,-142.88,-413.02
797,1715534619860,-1.83,-1.3,0.03,-24.96,-142.88,-413.02
798,1715534619870,-1.745,-1.32,0.13,-76.87,-134.64,-428.645
799,1715534619880,-1.66,-1.34,0.23,-128.78,-126.4,-444.27
800,1715534619890,-1.66,-1.34,0.23,-128.78,-126.4,-444.27
801,1715534619900,-1.66,-1.38,0.3233333333333333,-114.84666666666668,-98.67,-445.92
802,1715534619910,-1.66,-1.4,0.37,-86.98,-43.21,-449.22
803,1715534619920,-1.66,-1.4,0.37,-86.98,-43.21,-449.22
804,1715534619930,-1.66,-1.3999999999999997,0.36999999999999994,-86.98,-43.21,-449.22
805,1715534619940,-1.9825,-1.085,0.0325,-126.11500000000001,-64.45,-411.045
806,1715534619950,-2.09,-0.98,-0.08,-139.16,-71.53,-398.32
807,1715534619960,-2.09,-0.98,-0.08,-139.16,-71.53,-398.32
808,1715534619970,-2.09,-0.98,-0.08,-139.16,-71.53,-398.32
809,1715534619980,-2.236666666666667,-0.62,-0.06666666666666667,-168.33333333333334,-122.55666666666666,-381.26666666666665
810,1715534619990,-2.31,-0.44,-0.06,-182.92,-148.07,-372.74
811,1715534620000,-2.31,-0.44,-0.06,-182.92,-148.07,-372.74
812,1715534620010,-2.31,-0.44,-0.06,-182.92,-148.07,-372.74
813,1715534620020,-1.99,1.01,0.95,-290.15999999999997,-160.125,-347.99
814,1715534620030,-1.99,1.01,0.9499999999999998,-397.3999999999999,-172.17999999999998,-323.24
815,1715534620040,-1.99,1.01,0.95,-397.4,-172.18,-323.24
816,1715534620050,-1.99,1.01,0.95,-397.4,-172.18,-323.24
817,1715534620060,-6.919999999999999,0.77,1.91,112.06,231.87,-243.59
818,1715534620070,-6.919999999999999,0.77,1.91,112.06,231.87,-243.59
819,1715534620080,-6.919999999999999,0.77,1.91,112.06,231.87,-243.59
820,1715534620090,-7.09,0.49666666666666665,1.89,52.470000000000006,123.65666666666668,-159.32
821,1715534620100,-7.43,-0.05,1.85,-66.71,-92.77,9.22
822,1715534620110,-7.43,-0.05000000000000001,1.8500000000000003,-66.71,-92.77,9.22
823,1715534620120,-7.43,-0.05000000000000001,1.8500000000000003,-66.71,-92.77,9.22
824,1715534620130,-6.03,-0.5366666666666667,1.7366666666666666,-35.44,-69.11,104.63666666666667
825,1715534620140,-5.33,-0.78,1.68,27.1,-21.79,295.47
826,1715534620150,-5.33,-0.7799999999999999,1.68,27.100000000000005,-21.790000000000003,295.47
827,1715534620160,-5.33,-0.78,1.68,27.1,-21.79,295.47
828,1715534620170,-5.33,-0.78,1.68,27.1,-21.79,295.47
829,1715534620180,-5.33,-0.7799999999999999,1.68,27.100000000000005,-21.790000000000003,295.47
830,1715534620190,-5.33,-0.78,1.68,27.1,-21.79,295.47
831,1715534620200,-5.33,-0.7799999999999999,1.68,27.100000000000005,-21.790000000000003,295.47
832,1715534620210,-5.33,-0.7799999999999999,1.68,27.100000000000005,-21.790000000000003,295.47
833,1715534620220,-5.33,-0.78,1.68,27.1,-21.79,295.47
834,1715534620230,-5.33,-0.7799999999999999,1.68,27.100000000000005,-21.790000000000003,295.47
835,1715534620240,-3.223333333333333,-0.29333333333333333,0.84,155.72,-8.93,363.3433333333333
836,1715534620250,-1.92,-0.55,-0.14,152.53,-56.580000000000005,484.56
837,1715534620260,-1.92,-0.55,-0.14,152.53,-56.580000000000005,484.56
838,1715534620270,-1.92,-0.55,-0.14,152.53,-56.58,484.56
839,1715534620280,-1.92,-0.55,-0.14,152.53,-56.580000000000005,484.56
840,1715534620290,-1.5599999999999998,-1.36,0.10000000000000002,25.209999999999997,-93.81,543.82
841,1715534620300,-1.56,-1.36,0.1,25.21,-93.81,543.82
842,1715534620310,-1.5599999999999998,-1.36,0.10000000000000002,25.209999999999997,-93.81,543.82
843,1715534620320,-1.465,-1.4500000000000002,0.25,25.21,-93.81,543.82
844,1715534620330,-1.37,-1.54,0.4,26.35,-28.5825,521.3425
845,1715534620340,-1.37,-1.54,0.4000000000000001,26.73,-6.84,513.85
846,1715534620350,-1.37,-1.54,0.4,26.73,-6.84,513.85
847,1715534620360,-1.3633333333333333,-1.3133333333333332,0.3866666666666667,21.69,-27.14,462.5833333333333
848,1715534620370,-1.36,-1.2,0.38000000000000006,19.17,-37.29,436.95
849,1715534620380,-1.36,-1.2,0.38,19.17,-37.29,436.95
850,1715534620390,-1.36,-1.2,0.38000000000000006,19.17,-37.29,436.95
851,1715534620400,-1.195,-1.095,0.39,42.545,-44.585,398.92499999999995
852,1715534620410,-1.03,-0.99,0.4,65.92,-51.88,360.9
853,1715534620420,-1.03,-0.9899999999999999,0.4000000000000001,65.92,-51.88,360.8999999999999
854,1715534620430,-1.03,-0.9899999999999999,0.4000000000000001,65.92,-51.88,360.8999999999999
855,1715534620440,-0.7675000000000001,-0.7649999999999999,0.3625,89.69,-41.015,335.845
856,1715534620450,-0.68,-0.69,0.3499999999999999,113.46,-30.149999999999995,310.79
857,1715534620460,-0.68,-0.69,0.35,113.46,-30.15,310.79
858,1715534620470,-0.68,-0.69,0.35,113.46,-30.15,310.79
859,1715534620480,-0.6533333333333333,-0.8566666666666666,0.18999999999999997,112.16000000000001,-70.92333333333333,249.67666666666665
860,1715534620490,-0.64,-0.94,0.11,111.51,-91.31,219.12
861,1715534620500,-0.64,-0.94,0.11,111.51,-91.31,219.12
862,1715534620510,-0.64,-0.94,0.11,111.51,-91.31,219.12
863,1715534620520,-0.81,-0.78,-0.31,36.5325,-20.45,180.0675
864,1715534620530,-0.81,-0.7799999999999999,-0.31,11.54,3.17,167.05
865,1715534620540,-0.81,-0.7799999999999999,-0.31,11.54,3.17,167.05
866,1715534620550,-0.81,-0.7799999999999999,-0.31,11.54,3.17,167.05
867,1715534620560,1.09,-0.95,-0.24,75.07,113.59,283.69
868,1715534620570,1.09,-0.9499999999999998,-0.24,75.07,113.58999999999999,283.69
869,1715534620580,1.09,-0.9499999999999998,-0.24,75.07,113.58999999999999,283.69
870,1715534620590,3.045,-1.75,-0.495,50.14,61.585,217.59
871,1715534620600,5.0,-2.55,-0.75,25.209999999999997,9.58,151.49
872,1715534620610,5.0,-2.55,-0.75,25.21,9.58,151.49
873,1715534620620,5.0,-2.55,-0.75,25.209999999999997,9.58,151.49
874,1715534620630,5.0,-2.55,-0.75,25.209999999999997,9.58,151.49
875,1715534620640,5.75,-2.2425,-0.435,-26.5625,-137.495,-39.99249999999999
876,1715534620650,6.0,-2.14,-0.33,-43.82,-186.52,-103.82
877,1715534620660,6.0,-2.14,-0.33,-43.82,-186.52,-103.82
878,1715534620670,4.67,-2.215,-0.49,-43.82,-186.52,-103.82
879,1715534620680,3.34,-2.29,-0.65,-43.82,-186.52,-103.82
880,1715534620690,3.34,-2.29,-0.65,-43.82,-186.52,-103.82
881,1715534620700,3.34,-2.29,-0.65,-43.82,-186.52,-103.82
882,1715534620710,3.34,-2.29,-0.65,-43.82,-186.52,-103.82
883,1715534620720,3.34,-2.29,-0.65,-43.82,-186.52,-103.82
884,1715534620730,3.34,-2.29,-0.65,-43.82,-186.52,-103.82
885,1715534620740,3.34,-2.29,-0.65,-43.82,-186.52,-103.82
886,1715534620750,3.34,-2.29,-0.65,-43.82,-186.52,-103.82
887,1715534620760,3.34,-2.29,-0.65,-43.82,-186.52,-103.82
888,1715534620770,-3.47,-3.03,0.02,11.35,157.78,-605.29
889,1715534620780,-3.47,-3.03,0.02,11.35,157.78,-605.29
890,1715534620790,-3.596666666666667,-2.6133333333333333,0.060000000000000005,29.37666666666667,117.39333333333333,-551.9233333333333
891,1715534620800,-3.85,-1.78,0.14,65.43,36.62,-445.19
892,1715534620810,-3.85,-1.78,0.14,65.43,36.62,-445.19
893,1715534620820,-3.3066666666666666,-1.5966666666666667,0.26333333333333336,0.3266666666666727,-85.49,-415.58666666666664
894,1715534620830,-2.22,-1.23,0.51,-129.88,-329.71,-356.38
895,1715534620840,-2.22,-1.23,0.51,-129.88,-329.71,-356.37999999999994
896,1715534620850,-2.22,-1.23,0.51,-129.88,-329.71,-356.37999999999994
897,1715534620860,-1.7833333333333334,-1.2833333333333332,0.66,-129.88,-329.71,-356.37999999999994
898,1715534620870,-0.91,-1.39,0.96,-205.2325,-238.2475,-330.34000000000003
899,1715534620880,-0.91,-1.39,0.96,-230.35,-207.76,-321.66
900,1715534620890,-0.91,-1.39,0.96,-230.35,-207.76,-321.66
901,1715534620900,-0.98,-1.45,0.855,-191.165,-43.94499999999999,-325.84000000000003
902,1715534620910,-1.05,-1.51,0.75,-151.98,119.87,-330.02
903,1715534620920,-1.05,-1.51,0.75,-151.98,119.87,-330.02
904,1715534620930,-1.05,-1.51,0.75,-151.98,119.87,-330.02
905,1715534620940,-1.2025000000000001,-1.395,0.65,-145.1275,81.3725,-361.6975
906,1715534620950,-1.66,-1.05,0.3499999999999999,-124.57,-34.12,-456.73
907,1715534620960,-1.66,-1.05,0.35,-124.57,-34.12,-456.73
908,1715534620970,-1.66,-1.05,0.3499999999999999,-124.57,-34.12,-456.73
909,1715534620980,-2.0933333333333333,-0.9766666666666666,0.21,-151.51,-133.08,-434.6766666666667
910,1715534620990,-2.31,-0.94,0.14,-164.98,-182.56000000000003,-423.6499999999999
911,1715534621000,-2.31,-0.94,0.14,-164.98,-182.56000000000003,-423.6499999999999
912,1715534621010,-2.31,-0.94,0.14,-164.98,-182.56,-423.65
913,1715534621020,-1.86,0.0,1.64,-304.99,-119.26,-358.34
914,1715534621030,-1.86,0.0,1.64,-304.99,-119.26,-358.34
915,1715534621040,-1.86,0.0,1.64,-304.99,-119.26,-358.34
916,1715534621050,-1.86,0.0,1.64,-304.99,-119.26,-358.34
917,1715534621060,-3.89,0.25,2.76,-103.09,109.8,-251.34
918,1715534621070,-3.89,0.25,2.76,-103.09,109.8,-251.34
919,1715534621080,-3.89,0.25,2.76,-103.08999999999999,109.8,-251.34
920,1715534621090,-4.903333333333333,-0.26666666666666666,2.3633333333333333,-16.113333333333333,33.69,-215.33
921,1715534621100,-6.93,-1.3,1.57,157.84,-118.53,-143.31
922,1715534621110,-6.93,-1.3,1.57,157.84,-118.53000000000002,-143.31
923,1715534621120,-6.93,-1.3,1.57,157.84,-118.53000000000002,-143.31
924,1715534621130,-6.37,-1.54,1.7866666666666668,115.05333333333334,-60.65,-41.01666666666667
925,1715534621140,-5.25,-2.02,2.22,29.48,55.11,163.57
926,1715534621150,-5.25,-2.02,2.22,29.48,55.11,163.57
927,1715534621160,-5.25,-2.02,2.22,29.48,55.11,163.57
928,1715534621170,-4.0425,-1.555,1.8825,45.76,30.56,185.4375
929,1715534621180,-3.64,-1.3999999999999997,1.7700000000000002,94.59999999999998,-43.09,251.04
930,1715534621190,-3.64,-1.4,1.77,94.6,-43.09,251.04
931,1715534621200,-3.64,-1.3999999999999997,1.7700000000000002,94.59999999999998,-43.09,251.04
932,1715534621210,-3.64,-1.4,1.77,94.6,-43.09,251.04
933,1715534621220,-3.64,-1.3999999999999997,1.7700000000000002,94.59999999999998,-43.09,251.04
934,1715534621230,-3.64,-1.4,1.77,94.6,-43.09,251.04
935,1715534621240,-3.64,-1.4,1.77,94.6,-43.09,251.04
936,1715534621250,-3.64,-1.3999999999999997,1.7700000000000002,94.59999999999998,-43.09,251.04
937,1715534621260,-3.64,-1.3999999999999997,1.7700000000000002,94.59999999999998,-43.09,251.04
938,1715534621270,-3.64,-1.4,1.77,94.6,-43.09,251.04
939,1715534621280,-3.64,-1.3999999999999997,1.7700000000000002,94.59999999999998,-43.09,251.04
940,1715534621290,-2.36,-1.28,0.5766666666666667,142.57333333333335,-29.176666666666666,445.7
941,1715534621300,-1.72,-1.22,-0.02,166.56,-22.22,543.03
942,1715534621310,-1.72,-1.22,-0.02,166.56,-22.22,543.03
943,1715534621320,-1.72,-1.22,-0.02,166.56,-22.22,543.03
944,1715534621330,-1.16,-1.64,0.27,106.32,-62.5,535.71
945,1715534621340,-1.16,-1.64,0.27,106.32,-62.5,535.71
946,1715534621350,-1.16,-1.64,0.27,106.32,-62.5,535.71
947,1715534621360,-1.0066666666666666,-1.6066666666666667,0.37666666666666665,101.98666666666666,-36.68333333333333,505.15000000000003
948,1715534621370,-0.7,-1.54,0.59,93.32,14.95,444.03
949,1715534621380,-0.7,-1.54,0.59,93.32,14.95,444.03
950,1715534621390,-0.7,-1.54,0.59,93.32,14.95,444.03
951,1715534621400,-0.845,-1.4825,0.59,96.6775,62.33,403.10499999999996
952,1715534621410,-1.28,-1.31,0.59,106.75,204.47,280.33
953,1715534621420,-1.28,-1.31,0.59,106.75,204.47,280.33
954,1715534621430,-1.28,-1.31,0.59,106.75,204.47,280.33
955,1715534621440,-1.9,-0.97,0.25,121.95,262.94,372.92
956,1715534621450,-1.8999999999999997,-0.9700000000000001,0.25,121.95,262.94,372.92
957,1715534621460,-1.9,-0.97,0.25,121.95,262.94,372.92
958,1715534621470,-1.8375,-1.005,0.2075,93.645,218.6275,389.34000000000003
959,1715534621480,-1.65,-1.11,0.08,8.73,85.69,438.6
960,1715534621490,-1.6499999999999997,-1.11,0.08,8.73,85.69,438.6000000000001
961,1715534621500,-1.6499999999999997,-1.11,0.08,8.73,85.69,438.6000000000001
962,1715534621510,-1.4000000000000001,-1.1300000000000001,0.05333333333333334,-7.8933333333333335,76.61666666666666,428.9566666666667
963,1715534621520,-0.9,-1.17,0.0,-41.14,58.47,409.67
964,1715534621530,-0.9,-1.17,0.0,-41.14,58.47,409.67
965,1715534621540,-0.9,-1.17,0.0,-41.14,58.47,409.67
966,1715534621550,-0.65,-1.2566666666666666,-0.08,-41.14,58.47,409.67
967,1715534621560,-0.15,-1.43,-0.24,-45.0775,135.32999999999998,363.71
968,1715534621570,-0.15,-1.43,-0.24,-46.39000000000001,160.95,348.39000000000004
969,1715534621580,-0.15,-1.43,-0.24,-46.39,160.95,348.39
970,1715534621590,2.51,-2.183333333333333,0.20666666666666667,-56.64333333333334,149.55666666666664,355.55
971,1715534621600,3.84,-2.56,0.43,-77.15,126.77,369.87000000000006
972,1715534621610,3.84,-2.56,0.43,-77.15,126.77,369.87000000000006
973,1715534621620,3.84,-2.56,0.43,-77.15,126.77,369.87000000000006
974,1715534621630,4.8533333333333335,-2.6199999999999997,0.8233333333333333,-87.36333333333334,124.18666666666667,250.71
975,1715534621640,5.36,-2.65,1.02,-107.79,119.02,12.39
976,1715534621650,5.36,-2.65,1.02,-107.79,119.02,12.39
977,1715534621660,5.36,-2.65,1.02,-107.79,119.02,12.39
978,1715534621670,5.0975,-2.7775,1.9575,-2.6850000000000005,118.8325,-147.3675
979,1715534621680,5.01,-2.82,2.27,32.35,118.77,-200.62
980,1715534621690,5.01,-2.82,2.27,32.35,118.77,-200.62
981,1715534621700,5.01,-2.82,2.27,32.35,118.77,-200.62
982,1715534621710,2.51,-2.4866666666666664,1.1633333333333333,191.16333333333333,41.42333333333333,-335.46666666666664
983,1715534621720,1.26,-2.32,0.61,270.57,2.75,-402.89000000000004
984,1715534621730,1.26,-2.32,0.61,270.57,2.75,-402.89
985,1715534621740,1.26,-2.32,0.61,270.57,2.75,-402.89000000000004
986,1715534621750,1.26,-2.32,0.61,270.57,2.75,-402.89
987,1715534621760,1.26,-2.32,0.61,270.57,2.75,-402.89000000000004
988,1715534621770,1.26,-2.32,0.61,270.57,2.75,-402.89000000000004
989,1715534621780,1.26,-2.32,0.61,270.57,2.75,-402.89000000000004
990,1715534621790,1.26,-2.32,0.61,270.57,2.75,-402.89000000000004
991,1715534621800,1.26,-2.32,0.61,270.57,2.75,-402.89000000000004
992,1715534621810,-0.3866666666666667,-2.2566666666666664,0.030000000000000027,306.56,12.270000000000001,-396.34
993,1715534621820,-3.5733333333333337,-1.3833333333333335,-1.1433333333333333,266.64000000000004,-73.91666666666667,-364.84666666666664
994,1715534621830,-3.52,-1.01,-1.15,210.68999999999997,-126.53000000000002,-355.6499999999999
995,1715534621840,-3.52,-1.01,-1.15,210.68999999999997,-126.53000000000002,-355.6499999999999
996,1715534621850,-3.52,-1.01,-1.15,210.69,-126.53,-355.65
997,1715534621860,-2.17,-0.875,-0.415,210.69,-126.53,-355.65
998,1715534621870,-1.72,-0.83,-0.17,16.42,-263.0,-321.84
999,1715534621880,-1.72,-0.83,-0.17,16.42,-263.0,-321.84
1000,1715534621890,-1.72,-0.83,-0.17,16.42,-263.0,-321.84
1001,1715534621900,-1.24,-0.9349999999999999,0.13,-12.2825,-155.6525,-334.47
1002,1715534621910,-1.08,-0.9700000000000001,0.23,-21.850000000000005,-119.87,-338.68
1003,1715534621920,-1.08,-0.97,0.23,-21.85,-119.87,-338.68
1004,1715534621930,-1.08,-0.9700000000000001,0.23,-21.850000000000005,-119.87,-338.68
1005,1715534621940,-1.3,-1.12,0.08,-12.33,-12.21,-375.31
1006,1715534621950,-1.3,-1.12,0.08,-12.33,-12.21,-375.31
1007,1715534621960,-1.3,-1.12,0.08,-12.33,-12.21,-375.31
1008,1715534621970,-1.3,-1.12,0.08,-12.33,-12.21,-375.31
1009,1715534621980,-1.61,-1.05,0.10000000000000002,31.679999999999996,25.94,-442.08
1010,1715534621990,-1.61,-1.05,0.10000000000000002,31.679999999999996,25.94,-442.08
1011,1715534622000,-1.61,-1.05,0.10000000000000002,31.679999999999996,25.94,-442.08
1012,1715534622010,-1.61,-1.05,0.1,31.68,25.94,-442.08
1013,1715534622020,-2.0433333333333334,-0.8033333333333333,-0.12666666666666665,55.830000000000005,2.236666666666667,-430.6466666666667
1014,1715534622030,-2.91,-0.31,-0.58,104.13,-45.169999999999995,-407.78
1015,1715534622040,-2.91,-0.31,-0.58,104.13,-45.169999999999995,-407.78
1016,1715534622050,-3.126666666666667,0.1666666666666667,-0.5433333333333333,51.63999999999999,-132.22666666666666,-396.3666666666666
1017,1715534622060,-3.56,1.12,-0.47,-53.34,-306.34,-373.54
1018,1715534622070,-3.56,1.12,-0.47,-53.34,-306.34,-373.54
1019,1715534622080,-3.56,1.12,-0.47,-53.34,-306.34,-373.54
1020,1715534622090,-4.233333333333333,1.42,-0.36666666666666664,-53.34,-306.34,-373.54
1021,1715534622100,-5.580000000000001,2.02,-0.16,85.16666666666666,-104.14666666666666,-228.39333333333335
1022,1715534622110,-5.58,2.02,-0.16,154.42,-3.05,-155.82
1023,1715534622120,-5.580000000000001,2.02,-0.16,154.42,-3.0499999999999994,-155.82
1024,1715534622130,-5.74,1.0,-0.31,73.75999999999999,-45.254999999999995,-13.060000000000002
1025,1715534622140,-5.9,-0.02,-0.46,-6.9,-87.46,129.7
1026,1715534622150,-5.900000000000001,-0.02,-0.46,-6.900000000000001,-87.46,129.7
1027,1715534622160,-5.9,-0.02,-0.46,-6.9,-87.46,129.7
1028,1715534622170,-5.693333333333334,-0.23333333333333336,-0.32,-42.38,-35.92666666666666,169.29
1029,1715534622180,-5.28,-0.66,-0.04,-113.33999999999999,67.14,248.47
1030,1715534622190,-5.28,-0.66,-0.04,-113.33999999999999,67.14,248.47
1031,1715534622200,-5.28,-0.66,-0.04,-113.33999999999999,67.14,248.47
1032,1715534622210,-3.89,-0.57,0.2,-51.9075,-60.7125,272.7325
1033,1715534622220,-3.89,-0.57,0.20000000000000004,-31.429999999999996,-103.33,280.82
1034,1715534622230,-3.89,-0.57,0.2,-31.43,-103.33,280.82
1035,1715534622240,-3.49,-0.36999999999999994,0.060000000000000005,-31.429999999999996,-103.33,280.82
1036,1715534622250,-2.69,0.03,-0.22,-31.429999999999996,-103.33,280.82
1037,1715534622260,-2.69,0.03,-0.22,-31.429999999999996,-103.33,280.82
1038,1715534622270,-2.69,0.03,-0.22,-31.429999999999996,-103.33,280.82
1039,1715534622280,-2.69,0.03,-0.22,-31.43,-103.33,280.82
1040,1715534622290,-2.69,0.03,-0.22,-31.429999999999996,-103.33,280.82
1041,1715534622300,-2.69,0.03,-0.22,-31.43,-103.33,280.82
1042,1715534622310,-2.69,0.03,-0.22,-31.43,-103.33,280.82
1043,1715534622320,-2.69,0.03,-0.22,-31.429999999999996,-103.33,280.82
1044,1715534622330,-2.69,0.03,-0.22,-31.429999999999996,-103.33,280.82
1045,1715534622340,-1.7,-1.09,0.13,-20.08,8.97,507.93
1046,1715534622350,-1.7,-1.09,0.13,-20.08,8.97,507.93
1047,1715534622360,-1.3325,-1.4275,0.43000000000000005,-26.03,25.39,519.955
1048,1715534622370,-1.21,-1.54,0.53,-31.98,41.81,531.98
1049,1715534622380,-1.21,-1.54,0.53,-31.98,41.81,531.98
1050,1715534622390,-1.21,-1.54,0.53,-31.98,41.81,531.98
1051,1715534622400,-1.11,-1.17,0.5,-31.98,41.81,531.98
1052,1715534622410,-1.11,-1.17,0.5,-40.177499999999995,46.7525,471.9725
1053,1715534622420,-1.11,-1.17,0.5,-42.91,48.4,451.97
1054,1715534622430,-1.11,-1.17,0.5,-42.91,48.4,451.97
1055,1715534622440,-1.1,-1.0,0.49,-33.87,-25.63,310.73
1056,1715534622450,-1.1,-1.0,0.49,-33.87,-25.63,310.73
1057,1715534622460,-1.1,-1.0,0.49,-33.87,-25.63,310.73
1058,1715534622470,-1.1375000000000002,-0.9575,0.445,-33.87,-25.63,310.73
1059,1715534622480,-1.25,-0.83,0.31,-0.423333333333332,-11.836666666666666,304.91
1060,1715534622490,-1.25,-0.83,0.31,16.3,-4.94,302.0
1061,1715534622500,-1.25,-0.83,0.31,16.3,-4.94,302.0
1062,1715534622510,-1.3199999999999998,-0.835,0.22,3.2074999999999996,-10.9825,300.9925
1063,1715534622520,-1.39,-0.84,0.13,-36.07,-29.11,297.97
1064,1715534622530,-1.39,-0.84,0.13,-36.07,-29.11,297.97
1065,1715534622540,-1.39,-0.84,0.13,-36.07,-29.11,297.97
1066,1715534622550,-1.1233333333333333,-0.9333333333333332,0.09666666666666668,-12.450000000000001,-18.12333333333333,292.56
1067,1715534622560,-0.99,-0.98,0.08,34.79,3.85,281.74
1068,1715534622570,-0.9899999999999999,-0.98,0.08,34.79,3.85,281.74
1069,1715534622580,-0.9899999999999999,-0.98,0.08,34.79,3.85,281.74
1070,1715534622590,-0.38,-1.0350000000000001,-0.08499999999999999,82.155,45.504999999999995,305.175
1071,1715534622600,0.23,-1.09,-0.25,129.52,87.16000000000001,328.61
1072,1715534622610,0.23,-1.09,-0.25,129.52,87.16,328.61
1073,1715534622620,0.23,-1.09,-0.25,129.52,87.16000000000001,328.61
1074,1715534622630,2.025,-1.5950000000000002,0.32,41.690000000000005,266.33,378.295
1075,1715534622640,3.82,-2.1,0.89,-46.14000000000001,445.5,427.98
1076,1715534622650,3.82,-2.1,0.89,-46.14000000000001,445.5,427.98
1077,1715534622660,3.82,-2.1,0.89,-46.14,445.5,427.98
1078,1715534622670,4.38,-2.24,4.42,237.12,147.16,8.06
1079,1715534622680,4.38,-2.24,4.42,237.12,147.16,8.06
1080,1715534622690,4.38,-2.24,4.42,237.12,147.16,8.06
1081,1715534622700,4.13,-2.396666666666667,3.9066666666666663,237.12,147.16,8.06
1082,1715534622710,3.63,-2.71,2.88,237.12,147.16,8.06
1083,1715534622720,3.63,-2.71,2.88,140.08,-204.04,-223.02
1084,1715534622730,3.6300000000000003,-2.7099999999999995,2.8800000000000003,140.08,-204.04,-223.02
1085,1715534622740,2.793333333333333,-2.54,2.223333333333333,223.1266666666667,-157.16666666666666,-224.03666666666666
1086,1715534622750,1.12,-2.2,0.91,389.22,-63.42,-226.07
1087,1715534622760,1.12,-2.2,0.91,389.22,-63.42,-226.07
1088,1715534622770,1.12,-2.2,0.91,389.22,-63.419999999999995,-226.07000000000002
1089,1715534622780,1.12,-2.2,0.91,389.22,-63.42,-226.07
1090,1715534622790,1.12,-2.2,0.91,389.22,-63.419999999999995,-226.07000000000002
1091,1715534622800,1.12,-2.2,0.91,389.22,-63.419999999999995,-226.07000000000002
1092,1715534622810,1.12,-2.2,0.91,389.22,-63.42,-226.07
1093,1715534622820,1.12,-2.2,0.91,389.22,-63.42,-226.07
1094,1715534622830,1.12,-2.2,0.91,389.22,-63.419999999999995,-226.07000000000002
1095,1715534622840,1.12,-2.2,0.91,389.22,-63.42,-226.07
1096,1715534622850,1.12,-2.2,0.91,389.22,-63.419999999999995,-226.07000000000002
1097,1715534622860,-0.20333333333333328,-1.8033333333333335,0.31333333333333335,318.09333333333336,-91.65666666666668,-247.37333333333333
1098,1715534622870,-2.85,-1.01,-0.88,175.84,-148.13,-289.98
1099,1715534622880,-2.85,-1.01,-0.88,175.84,-148.13,-289.98
1100,1715534622890,-2.85,-1.01,-0.88,175.84,-148.13,-289.98
1101,1715534622900,-2.31,-0.89,-0.5575,60.625,-293.105,-299.1375
1102,1715534622910,-2.13,-0.85,-0.45,22.22,-341.43,-302.19
1103,1715534622920,-2.13,-0.85,-0.45,22.22,-341.43,-302.19
1104,1715534622930,-2.13,-0.85,-0.45,22.22,-341.43,-302.19
1105,1715534622940,-1.5200000000000002,-1.13,0.19000000000000003,9.7,-191.89,-347.05
1106,1715534622950,-1.5200000000000002,-1.13,0.19000000000000003,9.7,-191.89,-347.05
1107,1715534622960,-1.52,-1.13,0.19,9.7,-191.89,-347.05
1108,1715534622970,-1.5200000000000002,-1.13,0.19000000000000003,9.7,-191.89,-347.05
1109,1715534622980,-1.8,-0.97,-0.11,85.94,-10.68,-325.13
1110,1715534622990,-1.8,-0.9700000000000001,-0.11,85.94,-10.68,-325.13
1111,1715534623000,-1.8,-0.9700000000000001,-0.11,85.94,-10.68,-325.13
1112,1715534623010,-1.8,-0.9700000000000001,-0.11,85.94,-10.68,-325.13
1113,1715534623020,-1.75,-0.7200000000000001,-0.25,73.06,-189.39,-347.17
1114,1715534623030,-1.75,-0.7200000000000001,-0.25,73.06,-189.39,-347.17
1115,1715534623040,-1.75,-0.7200000000000001,-0.25,73.06,-189.39,-347.17
1116,1715534623050,-1.7349999999999999,-0.56,-0.26,68.895,-192.075,-345.46000000000004
1117,1715534623060,-1.72,-0.4000000000000001,-0.27,56.4,-200.13,-340.33
1118,1715534623070,-1.72,-0.4000000000000001,-0.27,56.4,-200.13,-340.33
1119,1715534623080,-1.72,-0.4000000000000001,-0.27,56.4,-200.13,-340.33
1120,1715534623090,-1.72,-0.4000000000000001,-0.27,56.4,-200.13,-340.33
1121,1715534623100,-2.64,1.27,-1.02,18.07,-288.33,-310.18
1122,1715534623110,-2.64,1.27,-1.02,18.07,-288.33,-310.18
1123,1715534623120,-2.64,1.27,-1.02,18.07,-288.33,-310.18
1124,1715534623130,-3.8400000000000003,2.4025,-0.915,18.07,-288.33,-310.18
1125,1715534623140,-4.24,2.78,-0.88,-103.7,-134.34,-248.05
1126,1715534623150,-4.24,2.78,-0.88,-103.7,-134.34,-248.05
1127,1715534623160,-4.24,2.78,-0.88,-103.7,-134.34,-248.05000000000004
1128,1715534623170,-6.98,2.61,-2.0,-15.170000000000002,-79.41,-43.292500000000004
1129,1715534623180,-6.98,2.61,-2.0,14.339999999999998,-61.1,24.959999999999997
1130,1715534623190,-6.98,2.61,-2.0,14.339999999999998,-61.1,24.959999999999997
1131,1715534623200,-6.98,2.61,-2.0,14.339999999999998,-61.1,24.959999999999997
1132,1715534623210,-5.76,0.4,-0.29,-235.53,16.3,164.06
1133,1715534623220,-5.760000000000001,0.4000000000000001,-0.29,-235.53,16.3,164.06
1134,1715534623230,-5.760000000000001,0.4000000000000001,-0.29,-235.53,16.3,164.06
1135,1715534623240,-5.2924999999999995,0.26,-0.12249999999999998,-213.635,-18.232499999999998,188.0925
1136,1715534623250,-3.89,-0.16,0.38,-147.95,-121.83,260.19
1137,1715534623260,-3.89,-0.16,0.38000000000000006,-147.95,-121.83,260.19
1138,1715534623270,-3.89,-0.16,0.38,-147.95,-121.83,260.19
1139,1715534623280,-3.3800000000000003,-0.09000000000000001,0.3666666666666667,-68.60333333333332,-119.85666666666667,282.7133333333333
1140,1715534623290,-2.36,0.05000000000000001,0.34,90.08999999999999,-115.91000000000001,327.76
1141,1715534623300,-2.36,0.05,0.34,90.09,-115.91,327.76
1142,1715534623310,-2.36,0.05,0.34,90.09,-115.91,327.76
1143,1715534623320,-2.36,0.05000000000000001,0.34,90.08999999999999,-115.91000000000001,327.76
1144,1715534623330,-2.36,0.05000000000000001,0.34,90.08999999999999,-115.91000000000001,327.76
1145,1715534623340,-2.36,0.05,0.34,90.09,-115.91,327.76
1146,1715534623350,-2.36,0.05000000000000001,0.34,90.08999999999999,-115.91000000000001,327.76
1147,1715534623360,-2.36,0.05000000000000001,0.34,90.08999999999999,-115.91000000000001,327.76
1148,1715534623370,-2.36,0.05000000000000001,0.34,90.08999999999999,-115.91000000000001,327.76
1149,1715534623380,-2.1,-0.16,0.18000000000000002,102.0975,-77.395,365.3125
1150,1715534623390,-1.32,-0.79,-0.3,138.12,38.15,477.97
1151,1715534623400,-1.5525,-0.9625,-0.135,2.4375000000000018,72.98,406.8775
1152,1715534623410,-1.63,-1.02,-0.08,-42.79,84.59,383.18
1153,1715534623420,-1.63,-1.02,-0.08,-42.79,84.59,383.18
1154,1715534623430,-1.63,-1.02,-0.08,-42.79,84.59,383.18
1155,1715534623440,-1.88,-1.06,0.19,-76.11,89.72,356.75
1156,1715534623450,-1.88,-1.06,0.19000000000000003,-76.11,89.71999999999998,356.75
1157,1715534623460,-1.88,-1.06,0.19000000000000003,-76.11,89.71999999999998,356.75
1158,1715534623470,-1.8666666666666665,-1.08,0.18333333333333335,-71.18666666666667,75.46,347.87999999999994
1159,1715534623480,-1.84,-1.12,0.17,-61.34,46.94,330.14
1160,1715534623490,-1.84,-1.12,0.17,-61.34,46.94,330.14
1161,1715534623500,-1.84,-1.12,0.17,-61.34,46.94,330.14
1162,1715534623510,-1.84,-1.12,0.17,-61.34,46.94,330.14
1163,1715534623520,-1.7275,-1.1125,0.15250000000000002,-47.6375,64.19749999999999,338.395
1164,1715534623530,-1.39,-1.09,0.10000000000000002,-6.53,115.96999999999998,363.16
1165,1715534623540,-1.39,-1.09,0.10000000000000002,-6.53,115.96999999999998,363.16
1166,1715534623550,-1.39,-1.09,0.10000000000000002,-6.53,115.96999999999998,363.16
1167,1715534623560,-1.13,-0.9,-0.01,-80.2,98.27,340.52
1168,1715534623570,-1.13,-0.9,-0.01,-80.2,98.27,340.52
1169,1715534623580,-1.13,-0.9,-0.01,-80.2,98.27,340.52
1170,1715534623590,-1.49,-1.25,-0.23,-147.52,24.959999999999997,295.78
1171,1715534623600,-1.49,-1.25,-0.23,-147.52,24.959999999999997,295.78
1172,1715534623610,-1.49,-1.25,-0.23,-147.52,24.959999999999997,295.78
1173,1715534623620,-1.49,-1.25,-0.23,-147.52,24.959999999999997,295.78
1174,1715534623630,-0.02,-1.38,0.06,-125.63333333333333,-50.15333333333333,322.22666666666663
1175,1715534623640,-0.02,-1.38,0.06,-114.69,-87.71,335.45
1176,1715534623650,-0.02,-1.38,0.06,-114.69,-87.71,335.45
1177,1715534623660,1.24,-1.825,0.435,-86.0475,20.155,367.4025
1178,1715534623670,5.02,-3.16,1.56,-0.12,343.75,463.26
1179,1715534623680,5.02,-3.16,1.5599999999999998,-0.12,343.75,463.26
1180,1715534623690,5.02,-3.16,1.56,-0.12,343.75,463.26
1181,1715534623700,5.02,-3.16,1.5599999999999998,-0.12,343.75,463.26
1182,1715534623710,4.946666666666666,-2.966666666666667,1.9333333333333336,113.16000000000001,117.39,160.80666666666667
1183,1715534623720,4.91,-2.8699999999999997,2.12,169.8,4.21,9.58
1184,1715534623730,4.91,-2.8699999999999997,2.12,169.8,4.21,9.58
1185,1715534623740,4.596666666666667,-2.8266666666666667,1.89,169.8,4.21,9.58
1186,1715534623750,3.97,-2.74,1.43,214.01999999999998,-116.96,-183.41
1187,1715534623760,3.97,-2.74,1.43,228.76,-157.35,-247.74
1188,1715534623770,3.97,-2.74,1.43,228.76,-157.35,-247.74
1189,1715534623780,1.7766666666666666,-2.486666666666667,0.59,243.36666666666665,-109.49666666666667,-328.67333333333335
1190,1715534623790,0.68,-2.36,0.17,250.67,-85.57,-369.14
1191,1715534623800,0.68,-2.36,0.17,250.67,-85.57,-369.14000000000004
1192,1715534623810,0.68,-2.36,0.17,250.67,-85.57,-369.14000000000004
1193,1715534623820,-1.135,-2.1950000000000003,-0.37750000000000006,250.67,-85.57,-369.14
1194,1715534623830,-1.74,-2.14,-0.56,250.67,-85.57,-369.14000000000004
1195,1715534623840,-1.74,-2.14,-0.56,250.67,-85.57,-369.14
1196,1715534623850,-1.74,-2.14,-0.56,250.67,-85.57,-369.14000000000004
1197,1715534623860,-1.74,-2.14,-0.56,250.67,-85.57,-369.14000000000004
1198,1715534623870,-1.7399999999999998,-2.14,-0.56,250.67,-85.57,-369.14
1199,1715534623880,-1.74,-2.14,-0.56,250.67,-85.57,-369.14000000000004
1200,1715534623890,-1.74,-2.14,-0.56,250.67,-85.57,-369.14
1201,1715534623900,-1.74,-2.14,-0.56,250.67,-85.57,-369.14000000000004
1202,1715534623910,-2.58,-1.5933333333333335,-0.5,130.59666666666666,-134.76333333333335,-378.46000000000004
1203,1715534623920,-3.0,-1.32,-0.47,70.56,-159.36,-383.12
1204,1715534623930,-2.6733333333333333,-1.26,-0.2866666666666667,70.56,-159.36,-383.12000000000006
1205,1715534623940,-2.02,-1.14,0.08,-48.825,-271.01250000000005,-378.4925
1206,1715534623950,-2.02,-1.14,0.08,-88.62,-308.23,-376.95
1207,1715534623960,-2.02,-1.14,0.08,-88.62,-308.23,-376.95
1208,1715534623970,-1.6733333333333331,-1.2733333333333334,0.38000000000000006,-71.12666666666667,-162.35666666666668,-373.33
1209,1715534623980,-1.5,-1.34,0.53,-62.38,-89.42,-371.52
1210,1715534623990,-1.5,-1.34,0.53,-62.38,-89.42,-371.52
1211,1715534624000,-1.5,-1.34,0.53,-62.38,-89.42,-371.52
1212,1715534624010,-1.615,-1.245,0.4,-28.87,-35.980000000000004,-374.115
1213,1715534624020,-1.73,-1.15,0.27,4.64,17.46,-376.71
1214,1715534624030,-1.7299999999999998,-1.15,0.27,4.64,17.46,-376.71
1215,1715534624040,-1.7299999999999998,-1.15,0.27,4.64,17.46,-376.71
1216,1715534624050,-1.7225,-0.9924999999999999,0.1875,-21.33,-73.17999999999999,-395.78499999999997
1217,1715534624060,-1.72,-0.94,0.16,-47.29999999999999,-163.82,-414.85999999999996
1218,1715534624070,-1.72,-0.94,0.16,-47.29999999999999,-163.82,-414.85999999999996
1219,1715534624080,-1.72,-0.94,0.16,-47.29999999999999,-163.82,-414.85999999999996
1220,1715534624090,-1.78,-0.7975,0.265,-104.33749999999999,-229.55,-439.895
1221,1715534624100,-1.8,-0.75,0.3,-123.34999999999998,-251.46,-448.24
1222,1715534624110,-1.8,-0.75,0.3,-123.35,-251.46,-448.24
1223,1715534624120,-1.8,-0.75,0.3,-123.34999999999998,-251.46,-448.24
1224,1715534624130,-3.16,0.81,0.98,-208.98,-99.61,-477.05
1225,1715534624140,-3.16,0.81,0.98,-208.98,-99.61,-477.05
1226,1715534624150,-3.16,0.81,0.98,-208.98,-99.61,-477.05
1227,1715534624160,-3.16,0.81,0.98,-208.98,-99.61,-477.05
1228,1715534624170,-6.2575,1.125,1.025,147.79500000000002,-45.4075,-283.7375
1229,1715534624180,-7.29,1.23,1.04,266.72,-27.34,-219.30000000000004
1230,1715534624190,-7.29,1.23,1.04,266.72,-27.34,-219.3
1231,1715534624200,-7.16,0.89,0.7233333333333333,182.47333333333336,-7.463333333333334,-120.38333333333334
1232,1715534624210,-6.9,0.21,0.09,13.98,32.29,77.45
1233,1715534624220,-6.9,0.21,0.09,13.98,32.29,77.45
1234,1715534624230,-6.900000000000001,0.21,0.09000000000000001,13.979999999999999,32.29,77.45
1235,1715534624240,-6.900000000000001,0.21,0.09000000000000001,13.979999999999999,32.29,77.45
1236,1715534624250,-5.04,-1.27,1.29,-82.52,-177.12,271.12
1237,1715534624260,-5.04,-1.27,1.29,-82.52,-177.12,271.12
1238,1715534624270,-5.04,-1.27,1.29,-82.52,-177.12,271.12
1239,1715534624280,-3.7133333333333334,-0.9033333333333333,1.3166666666666667,10.946666666666667,-86.14,298.91333333333336
1240,1715534624290,-3.0499999999999994,-0.7200000000000001,1.33,57.68,-40.65,312.81
1241,1715534624300,-3.05,-0.72,1.33,57.68,-40.65,312.81
1242,1715534624310,-3.0499999999999994,-0.7200000000000001,1.33,57.68,-40.65,312.81
1243,1715534624320,-2.823333333333333,-0.4066666666666667,0.79,95.56,8.543333333333335,355.24333333333334
1244,1715534624330,-2.71,-0.25,0.52,114.5,33.14,376.46
1245,1715534624340,-2.7099999999999995,-0.25,0.52,114.5,33.14,376.46
1246,1715534624350,-2.7099999999999995,-0.25,0.52,114.5,33.14,376.46
1247,1715534624360,-2.7099999999999995,-0.25,0.52,114.5,33.14,376.46
1248,1715534624370,-2.7099999999999995,-0.25,0.52,114.5,33.14,376.46
1249,1715534624380,-2.7099999999999995,-0.25,0.52,114.5,33.14,376.46
1250,1715534624390,-2.71,-0.25,0.52,114.5,33.14,376.46
1251,1715534624400,-2.7099999999999995,-0.25,0.52,114.5,33.14,376.46
1252,1715534624410,-2.7099999999999995,-0.25,0.52,114.5,33.14,376.46
1253,1715534624420,-2.7099999999999995,-0.25,0.52,114.5,33.14,376.46
1254,1715534624430,-2.7099999999999995,-0.25,0.52,114.5,33.14,376.46
1255,1715534624440,-1.67,-1.22,0.38000000000000006,55.85,-4.27,502.2
1256,1715534624450,-1.5366666666666664,-1.4466666666666665,0.49333333333333335,43.76333333333333,4.03,515.18
1257,1715534624460,-1.47,-1.56,0.55,37.72,8.18,521.67
1258,1715534624470,-1.47,-1.5599999999999998,0.55,37.72,8.18,521.67
1259,1715534624480,-1.4175,-1.455,0.5425,29.979999999999997,-22.3525,470.1675
1260,1715534624490,-1.3999999999999997,-1.42,0.54,27.399999999999995,-32.53,453.0
1261,1715534624500,-1.4,-1.42,0.54,27.4,-32.53,453.0
1262,1715534624510,-1.4,-1.42,0.54,27.4,-32.53,453.0
1263,1715534624520,-1.21,-1.22,0.55,48.77,-55.419999999999995,353.27
1264,1715534624530,-1.21,-1.22,0.55,48.77,-55.42,353.27
1265,1715534624540,-1.21,-1.22,0.55,48.77,-55.419999999999995,353.27
1266,1715534624550,-1.1949999999999998,-1.17,0.48250000000000004,52.355000000000004,-40.2975,350.72249999999997
1267,1715534624560,-1.15,-1.02,0.28,63.11,5.07,343.08
1268,1715534624570,-1.15,-1.02,0.28,63.10999999999999,5.07,343.08
1269,1715534624580,-1.1866666666666665,-0.9900000000000001,0.21333333333333335,62.5,2.16,317.26
1270,1715534624590,-1.26,-0.93,0.08,61.28,-3.66,265.62
1271,1715534624600,-1.26,-0.93,0.08,61.28,-3.66,265.62
1272,1715534624610,-1.26,-0.93,0.08,61.28,-3.66,265.62
1273,1715534624620,-1.26,-0.93,0.08,61.28,-3.66,265.62
1274,1715534624630,-1.2166666666666666,-0.9666666666666668,-0.08333333333333333,47.403333333333336,4.986666666666667,262.4666666666667
1275,1715534624640,-1.13,-1.04,-0.41,19.65,22.28,256.16
1276,1715534624650,-1.13,-1.04,-0.41,19.65,22.28,256.16
1277,1715534624660,0.15666666666666673,-1.02,-0.35000000000000003,28.850000000000005,65.57333333333334,279.9666666666667
1278,1715534624670,0.8,-1.01,-0.32,33.45,87.22,291.87
1279,1715534624680,0.8,-1.01,-0.32,33.45,87.22,291.87
1280,1715534624690,0.8000000000000002,-1.01,-0.32,33.45,87.21999999999998,291.87
1281,1715534624700,3.6725,-1.5725,-0.4175,-48.442499999999995,107.77000000000001,279.41999999999996
1282,1715534624710,4.63,-1.76,-0.45,-75.74,114.62,275.27
1283,1715534624720,4.63,-1.76,-0.45,-75.74,114.62,275.27
1284,1715534624730,4.63,-1.76,-0.45,-75.74,114.62,275.27
1285,1715534624740,5.236666666666667,-1.9733333333333334,0.27666666666666667,-45.79333333333333,77.55333333333334,73.07666666666667
1286,1715534624750,5.54,-2.08,0.64,-30.820000000000004,59.02,-28.02
1287,1715534624760,5.54,-2.08,0.64,-30.82,59.02,-28.02
1288,1715534624770,5.54,-2.08,0.64,-30.820000000000004,59.02,-28.02
1289,1715534624780,4.565,-1.915,0.6925,51.9425,43.915000000000006,-190.755
1290,1715534624790,4.24,-1.86,0.71,79.53,38.88,-245.0
1291,1715534624800,4.24,-1.86,0.71,79.53,38.88,-245.0
1292,1715534624810,4.24,-1.86,0.71,79.53,38.88,-245.0
1293,1715534624820,0.92,-1.8999999999999997,-0.19000000000000003,143.92,38.45,-401.43
1294,1715534624830,0.92,-1.8999999999999997,-0.19000000000000003,143.92,38.45,-401.43
1295,1715534624840,0.92,-1.8999999999999997,-0.19000000000000003,143.92,38.45,-401.43
1296,1715534624850,0.92,-1.8999999999999997,-0.19000000000000003,143.92,38.45,-401.43
1297,1715534624860,-1.71,-2.04,-0.62,107.8975,42.4775,-474.9
1298,1715534624870,-1.71,-2.04,-0.62,95.89,43.82,-499.39000000000004
1299,1715534624880,-1.71,-2.04,-0.62,95.89,43.82,-499.39
1300,1715534624890,-1.71,-2.04,-0.62,95.89,43.82,-499.39000000000004
1301,1715534624900,-1.71,-2.04,-0.62,95.89,43.82,-499.39
1302,1715534624910,-1.71,-2.04,-0.62,95.89,43.82,-499.39000000000004
1303,1715534624920,-1.71,-2.04,-0.62,95.89,43.82,-499.39000000000004
1304,1715534624930,-1.71,-2.04,-0.62,95.89,43.82,-499.39
1305,1715534624940,-1.71,-2.04,-0.62,95.89,43.82,-499.39000000000004
1306,1715534624950,-1.71,-2.04,-0.62,95.89,43.82,-499.39000000000004
1307,1715534624960,-2.21,-1.6066666666666667,-0.3866666666666667,36.07,-33.120000000000005,-428.9166666666667
1308,1715534624970,-1.8933333333333333,-1.3499999999999999,0.056666666666666664,-48.72666666666667,-140.44333333333336,-400.72
1309,1715534624980,-1.61,-1.33,0.22,-76.17,-174.87,-404.24
1310,1715534624990,-1.61,-1.33,0.22,-76.17,-174.87,-404.24
1311,1715534625000,-1.61,-1.33,0.22,-76.17,-174.87,-404.24
1312,1715534625010,-1.38,-1.51,0.38,-50.9925,-10.665000000000001,-360.28999999999996
1313,1715534625020,-1.38,-1.51,0.38,-42.6,44.07,-345.64
1314,1715534625030,-1.38,-1.51,0.38000000000000006,-42.6,44.07,-345.64000000000004
1315,1715534625040,-1.38,-1.51,0.38,-42.6,44.07,-345.64
1316,1715534625050,-1.61,-1.2,0.09000000000000001,-0.85,117.0,-342.29
1317,1715534625060,-1.61,-1.2,0.09000000000000001,-0.85,117.0,-342.29
1318,1715534625070,-1.61,-1.2,0.09000000000000001,-0.85,117.0,-342.29
1319,1715534625080,-1.61,-1.2,0.09,-0.85,117.0,-342.29
1320,1715534625090,-1.5550000000000002,-0.965,0.024999999999999998,-25.51,31.705,-361.18
1321,1715534625100,-1.5,-0.73,-0.04,-50.169999999999995,-53.59,-380.07
1322,1715534625110,-1.5,-0.73,-0.04,-50.169999999999995,-53.59,-380.07
1323,1715534625120,-1.5533333333333335,-0.6166666666666667,-0.10666666666666667,-50.169999999999995,-53.59,-380.07
1324,1715534625130,-1.66,-0.38999999999999996,-0.24,-105.65000000000002,-96.98,-367.68
1325,1715534625140,-1.66,-0.39,-0.24,-105.65,-96.98,-367.68
1326,1715534625150,-1.66,-0.38999999999999996,-0.24,-105.65000000000002,-96.98,-367.68
1327,1715534625160,-1.9,-0.36,-0.1325,-148.1625,-89.2,-361.0725
1328,1715534625170,-2.62,-0.27,0.19,-275.7,-65.86,-341.25
1329,1715534625180,-2.62,-0.27,0.19000000000000003,-275.7,-65.86,-341.25
1330,1715534625190,-2.62,-0.27,0.19,-275.7,-65.86,-341.25
1331,1715534625200,-4.166666666666667,0.53,2.0433333333333334,-237.71333333333334,17.51666666666667,-328.7366666666667
1332,1715534625210,-4.94,0.93,2.97,-161.74,184.27,-303.71
1333,1715534625220,-4.94,0.93,2.97,-161.74,184.27,-303.71
1334,1715534625230,-4.94,0.93,2.97,-161.74,184.27,-303.71
1335,1715534625240,-7.989999999999999,0.3499999999999999,0.7600000000000001,-161.74,184.27,-303.71
1336,1715534625250,-7.99,0.35,0.76,82.03,-108.52,21.73
1337,1715534625260,-7.989999999999999,0.3499999999999999,0.7600000000000001,82.03,-108.52,21.73
1338,1715534625270,-7.989999999999999,0.3499999999999999,0.7600000000000001,82.03,-108.52,21.73
1339,1715534625280,-5.760000000000001,-0.61,0.53,3.943333333333333,-60.22,194.90333333333334
1340,1715534625290,-5.760000000000001,-0.61,0.53,-35.1,-36.07,281.49
1341,1715534625300,-5.760000000000001,-0.61,0.53,-35.1,-36.07,281.49
1342,1715534625310,-5.760000000000001,-0.61,0.53,-35.1,-36.07,281.49
1343,1715534625320,-3.9899999999999998,-0.73,1.3475000000000001,11.8725,-151.14999999999998,286.0725
1344,1715534625330,-3.4,-0.77,1.62,27.53,-189.51,287.6
1345,1715534625340,-3.4,-0.77,1.62,27.53,-189.51,287.6
1346,1715534625350,-3.4,-0.77,1.62,27.53,-189.51,287.6
1347,1715534625360,-2.11,-0.17,0.58,195.56000000000003,-53.830000000000005,393.55
1348,1715534625370,-2.11,-0.17,0.58,195.56,-53.83,393.55
1349,1715534625380,-2.11,-0.17,0.58,195.56000000000003,-53.830000000000005,393.55
1350,1715534625390,-2.11,-0.17,0.58,195.56000000000003,-53.830000000000005,393.55
1351,1715534625400,-2.11,-0.17,0.58,195.56,-53.83,393.55
1352,1715534625410,-2.11,-0.17,0.58,195.56,-53.83,393.55
1353,1715534625420,-2.11,-0.17,0.58,195.56,-53.83,393.55
1354,1715534625430,-2.11,-0.17,0.58,195.56000000000003,-53.830000000000005,393.55
1355,1715534625440,-2.11,-0.17,0.58,195.56,-53.83,393.55
1356,1715534625450,-2.11,-0.17,0.58,195.56,-53.83,393.55
1357,1715534625460,-2.11,-0.17,0.58,195.56000000000003,-53.830000000000005,393.55
1358,1715534625470,-2.11,-0.17,0.58,195.56000000000003,-53.830000000000005,393.55
1359,1715534625480,-1.9525,-0.3875,0.515,162.4625,-57.2325,399.61
1360,1715534625490,-1.4799999999999998,-1.04,0.32,63.169999999999995,-67.44,417.79
1361,1715534625500,-1.4799999999999998,-1.04,0.32,63.169999999999995,-67.44,417.79
1362,1715534625510,-1.8266666666666669,-1.1199999999999999,0.4066666666666667,29.80333333333333,-62.44,395.49
1363,1715534625520,-2.0,-1.16,0.45,13.12,-59.94,384.34
1364,1715534625530,-2.0,-1.16,0.45,13.12,-59.94,384.34
1365,1715534625540,-2.0,-1.16,0.45,13.12,-59.94,384.34
1366,1715534625550,-2.11,-1.46,0.54,44.207499999999996,-10.77,385.89250000000004
1367,1715534625560,-2.11,-1.46,0.54,54.57,5.62,386.41
1368,1715534625570,-2.11,-1.46,0.54,54.57,5.62,386.41
1369,1715534625580,-2.11,-1.46,0.54,54.57,5.62,386.41
1370,1715534625590,-1.72,-1.33,0.15,82.15,18.07,445.01
1371,1715534625600,-1.72,-1.33,0.15,82.15,18.07,445.01
1372,1715534625610,-1.72,-1.33,0.15,82.15,18.07,445.01
1373,1715534625620,-1.57,-1.31,0.095,67.96000000000001,24.325000000000003,442.0175
1374,1715534625630,-1.12,-1.25,-0.07,25.39,43.09,433.04
1375,1715534625640,-1.12,-1.25,-0.07,25.39,43.09,433.04
1376,1715534625650,-1.12,-1.25,-0.07,25.39,43.09,433.04
1377,1715534625660,-0.75,-1.24,-0.185,37.400000000000006,57.510000000000005,410.4425
1378,1715534625670,-0.38000000000000006,-1.23,-0.3,73.43,100.77,342.6499999999999
1379,1715534625680,-0.38000000000000006,-1.23,-0.3,73.43,100.77,342.6499999999999
1380,1715534625690,-0.38000000000000006,-1.23,-0.3,73.43,100.77,342.6499999999999
1381,1715534625700,-0.38,-1.23,-0.3,73.43,100.77,342.65
1382,1715534625710,2.13,-1.59,0.6,-41.32,-6.650000000000001,285.03
1383,1715534625720,2.13,-1.59,0.6,-41.32,-6.650000000000001,285.03
1384,1715534625730,2.13,-1.59,0.6,-41.32,-6.650000000000001,285.03
1385,1715534625740,3.7275,-1.9049999999999998,0.525,92.8025,169.585,140.60999999999999
1386,1715534625750,4.26,-2.01,0.5,137.51,228.33,92.46999999999998
1387,1715534625760,4.26,-2.01,0.5,137.51,228.33,92.46999999999998
1388,1715534625770,4.26,-2.01,0.5,137.51,228.33,92.47
1389,1715534625780,4.33,-1.65,0.73,137.51,228.33,92.47
1390,1715534625790,4.33,-1.6499999999999997,0.73,-3.2999999999999994,-203.06000000000003,-119.14
1391,1715534625800,4.33,-1.65,0.73,-3.3,-203.06,-119.14
1392,1715534625810,4.3075,-1.635,0.8125,-3.3,-203.06,-119.14
1393,1715534625820,4.24,-1.59,1.06,-10.800000000000002,-75.81,-127.01
1394,1715534625830,4.24,-1.59,1.06,-10.8,-75.81,-127.01
1395,1715534625840,4.24,-1.59,1.06,-10.800000000000002,-75.81,-127.01
1396,1715534625850,4.24,-1.59,1.06,-10.8,-75.81,-127.01
1397,1715534625860,2.606666666666667,-1.8766666666666667,0.7200000000000001,104.22666666666667,16.236666666666665,-212.91
1398,1715534625870,1.79,-2.02,0.55,161.74,62.26,-255.86
1399,1715534625880,1.79,-2.02,0.55,161.74,62.26,-255.86
1400,1715534625890,0.32500000000000007,-2.1399999999999997,0.17000000000000004,183.01250000000002,36.9,-302.26250000000005
1401,1715534625900,-1.14,-2.26,-0.21,246.83,-39.18,-441.47
1402,1715534625910,-1.14,-2.26,-0.21,246.83,-39.18,-441.47
1403,1715534625920,-1.14,-2.26,-0.21,246.83,-39.18,-441.47
1404,1715534625930,-1.14,-2.26,-0.21,246.83,-39.18,-441.47
1405,1715534625940,-1.14,-2.26,-0.21,246.83,-39.18,-441.47
1406,1715534625950,-1.14,-2.26,-0.21,246.83,-39.18,-441.47
1407,1715534625960,-1.14,-2.26,-0.21,246.83,-39.18,-441.47
1408,1715534625970,-1.14,-2.26,-0.21,246.83,-39.18,-441.47
1409,1715534625980,-1.14,-2.26,-0.21,246.83,-39.18,-441.47
1410,1715534625990,-1.14,-2.26,-0.21,246.83,-39.18,-441.47
1411,1715534626000,-1.14,-2.26,-0.21,246.83,-39.18,-441.47
1412,1715534626010,-2.07,-1.3900000000000001,-0.23249999999999998,116.625,-209.1225,-402.57500000000005
1413,1715534626020,-2.38,-1.1,-0.24,7.51,-384.89,-363.04
1414,1715534626030,-2.38,-1.1,-0.24,7.510000000000001,-384.89000000000004,-363.04
1415,1715534626040,-2.38,-1.1,-0.24,7.51,-384.89,-363.04
1416,1715534626050,-1.27,-1.3500000000000003,0.57,-42.3,-176.21,-339.29
1417,1715534626060,-1.27,-1.35,0.57,-42.3,-176.21,-339.29
1418,1715534626070,-1.27,-1.35,0.57,-42.3,-176.21,-339.29
1419,1715534626080,-1.27,-1.35,0.57,-42.3,-176.21,-339.29
1420,1715534626090,-1.71,-1.17,0.15,-15.14,59.2,-347.47
1421,1715534626100,-1.71,-1.17,0.15,-15.14,59.2,-347.47
1422,1715534626110,-1.71,-1.17,0.15,-15.14,59.20000000000001,-347.47
1423,1715534626120,-1.7375,-1.0999999999999999,0.1375,-35.1125,2.1025000000000063,-366.4525
1424,1715534626130,-1.82,-0.89,0.10000000000000002,-95.03000000000002,-169.19,-423.3999999999999
1425,1715534626140,-1.82,-0.89,0.1,-95.03,-169.19,-423.4
1426,1715534626150,-1.82,-0.89,0.10000000000000002,-95.03000000000002,-169.19,-423.3999999999999
1427,1715534626160,-1.74,-0.8433333333333333,0.32666666666666666,-95.03000000000002,-169.19,-423.3999999999999
1428,1715534626170,-1.7,-0.82,0.44,-174.13,-326.6,-404.6000000000001
1429,1715534626180,-1.7,-0.82,0.44,-174.13,-326.6,-404.6000000000001
1430,1715534626190,-1.7,-0.82,0.44,-174.13,-326.6,-404.6
1431,1715534626200,-2.2866666666666666,-0.37999999999999995,0.7066666666666667,-112.49000000000001,-205.79333333333332,-357.48
1432,1715534626210,-2.58,-0.16,0.84,-81.67,-145.39,-333.92
1433,1715534626220,-2.58,-0.16,0.84,-81.67,-145.39,-333.92
1434,1715534626230,-2.58,-0.16,0.84,-81.67,-145.39,-333.92
1435,1715534626240,-4.293333333333334,0.7600000000000001,1.3666666666666665,2.396666666666666,-9.36333333333333,-331.32
1436,1715534626250,-5.15,1.22,1.63,44.43,58.65,-330.02
1437,1715534626260,-5.15,1.22,1.63,44.43,58.65,-330.02
1438,1715534626270,-5.15,1.22,1.63,44.43,58.65,-330.02
1439,1715534626280,-7.73,0.9700000000000001,-1.0,5.13,107.42,-27.53
1440,1715534626290,-7.73,0.97,-1.0,5.13,107.42,-27.53
1441,1715534626300,-7.73,0.9700000000000001,-1.0,5.13,107.42,-27.53
1442,1715534626310,-7.73,0.9700000000000001,-1.0,5.13,107.42,-27.53
1443,1715534626320,-6.1,-1.32,0.45,5.13,107.42,-27.53
1444,1715534626330,-6.099999999999999,-1.32,0.45,-171.51,-42.24,273.74
1445,1715534626340,-6.1,-1.32,0.45,-171.51,-42.24,273.74
1446,1715534626350,-5.176666666666667,-1.1733333333333333,0.63,-121.76666666666665,-68.09666666666668,291.46
1447,1715534626360,-3.33,-0.88,0.9899999999999999,-22.28,-119.81,326.9
1448,1715534626370,-3.33,-0.88,0.9899999999999999,-22.28,-119.81,326.9
1449,1715534626380,-3.33,-0.88,0.9899999999999999,-22.28,-119.81,326.9
1450,1715534626390,-3.0533333333333332,-0.6333333333333333,0.7066666666666667,-22.28,-119.81,326.9
1451,1715534626400,-2.5,-0.14,0.14,66.87333333333333,-61.29666666666666,298.82666666666665
1452,1715534626410,-2.5,-0.14,0.14,111.45,-32.04,284.79
1453,1715534626420,-2.5,-0.14,0.14,111.45,-32.04,284.79
1454,1715534626430,-2.0533333333333332,-0.12,0.15333333333333335,87.07666666666667,7.673333333333335,348.8766666666667
1455,1715534626440,-1.83,-0.11,0.16,74.89,27.53,380.92
1456,1715534626450,-1.83,-0.11,0.16,74.89,27.53,380.92
1457,1715534626460,-1.83,-0.11,0.16,74.89,27.53,380.92
1458,1715534626470,-1.83,-0.11,0.16,74.89,27.53,380.92
1459,1715534626480,-1.83,-0.11,0.16,74.89,27.53,380.92
1460,1715534626490,-1.83,-0.11,0.16,74.89,27.53,380.92
1461,1715534626500,-1.83,-0.11,0.16,74.89,27.53,380.92
1462,1715534626510,-1.83,-0.11,0.16,74.89,27.53,380.92
1463,1715534626520,-1.83,-0.11,0.16,74.89,27.53,380.92
1464,1715534626530,-1.75,-0.8400000000000001,0.305,13.120000000000001,-4.359999999999999,443.755
1465,1715534626540,-1.67,-1.57,0.45,-48.65,-36.25,506.59
1466,1715534626550,-1.46,-1.58,0.7399999999999999,64.09,112.79,476.75
1467,1715534626560,-1.46,-1.58,0.74,64.09,112.79,476.75
1468,1715534626570,-1.46,-1.58,0.7399999999999999,64.09,112.79,476.75
1469,1715534626580,-1.54,-1.4875,0.63,63.6775,113.02000000000001,468.4175
1470,1715534626590,-1.78,-1.21,0.3,62.44,113.71,443.42
1471,1715534626600,-1.78,-1.21,0.3,62.44,113.71,443.42
1472,1715534626610,-1.78,-1.21,0.3,62.44,113.71,443.42
1473,1715534626620,-1.78,-1.21,0.3,62.44,113.71,443.42
1474,1715534626630,-1.47,-1.18,0.33,20.26,-65.43,412.29
1475,1715534626640,-1.47,-1.18,0.33,20.26,-65.43,412.29
1476,1715534626650,-1.47,-1.18,0.33,20.26,-65.43,412.29
1477,1715534626660,-1.3733333333333333,-1.1166666666666665,0.27,12.836666666666668,-55.15666666666667,394.1833333333334
1478,1715534626670,-1.18,-0.9899999999999999,0.15,-2.01,-34.61,357.97
1479,1715534626680,-1.18,-0.9899999999999999,0.15,-2.01,-34.61,357.97
1480,1715534626690,-1.18,-0.99,0.15,-2.01,-34.61,357.97
1481,1715534626700,-1.18,-1.0166666666666666,-0.06333333333333334,-2.01,-34.61,357.97
1482,1715534626710,-1.18,-1.03,-0.17,-5.8,68.79,321.29
1483,1715534626720,-1.18,-1.03,-0.17,-5.8,68.79,321.29
1484,1715534626730,-1.18,-1.03,-0.17,-5.8,68.79,321.29
1485,1715534626740,-0.475,-1.03,-0.275,-33.7225,10.425000000000002,295.61
1486,1715534626750,-0.24,-1.03,-0.31,-43.03,-9.03,287.05
1487,1715534626760,-0.24,-1.03,-0.31,-43.03,-9.03,287.05
1488,1715534626770,1.0233333333333332,-1.1066666666666667,-0.19666666666666666,-43.03,-9.03,287.05
1489,1715534626780,3.55,-1.26,0.03,-63.965,-32.07,285.25
1490,1715534626790,3.55,-1.26,0.03,-84.9,-55.11,283.45
1491,1715534626800,3.5499999999999994,-1.26,0.03,-84.9,-55.10999999999999,283.45
1492,1715534626810,4.113333333333333,-1.6433333333333333,-0.036666666666666674,-31.71666666666667,21.060000000000002,216.16666666666666
1493,1715534626820,5.24,-2.41,-0.17,74.65,173.4,81.6
1494,1715534626830,5.24,-2.41,-0.17,74.65,173.4,81.6
1495,1715534626840,5.24,-2.41,-0.17,74.65,173.4,81.6
1496,1715534626850,5.23,-2.2875,-0.10250000000000001,60.81,86.2275,16.812499999999993
1497,1715534626860,5.2,-1.92,0.10000000000000002,19.29,-175.29,-177.55000000000004
1498,1715534626870,5.2,-1.92,0.1,19.29,-175.29,-177.55
1499,1715534626880,5.2,-1.92,0.10000000000000002,19.29,-175.29,-177.55000000000004
1500,1715534626890,3.313333333333334,-1.8466666666666667,0.0,40.49,-107.36,-224.85333333333332
1501,1715534626900,2.37,-1.8099999999999998,-0.05000000000000001,82.89,28.5,-319.46
1502,1715534626910,2.37,-1.81,-0.05,82.89,28.5,-319.46
1503,1715534626920,2.37,-1.81,-0.05,82.89,28.5,-319.46
1504,1715534626930,0.5100000000000001,-1.9433333333333334,-0.003333333333333334,105.75666666666666,60.16,-394.85999999999996
1505,1715534626940,-0.42,-2.01,0.02,117.19,75.99,-432.56
1506,1715534626950,-0.42000000000000004,-2.01,0.02,117.19000000000001,75.99,-432.56000000000006
1507,1715534626960,-0.42000000000000004,-2.01,0.02,117.19000000000001,75.99,-432.56000000000006
1508,1715534626970,-0.42000000000000004,-2.01,0.02,117.19000000000001,75.99,-432.56000000000006
1509,1715534626980,-0.42000000000000004,-2.01,0.02,117.19000000000001,75.99,-432.56000000000006
1510,1715534626990,-0.42,-2.01,0.02,117.19,75.99,-432.56
1511,1715534627000,-0.42,-2.01,0.02,117.19,75.99,-432.56
1512,1715534627010,-0.42000000000000004,-2.01,0.02,117.19000000000001,75.99,-432.56000000000006
1513,1715534627020,-0.42000000000000004,-2.01,0.02,117.19000000000001,75.99,-432.56000000000006
1514,1715534627030,-0.42,-2.01,0.02,117.19,75.99,-432.56
1515,1715534627040,-0.42000000000000004,-2.01,0.02,117.19000000000001,75.99,-432.56000000000006
1516,1715534627050,-0.42000000000000004,-2.01,0.02,117.19000000000001,75.99,-432.56000000000006
1517,1715534627060,-2.04,-1.15,0.18,35.89,-109.25,-332.15
1518,1715534627070,-2.04,-1.15,0.18,35.89,-109.25,-332.15
1519,1715534627080,-1.938,-1.126,0.20400000000000001,20.57,-128.476,-333.53
1520,1715534627090,-1.53,-1.03,0.3,-40.71,-205.38000000000002,-339.05
1521,1715534627100,-1.53,-1.03,0.3,-40.71,-205.38,-339.05
1522,1715534627110,-1.53,-1.03,0.3,-40.71,-205.38000000000002,-339.05
1523,1715534627120,-1.356,-1.108,0.414,-49.314,-145.326,-347.474
1524,1715534627130,-1.24,-1.16,0.49,-55.05,-105.29,-353.09
1525,1715534627140,-1.24,-1.16,0.49,-55.05,-105.29,-353.09
1526,1715534627150,-1.24,-1.16,0.49000000000000005,-55.05,-105.29,-353.09
1527,1715534627160,-1.39,-1.04,0.4075,-38.76,-25.5425,-357.11749999999995
1528,1715534627170,-1.44,-1.0,0.38,-33.33,1.04,-358.46
1529,1715534627180,-1.44,-1.0,0.38,-33.33,1.04,-358.46
1530,1715534627190,-1.44,-1.0,0.38,-33.33,1.04,-358.46
1531,1715534627200,-1.61,-0.74,0.24,-70.59,-113.905,-362.99
1532,1715534627210,-1.61,-0.7399999999999999,0.24,-83.01,-152.22,-364.5
1533,1715534627220,-1.61,-0.74,0.24,-83.01,-152.22,-364.5
1534,1715534627230,-1.61,-0.7399999999999999,0.24,-83.01,-152.22,-364.5
1535,1715534627240,-1.5275,-0.605,0.32999999999999996,-109.0125,-228.99,-349.71750000000003
1536,1715534627250,-1.5,-0.56,0.36,-117.68,-254.58,-344.79
1537,1715534627260,-1.5,-0.56,0.36000000000000004,-117.68,-254.58,-344.79
1538,1715534627270,-1.7375,-0.44000000000000006,0.41000000000000003,-117.68,-254.58,-344.79
1539,1715534627280,-2.45,-0.08,0.56,-200.62,-221.92,-316.35
1540,1715534627290,-2.45,-0.08,0.56,-200.62,-221.92,-316.35
1541,1715534627300,-2.45,-0.08,0.56,-200.62,-221.92,-316.35
1542,1715534627310,-3.9050000000000002,0.205,1.895,-182.37,-45.61999999999999,-359.71500000000003
1543,1715534627320,-5.36,0.49,3.23,-164.12,130.68,-403.08
1544,1715534627330,-5.36,0.49,3.23,-164.12,130.68,-403.08
1545,1715534627340,-5.36,0.49,3.23,-164.12,130.68,-403.08
1546,1715534627350,-7.12,-0.03666666666666666,1.7700000000000002,-105.44666666666667,50.76,-195.84
1547,1715534627360,-8.0,-0.3,1.04,-76.11,10.800000000000002,-92.21999999999998
1548,1715534627370,-8.0,-0.3,1.04,-76.11,10.8,-92.22
1549,1715534627380,-8.0,-0.3,1.04,-76.11,10.800000000000002,-92.21999999999998
1550,1715534627390,-6.005,-1.0350000000000001,1.4825,-93.505,21.18,107.82000000000001
1551,1715534627400,-5.34,-1.28,1.63,-110.90000000000002,31.56,307.86
1552,1715534627410,-5.34,-1.28,1.63,-110.90000000000002,31.56,307.86
1553,1715534627420,-5.34,-1.28,1.63,-110.90000000000002,31.56,307.86
1554,1715534627430,-3.29,-0.55,1.53,-10.190000000000001,-45.855,317.385
1555,1715534627440,-3.2900000000000005,-0.55,1.53,23.38,-71.66,320.56
1556,1715534627450,-3.29,-0.55,1.53,23.38,-71.66,320.56
1557,1715534627460,-3.1550000000000002,-0.42500000000000004,1.24,23.38,-71.66,320.56
1558,1715534627470,-2.75,-0.05000000000000001,0.36999999999999994,133.48,-69.52,432.74
1559,1715534627480,-2.75,-0.05,0.37,133.48,-69.52,432.74
1560,1715534627490,-2.75,-0.05000000000000001,0.36999999999999994,133.48,-69.52,432.74
1561,1715534627500,-2.75,-0.05,0.37,133.48,-69.52,432.74
1562,1715534627510,-2.75,-0.05000000000000001,0.36999999999999994,133.48,-69.52,432.74
1563,1715534627520,-2.75,-0.05000000000000001,0.36999999999999994,133.48,-69.52,432.74
1564,1715534627530,-2.75,-0.05000000000000001,0.36999999999999994,133.48,-69.52,432.74
1565,1715534627540,-2.75,-0.05000000000000001,0.36999999999999994,133.48,-69.52,432.74
1566,1715534627550,-2.75,-0.05000000000000001,0.36999999999999994,133.48,-69.52,432.74
1567,1715534627560,-2.75,-0.05,0.37,133.48,-69.52,432.74
1568,1715534627570,-2.75,-0.05000000000000001,0.36999999999999994,133.48,-69.52,432.74
1569,1715534627580,-1.9175,-1.2574999999999998,0.415,86.6375,-72.16,495.725
1570,1715534627590,-1.64,-1.66,0.43,40.77,-58.9,495.48
1571,1715534627600,-1.64,-1.66,0.43,40.77,-58.9,495.48
1572,1715534627610,-1.64,-1.66,0.43,40.77,-58.9,495.48
1573,1715534627620,-1.565,-1.5175,0.565,48.86,-62.44,436.55
1574,1715534627630,-1.54,-1.47,0.61,56.95000000000001,-65.98,377.62000000000006
1575,1715534627640,-1.54,-1.47,0.61,56.95,-65.98,377.62
1576,1715534627650,-1.54,-1.47,0.61,56.95,-65.98,377.62
1577,1715534627660,-1.345,-1.365,0.4525,105.88,-13.705,357.895
1578,1715534627670,-1.28,-1.33,0.4000000000000001,122.19,3.72,351.32
1579,1715534627680,-1.28,-1.33,0.4,122.19,3.72,351.32
1580,1715534627690,-1.28,-1.33,0.4000000000000001,122.19,3.72,351.32
1581,1715534627700,-1.6499999999999997,-1.36,0.01,67.14,-8.12,332.15
1582,1715534627710,-1.65,-1.36,0.01,67.14,-8.12,332.15
1583,1715534627720,-1.6499999999999997,-1.36,0.01,67.14,-8.12,332.15
1584,1715534627730,-1.6833333333333333,-1.4033333333333333,-0.15,77.02666666666666,10.496666666666666,315.24333333333334
1585,1715534627740,-1.75,-1.49,-0.47,96.8,47.73,281.43
1586,1715534627750,-1.75,-1.49,-0.47,96.8,47.73,281.43
1587,1715534627760,-1.75,-1.49,-0.47,96.8,47.73,281.43
1588,1715534627770,-1.1325,-1.53,-0.37,75.6375,11.582499999999996,305.4325
1589,1715534627780,0.7200000000000001,-1.6499999999999997,-0.07,12.15,-96.86,377.44
1590,1715534627790,0.7200000000000001,-1.6499999999999997,-0.07,12.15,-96.86,377.44
1591,1715534627800,0.7200000000000001,-1.6499999999999997,-0.07,12.15,-96.86,377.44
1592,1715534627810,1.3533333333333335,-1.4733333333333334,-0.15,24.58,-61.276666666666664,325.2366666666667
1593,1715534627820,2.62,-1.12,-0.31,49.44,9.89,220.83
1594,1715534627830,2.62,-1.12,-0.31,49.44,9.89,220.83
1595,1715534627840,2.62,-1.12,-0.31,49.44,9.89,220.83
1596,1715534627850,2.62,-1.12,-0.31,49.44,9.89,220.83
1597,1715534627860,4.03,-1.27,-1.26,-59.75,-161.19,55.66
1598,1715534627870,4.03,-1.27,-1.26,-59.75,-161.19,55.66
1599,1715534627880,4.03,-1.27,-1.26,-59.75,-161.19,55.66
1600,1715534627890,4.44,-1.06,0.19,-8.61,-11.05,67.5
1601,1715534627900,4.44,-1.06,0.19000000000000003,-8.61,-11.050000000000002,67.5
1602,1715534627910,4.44,-1.06,0.19000000000000003,-8.61,-11.050000000000002,67.5
1603,1715534627920,4.44,-1.06,0.19,-8.61,-11.05,67.5
1604,1715534627930,2.7900000000000005,-1.92,0.15,49.74,65.73,97.34999999999998
1605,1715534627940,2.7900000000000005,-1.92,0.15,49.74,65.73,97.34999999999998
1606,1715534627950,2.79,-1.92,0.15,49.74,65.73,97.35
1607,1715534627960,2.79,-1.92,0.15,49.74,65.73,97.35
1608,1715534627970,-0.13,-1.7299999999999998,-0.19000000000000003,199.34,29.11,-261.17
1609,1715534627980,-0.13,-1.7299999999999998,-0.19000000000000003,199.34,29.11,-261.17
1610,1715534627990,-0.13,-1.7299999999999998,-0.19000000000000003,199.34,29.11,-261.17
1611,1715534628000,-0.34,-1.5200000000000002,-0.20333333333333334,199.34,29.11,-261.17
1612,1715534628010,-0.7600000000000001,-1.1,-0.23,198.4466666666667,-24.516666666666666,-349.9566666666667
1613,1715534628020,-0.7600000000000001,-1.1,-0.23,198.0,-51.330000000000005,-394.3500000000001
1614,1715534628030,-0.7600000000000001,-1.1,-0.23,198.0,-51.330000000000005,-394.3500000000001
1615,1715534628040,-0.7600000000000001,-1.1,-0.23,198.0,-51.330000000000005,-394.3500000000001
1616,1715534628050,-0.7600000000000001,-1.1,-0.23,198.0,-51.330000000000005,-394.3500000000001
1617,1715534628060,-0.7600000000000001,-1.1,-0.23,198.0,-51.330000000000005,-394.3500000000001
1618,1715534628070,-0.7600000000000001,-1.1,-0.23,198.0,-51.330000000000005,-394.3500000000001
1619,1715534628080,-0.7600000000000001,-1.1,-0.23,198.0,-51.330000000000005,-394.3500000000001
1620,1715534628090,-0.76,-1.1,-0.23,198.0,-51.33,-394.35
1621,1715534628100,-0.7600000000000001,-1.1,-0.23,198.0,-51.330000000000005,-394.3500000000001
1622,1715534628110,-2.29,-1.04,-0.48,122.68,-101.38,-431.27
1623,1715534628120,-2.035,-1.05,-0.26,30.210000000000004,-147.98000000000002,-429.87
1624,1715534628130,-1.78,-1.06,-0.04,-62.26,-194.58,-428.47
1625,1715534628140,-1.78,-1.06,-0.04,-62.26,-194.58,-428.47
1626,1715534628150,-1.78,-1.06,-0.04,-62.26,-194.58,-428.47
1627,1715534628160,-1.9466666666666665,-1.1733333333333333,0.14666666666666664,-82.25666666666666,-148.62,-444.95000000000005
1628,1715534628170,-2.03,-1.23,0.24,-122.25,-56.7,-477.91
1629,1715534628180,-2.03,-1.23,0.24,-122.25,-56.70000000000001,-477.91
1630,1715534628190,-2.03,-1.23,0.24,-122.25,-56.7,-477.91
1631,1715534628200,-2.17,-1.01,0.31,-156.06333333333333,-90.63333333333333,-479.9433333333333
1632,1715534628210,-2.17,-1.01,0.31,-172.97,-107.6,-480.96
1633,1715534628220,-2.17,-1.01,0.31,-172.97,-107.59999999999998,-480.96
1634,1715534628230,-2.17,-1.01,0.31,-172.97,-107.59999999999998,-480.96
1635,1715534628240,-1.63,-1.01,0.63,-168.84,-121.25333333333333,-452.9433333333333
1636,1715534628250,-1.63,-1.01,0.63,-160.58,-148.56,-396.91
1637,1715534628260,-1.63,-1.01,0.63,-160.58,-148.56,-396.91
1638,1715534628270,-1.63,-1.01,0.63,-160.58,-148.56,-396.91
1639,1715534628280,-1.76,-0.92,0.66,-82.95,-42.72,-353.21
1640,1715534628290,-1.76,-0.92,0.66,-82.95,-42.72,-353.21
1641,1715534628300,-1.76,-0.92,0.66,-82.95,-42.72,-353.21
1642,1715534628310,-1.76,-0.92,0.66,-82.95,-42.72,-353.21
1643,1715534628320,-3.04,-0.16,0.49,-18.25,-76.9,-372.07
1644,1715534628330,-3.0400000000000005,-0.16,0.49,-18.25,-76.9,-372.07
1645,1715534628340,-3.0400000000000005,-0.16,0.49,-18.25,-76.9,-372.07
1646,1715534628350,-3.9066666666666663,0.3133333333333333,0.7399999999999999,-18.25,-76.9,-372.07
1647,1715534628360,-5.64,1.26,1.24,-143.43,-99.67,-419.37
1648,1715534628370,-5.64,1.26,1.24,-143.43,-99.67,-419.37000000000006
1649,1715534628380,-5.64,1.26,1.24,-143.43,-99.67,-419.37000000000006
1650,1715534628390,-8.0,1.52,0.4,10.989999999999995,-68.11500000000001,-286.56
1651,1715534628400,-8.0,1.52,0.4,165.41,-36.56,-153.75
1652,1715534628410,-8.0,1.5200000000000002,0.4000000000000001,165.41,-36.56,-153.75
1653,1715534628420,-8.0,1.5200000000000002,0.4000000000000001,165.41,-36.56,-153.75
1654,1715534628430,-6.13,0.42,0.77,-167.79,66.65,285.28
1655,1715534628440,-6.13,0.42,0.77,-167.79,66.65,285.28
1656,1715534628450,-6.13,0.42,0.77,-167.79,66.65,285.28
1657,1715534628460,-6.13,0.42,0.77,-167.79,66.65,285.28
1658,1715534628470,-4.0,0.135,1.2574999999999998,-96.50999999999999,-95.25999999999999,364.93
1659,1715534628480,-3.2900000000000005,0.04,1.42,-72.75,-149.23,391.48
1660,1715534628490,-3.29,0.04,1.42,-72.75,-149.23,391.48
1661,1715534628500,-2.9333333333333336,-0.043333333333333335,1.2433333333333334,-25.143333333333334,-93.21999999999998,414.57
1662,1715534628510,-2.22,-0.21,0.89,70.07,18.8,460.75
1663,1715534628520,-2.22,-0.21,0.89,70.07,18.8,460.75
1664,1715534628530,-2.22,-0.21,0.89,70.07,18.8,460.75
1665,1715534628540,-2.22,-0.21,0.89,70.07,18.8,460.75
1666,1715534628550,-2.22,-0.21,0.89,70.07,18.8,460.75
1667,1715534628560,-2.22,-0.21,0.89,70.07,18.8,460.75
1668,1715534628570,-2.22,-0.21,0.89,70.07,18.8,460.75
1669,1715534628580,-2.22,-0.21,0.89,70.07,18.8,460.75
1670,1715534628590,-2.22,-0.21,0.89,70.07,18.8,460.75
1671,1715534628600,-2.22,-0.21,0.89,70.07,18.8,460.75
1672,1715534628610,-2.22,-0.21,0.89,70.07,18.8,460.75
1673,1715534628620,-2.22,-0.21,0.89,70.07,18.8,460.75
1674,1715534628630,-1.9800000000000002,-0.6266666666666666,0.8133333333333334,54.099999999999994,16.013333333333332,461.78999999999996
1675,1715534628640,-1.5,-1.46,0.66,22.16,10.44,463.87
1676,1715534628650,-1.5,-1.46,0.66,22.16,10.44,463.87
1677,1715534628660,-1.85,-1.14,0.6,81.48,-3.23,348.94
1678,1715534628670,-1.85,-1.14,0.6,81.48,-3.23,348.94
1679,1715534628680,-1.8500000000000003,-1.14,0.6,81.48,-3.23,348.94
1680,1715534628690,-1.87,-1.1524999999999999,0.5549999999999999,76.0025,-10.465,358.355
1681,1715534628700,-1.93,-1.19,0.42,59.57,-32.17,386.6000000000001
1682,1715534628710,-1.93,-1.19,0.42,59.57,-32.17,386.6000000000001
1683,1715534628720,-1.93,-1.19,0.42,59.57,-32.17,386.6
1684,1715534628730,-1.8466666666666667,-1.23,0.3433333333333333,59.57,-32.17,386.6000000000001
1685,1715534628740,-1.68,-1.31,0.19,100.46,6.1,398.68
1686,1715534628750,-1.68,-1.31,0.19000000000000003,100.46,6.099999999999999,398.68
1687,1715534628760,-1.68,-1.31,0.19,100.46,6.1,398.68
1688,1715534628770,-1.68,-1.31,0.19000000000000003,100.46,6.099999999999999,398.68
1689,1715534628780,-1.32,-1.2,-0.41,85.14,36.5,335.14
1690,1715534628790,-1.32,-1.2,-0.41,85.14,36.5,335.14
1691,1715534628800,-1.32,-1.2,-0.41,85.14,36.5,335.14
1692,1715534628810,-0.09000000000000001,-1.2525,-0.16999999999999998,50.445,17.4575,301.495
1693,1715534628820,0.32,-1.27,-0.09000000000000001,38.88,11.11,290.28
1694,1715534628830,0.32,-1.27,-0.09,38.88,11.11,290.28
1695,1715534628840,0.32,-1.27,-0.09000000000000001,38.88,11.11,290.28
1696,1715534628850,2.2,-1.4,-0.22499999999999998,38.88,11.11,290.28
1697,1715534628860,4.08,-1.53,-0.36000000000000004,-3.806666666666665,48.09666666666667,286.62
1698,1715534628870,4.08,-1.53,-0.36000000000000004,-25.149999999999995,66.59,284.79
1699,1715534628880,4.08,-1.53,-0.36000000000000004,-25.149999999999995,66.59,284.79
1700,1715534628890,4.695,-1.9275000000000002,0.1725,-68.8675,-24.369999999999997,74.0325
1701,1715534628900,4.9,-2.06,0.3499999999999999,-83.44,-54.69,3.78
1702,1715534628910,4.9,-2.06,0.35,-83.44,-54.69,3.78
1703,1715534628920,4.9,-2.06,0.3499999999999999,-83.44,-54.69,3.78
1704,1715534628930,4.86,-1.8333333333333333,0.7033333333333333,-59.43,-70.62,-47.53
1705,1715534628940,4.84,-1.72,0.88,-11.410000000000002,-102.48,-150.15
1706,1715534628950,4.84,-1.72,0.88,-11.410000000000002,-102.48,-150.15
1707,1715534628960,4.84,-1.72,0.88,-11.410000000000002,-102.48,-150.15
1708,1715534628970,3.033333333333333,-1.9466666666666665,0.17333333333333334,142.11,-45.39333333333334,-243.89666666666665
1709,1715534628980,2.13,-2.06,-0.18000000000000002,218.87,-16.85,-290.77
1710,1715534628990,2.13,-2.06,-0.18,218.87,-16.85,-290.77
1711,1715534629000,2.13,-2.06,-0.18000000000000002,218.87,-16.85,-290.77
1712,1715534629010,-0.52,-2.23,-0.62,170.9,-79.77,-369.51
1713,1715534629020,-0.52,-2.23,-0.62,170.9,-79.77,-369.51
1714,1715534629030,-0.52,-2.23,-0.62,170.9,-79.77,-369.51
1715,1715534629040,-1.1033333333333333,-2.1233333333333335,-0.5766666666666667,149.53666666666666,-53.056666666666665,-400.00666666666666
1716,1715534629050,-2.27,-1.91,-0.49,106.81,0.37,-461.0
