id,timestamp,acc_x,acc_y,acc_z,gyro_x,gyro_y,gyro_z
0,1715532638540,0.105,-0.6200000000000001,1.8599999999999999,-30.914999999999992,-2.99,12.515
1,1715532638550,0.12,-0.68,1.2,-194.95,19.53,-36.74
2,1715532638560,0.12,-0.68,1.2,-194.94999999999996,19.53,-36.74
3,1715532638570,0.19333333333333336,-0.5866666666666668,1.1166666666666665,-194.94999999999996,19.53,-36.74
4,1715532638580,0.34,-0.4,0.95,-229.92,4.58,-2.5
5,1715532638590,0.34,-0.4000000000000001,0.9499999999999998,-229.92,4.58,-2.5
6,1715532638600,0.34,-0.4000000000000001,0.9499999999999998,-229.92,4.58,-2.5
7,1715532638610,0.496,-0.356,0.914,-229.92,4.58,-2.5
8,1715532638620,0.73,-0.29,0.86,-272.2366666666666,-45.678333333333335,-99.09166666666665
9,1715532638630,0.73,-0.29,0.86,-280.7,-55.73,-118.41000000000001
10,1715532638640,0.73,-0.29,0.86,-280.7,-55.73,-118.41
11,1715532638650,0.6633333333333333,-0.2833333333333334,0.48,-260.56,-34.24333333333333,-142.04999999999998
12,1715532638660,0.63,-0.28,0.29,-250.49,-23.5,-153.87
13,1715532638670,0.63,-0.28,0.29,-250.49,-23.5,-153.87
14,1715532638680,0.63,-0.28,0.29,-250.49,-23.5,-153.87
15,1715532638690,0.39,-0.312,-0.11800000000000002,-178.226,-68.46799999999999,-165.68599999999998
16,1715532638700,0.33,-0.32,-0.22,-160.16,-79.71,-168.64
17,1715532638710,0.33,-0.32,-0.22000000000000003,-160.16,-79.71,-168.64
18,1715532638720,0.33,-0.32,-0.22000000000000003,-160.16,-79.71,-168.64
19,1715532638730,0.5133333333333333,-0.10333333333333333,0.3633333333333333,-193.085,-96.435,-182.495
20,1715532638740,0.55,-0.06,0.48,-226.01,-113.16,-196.35
21,1715532638750,0.55,-0.06,0.48,-226.01,-113.16,-196.35
22,1715532638760,0.55,-0.06,0.48,-226.01,-113.16,-196.35
23,1715532638770,0.21000000000000002,-0.4600000000000001,1.29,-271.424,-153.66,-211.95
24,1715532638780,0.21000000000000002,-0.4600000000000001,1.29,-301.7,-180.66,-222.35
25,1715532638790,0.21000000000000002,-0.4600000000000001,1.29,-301.7,-180.66,-222.35
26,1715532638800,0.21000000000000002,-0.4600000000000001,1.29,-301.7,-180.66,-222.35
27,1715532638810,0.21000000000000002,-0.4600000000000001,1.29,-301.7,-180.66,-222.35
28,1715532638820,0.21000000000000002,-0.4600000000000001,1.29,-301.7,-180.66,-222.35
29,1715532638830,0.21,-0.46,1.29,-301.7,-180.66,-222.35
30,1715532638840,0.21000000000000002,-0.4600000000000001,1.29,-301.7,-180.66,-222.35
31,1715532638850,0.21000000000000002,-0.4600000000000001,1.29,-301.7,-180.66,-222.35
32,1715532638860,-0.04749999999999999,-0.4275,1.74,-229.815,-132.9325,-181.885
33,1715532638870,-0.82,-0.33,3.09,-14.16,10.25,-60.489999999999995
34,1715532638880,-0.665,-0.46499999999999997,3.21,28.410000000000004,-0.1849999999999996,-15.045000000000002
35,1715532638890,-0.51,-0.6,3.33,70.98,-10.62,30.4
36,1715532638900,-0.51,-0.6,3.3299999999999996,70.98,-10.62,30.4
37,1715532638910,-0.51,-0.6,3.33,70.98,-10.62,30.4
38,1715532638920,-0.36,-0.5175,3.06,99.285,8.1475,57.91
39,1715532638930,0.09,-0.27,2.25,184.2,64.45,140.44
40,1715532638940,0.09,-0.27,2.25,184.2,64.45,140.44
41,1715532638950,0.09,-0.27,2.25,184.2,64.45,140.44
42,1715532638960,0.35,-0.19,1.52,212.04,80.57,149.17
43,1715532638970,0.3499999999999999,-0.19000000000000003,1.5200000000000002,212.04,80.57,149.17
44,1715532638980,0.35,-0.19,1.52,212.04,80.57,149.17
45,1715532638990,0.35,-0.19,1.52,212.04,80.57,149.17
46,1715532639000,0.35,-0.19,1.52,212.04,80.57,149.17
47,1715532639010,0.35,-0.19,1.52,212.04,80.57,149.17
48,1715532639020,0.35,-0.19,1.52,212.04,80.57,149.17
49,1715532639030,0.35,-0.19,1.52,212.04,80.57,149.17
50,1715532639040,0.35,-0.19,1.52,212.04000000000002,80.57,149.17
51,1715532639050,0.39249999999999996,-0.2675,1.32,210.35999999999999,109.6525,141.1275
52,1715532639060,0.52,-0.5,0.72,205.32,196.9,117.0
53,1715532639070,0.45,-0.5549999999999999,0.62,205.32,196.9,117.0
54,1715532639080,0.38,-0.61,0.52,186.77,155.7,125.06
55,1715532639090,0.38,-0.61,0.52,186.77,155.7,125.06
56,1715532639100,0.38,-0.61,0.52,186.77,155.7,125.06
57,1715532639110,0.295,-0.585,0.48,192.905,108.91499999999999,121.765
58,1715532639120,0.21,-0.56,0.44,199.04,62.13,118.47
59,1715532639130,0.21,-0.56,0.44,199.04,62.13,118.47
60,1715532639140,0.21,-0.56,0.44,199.04,62.13,118.46999999999998
61,1715532639150,0.13999999999999999,-0.42250000000000004,0.525,210.9875,53.737500000000004,112.58
62,1715532639160,-0.07,-0.01,0.78,246.83,28.56,94.91
63,1715532639170,-0.07,-0.01,0.78,246.83,28.559999999999995,94.91
64,1715532639180,-0.07,-0.01,0.7799999999999999,246.83,28.56,94.91000000000001
65,1715532639190,0.28,-0.86,1.18,174.455,-35.295,19.2425
66,1715532639200,0.28,-0.86,1.18,150.33,-56.58,-5.98
67,1715532639210,0.28,-0.86,1.18,150.33,-56.58,-5.98
68,1715532639220,0.28,-0.86,1.18,150.33,-56.58,-5.98
69,1715532639230,0.17500000000000002,-0.77,0.885,65.245,-14.77,17.975
70,1715532639240,0.07,-0.68,0.59,-19.84,27.04,41.93
71,1715532639250,0.07,-0.68,0.59,-19.84,27.04,41.93
72,1715532639260,0.07,-0.68,0.59,-19.84,27.040000000000003,41.93
73,1715532639270,0.48,-0.65,0.11,-256.96,-71.35,-22.03
74,1715532639280,0.48,-0.65,0.11,-256.96,-71.35,-22.03
75,1715532639290,0.48,-0.65,0.11,-256.96,-71.35,-22.03
76,1715532639300,0.48,-0.65,0.11,-256.96,-71.35,-22.03
77,1715532639310,0.48,-0.65,0.11,-256.96,-71.35,-22.03
78,1715532639320,0.48,-0.65,0.11,-256.96,-71.35,-22.03
79,1715532639330,0.48,-0.65,0.11000000000000001,-256.96,-71.35,-22.03
80,1715532639340,0.48,-0.65,0.11,-256.96,-71.35,-22.03
81,1715532639350,0.48,-0.65,0.11,-256.96,-71.35,-22.03
82,1715532639360,0.48,-0.65,0.11,-256.96,-71.35,-22.03
83,1715532639370,0.48,-0.65,0.11,-256.96,-71.35,-22.03
84,1715532639380,0.48,-0.65,0.11,-256.96,-71.35,-22.03
85,1715532639390,0.585,-0.7775,1.28,-339.9475,-34.0,-109.42000000000002
86,1715532639400,0.62,-0.82,1.67,-367.61,-21.55,-138.55
87,1715532639410,0.62,-0.82,1.67,-367.61,-21.55,-138.55
88,1715532639420,0.5525,-0.475,0.965,-293.485,-69.52,-162.2
89,1715532639430,0.53,-0.36000000000000004,0.73,-219.36,-117.49,-185.85
90,1715532639440,0.53,-0.36,0.73,-219.36,-117.49,-185.85
91,1715532639450,0.53,-0.36,0.73,-219.36,-117.49,-185.85
92,1715532639460,0.5075000000000001,-0.3225,0.9575,-225.0675,-103.88,-192.7025
93,1715532639470,0.44,-0.21,1.64,-242.19,-63.05,-213.26
94,1715532639480,0.44,-0.21,1.64,-242.18999999999997,-63.04999999999999,-213.26
95,1715532639490,0.44,-0.21,1.64,-242.19,-63.05,-213.26
96,1715532639500,0.44,-0.21,1.64,-242.19,-63.05,-213.26
97,1715532639510,0.44000000000000006,-0.21000000000000002,1.64,-242.19,-63.05,-213.26
98,1715532639520,0.44,-0.21,1.64,-242.19,-63.05,-213.26
99,1715532639530,0.44,-0.21,1.64,-242.18999999999997,-63.04999999999999,-213.26
100,1715532639540,0.44,-0.21,1.64,-242.19,-63.05,-213.26
101,1715532639550,0.44,-0.21,1.64,-242.19,-63.05,-213.26
102,1715532639560,0.44,-0.21,1.64,-242.19,-63.05,-213.26
103,1715532639570,0.44,-0.21,1.64,-242.19,-63.05,-213.26
104,1715532639580,-0.55,-0.5475,2.4799999999999995,-63.66,145.05249999999998,-75.515
105,1715532639590,-0.88,-0.66,2.76,-4.15,214.42,-29.6
106,1715532639600,-0.88,-0.66,2.76,-4.15,214.42,-29.6
107,1715532639610,-0.8200000000000001,-0.6100000000000001,2.73,-4.15,214.42,-29.6
108,1715532639620,-0.76,-0.56,2.7,-4.15,214.42,-29.6
109,1715532639630,-0.76,-0.56,2.7,72.2075,147.22,-25.5725
110,1715532639640,-0.76,-0.56,2.7,97.66,124.82,-24.23
111,1715532639650,-0.76,-0.56,2.7,97.66,124.82,-24.23
112,1715532639660,-0.34,-0.9333333333333335,2.62,107.46666666666665,200.58,66.87666666666667
113,1715532639670,-0.13,-1.12,2.58,112.37,238.45999999999998,112.43000000000002
114,1715532639680,-0.13,-1.12,2.58,112.37,238.46,112.43
115,1715532639690,0.020000000000000004,-1.0,2.12,157.135,191.985,135.95499999999998
116,1715532639700,0.17,-0.88,1.66,201.9,145.51,159.48
117,1715532639710,0.17,-0.8800000000000001,1.6599999999999997,201.9,145.51,159.48
118,1715532639720,0.49000000000000005,-1.0,1.7733333333333334,195.14666666666668,193.3166666666667,179.78666666666666
119,1715532639730,0.65,-1.06,1.83,191.77,217.22,189.93999999999997
120,1715532639740,0.65,-1.06,1.83,191.77,217.21999999999997,189.94
121,1715532639750,0.65,-1.06,1.83,191.77,217.22,189.93999999999997
122,1715532639760,0.74,-1.04,0.52,228.7,255.62,281.68
123,1715532639770,0.7399999999999999,-1.04,0.52,228.69999999999996,255.62,281.68
124,1715532639780,0.74,-1.04,0.52,228.7,255.62,281.68
125,1715532639790,0.775,-0.99,0.47250000000000003,228.7,255.62,281.68
126,1715532639800,0.88,-0.84,0.33,293.76,131.65,263.31
127,1715532639810,0.88,-0.84,0.33,293.76,131.65,263.31
128,1715532639820,0.88,-0.84,0.33,293.76,131.65,263.31
129,1715532639830,0.88,-0.84,0.33,293.76,131.65,263.31
130,1715532639840,0.88,-0.84,0.33,293.76,131.65,263.31
131,1715532639850,0.88,-0.84,0.33,293.76,131.65,263.31
132,1715532639860,0.88,-0.84,0.33,293.76,131.65,263.31
133,1715532639870,0.88,-0.84,0.33,293.76,131.65,263.31
134,1715532639880,0.88,-0.84,0.33,293.76,131.65,263.31
135,1715532639890,0.88,-0.84,0.33,293.76,131.65,263.31
136,1715532639900,0.88,-0.84,0.33,293.76,131.65,263.31
137,1715532639910,0.88,-0.84,0.33,293.76,131.65,263.31
138,1715532639920,0.26,-0.54,0.59,172.54666666666665,69.27666666666667,168.58333333333334
139,1715532639930,-0.05,-0.39,0.72,111.94,38.09,121.22
140,1715532639940,-0.05,-0.39,0.72,111.94,38.09,121.22
141,1715532639950,0.0625,-0.0975,0.5775,48.5875,-18.0325,49.1225
142,1715532639960,0.1,0.0,0.53,27.47,-36.74,25.09
143,1715532639970,0.1,0.0,0.53,27.47,-36.74,25.09
144,1715532639980,0.1,0.0,0.53,27.47,-36.74,25.09
145,1715532639990,0.24,-0.22,0.14,-99.575,14.315000000000001,13.825
146,1715532640000,0.24,-0.22,0.14,-226.62,65.37,2.56
147,1715532640010,0.24,-0.22,0.14,-226.62,65.37,2.56
148,1715532640020,0.24,-0.22,0.14,-226.62,65.37,2.56
149,1715532640030,0.24,-0.22,0.14,-226.62,65.37,2.56
150,1715532640040,0.24,-0.22,0.14,-226.62,65.37,2.56
151,1715532640050,0.24,-0.22,0.14,-226.62,65.37,2.56
152,1715532640060,0.24,-0.22,0.14,-226.62,65.37,2.56
153,1715532640070,0.24,-0.22,0.14,-226.62,65.37,2.56
154,1715532640080,0.24,-0.22,0.14,-226.62,65.37,2.56
155,1715532640090,0.24,-0.22,0.14,-226.62,65.37,2.56
156,1715532640100,0.44,-0.26749999999999996,0.20750000000000002,-246.9,25.117500000000003,-31.2975
157,1715532640110,1.04,-0.41,0.41,-307.74,-95.64,-132.87
158,1715532640120,1.04,-0.41,0.41,-307.74,-95.64,-132.87
159,1715532640130,1.04,-0.41,0.41,-307.74,-95.64,-132.87
160,1715532640140,1.0150000000000001,-0.44999999999999996,0.5075000000000001,-289.6875,-115.415,-154.675
161,1715532640150,0.94,-0.57,0.8,-235.53,-174.74,-220.09
162,1715532640160,0.94,-0.57,0.8,-235.53,-174.74,-220.09
163,1715532640170,0.94,-0.57,0.8,-235.53,-174.74,-220.09
164,1715532640180,0.8,-0.565,1.135,-228.97,-196.715,-244.14
165,1715532640190,0.66,-0.56,1.47,-222.41,-218.69,-268.19
166,1715532640200,0.66,-0.56,1.47,-222.41,-218.69,-268.19
167,1715532640210,0.66,-0.56,1.47,-222.41,-218.69,-268.19
168,1715532640220,0.29250000000000004,-0.845,2.775,-239.165,-222.35,-273.71500000000003
169,1715532640230,0.17,-0.94,3.21,-255.92,-226.01,-279.24
170,1715532640240,0.17,-0.94,3.2099999999999995,-255.92,-226.01,-279.24
171,1715532640250,0.17,-0.94,3.21,-255.92,-226.01,-279.24
172,1715532640260,-0.30999999999999994,-1.2175,3.9750000000000005,-177.875,-81.2675,-213.4575
173,1715532640270,-0.47,-1.31,4.23,-151.86,-33.02,-191.53
174,1715532640280,-0.47,-1.31,4.23,-151.86,-33.02,-191.53
175,1715532640290,-0.47,-1.31,4.23,-151.86,-33.02,-191.53
176,1715532640300,-0.7775,-0.62,3.5925000000000002,-14.250000000000004,-10.040000000000001,-125.6575
177,1715532640310,-0.88,-0.39,3.38,31.62,-2.38,-103.7
178,1715532640320,-0.88,-0.39,3.38,31.62,-2.38,-103.7
179,1715532640330,-0.88,-0.38999999999999996,3.3800000000000003,31.62,-2.38,-103.7
180,1715532640340,-0.595,-0.7725,3.6275,31.62,-2.38,-103.7
181,1715532640350,-0.5,-0.9,3.71,31.62,-2.38,-103.7
182,1715532640360,-0.5,-0.9,3.71,31.62,-2.38,-103.7
183,1715532640370,-0.5,-0.9,3.71,31.62,-2.38,-103.7
184,1715532640380,-0.5,-0.9,3.71,31.62,-2.38,-103.7
185,1715532640390,-0.5,-0.9,3.7099999999999995,31.62,-2.38,-103.7
186,1715532640400,-0.5,-0.9,3.71,31.62,-2.38,-103.7
187,1715532640410,-0.5,-0.9,3.71,31.62,-2.38,-103.7
188,1715532640420,-0.5,-0.9,3.71,31.62,-2.38,-103.7
189,1715532640430,-0.5,-0.9,3.71,31.62,-2.38,-103.7
190,1715532640440,0.54,-0.79,1.71,198.24,220.7,171.45
191,1715532640450,0.6033333333333334,-0.8700000000000001,1.3466666666666667,201.82000000000002,237.08,192.1
192,1715532640460,0.73,-1.03,0.62,208.98,269.84,233.4
193,1715532640470,0.73,-1.03,0.62,208.98,269.84,233.4
194,1715532640480,0.73,-1.03,0.62,208.98,269.84,233.4
195,1715532640490,0.865,-1.095,0.48,251.76999999999998,238.21999999999997,251.46499999999997
196,1715532640500,1.0,-1.16,0.34,294.56,206.6,269.53
197,1715532640510,1.0,-1.16,0.34,294.56,206.6,269.53
198,1715532640520,1.0,-1.16,0.34,294.56,206.6,269.53
199,1715532640530,0.96,-0.875,0.15000000000000002,301.91499999999996,221.405,251.95
200,1715532640540,0.92,-0.59,-0.04,309.27,236.21,234.37
201,1715532640550,0.92,-0.59,-0.04,309.27,236.21,234.37
202,1715532640560,0.92,-0.59,-0.04,309.27,236.21,234.37
203,1715532640570,0.92,-0.59,-0.04,309.27,236.21,234.37
204,1715532640580,0.92,-0.59,-0.04,309.27,236.21,234.37
205,1715532640590,0.92,-0.59,-0.04,309.27,236.21,234.37
206,1715532640600,0.92,-0.59,-0.04,309.27,236.21,234.37
207,1715532640610,0.92,-0.59,-0.04,309.27,236.21,234.37
208,1715532640620,0.92,-0.59,-0.04,309.27,236.21,234.37
209,1715532640630,0.065,0.06250000000000003,0.2,8.197499999999998,259.325,77.8675
210,1715532640640,-0.22,0.28,0.28,-92.16,267.03,25.7
211,1715532640650,-0.4225,-0.5825,0.9324999999999999,-49.2675,99.89999999999999,9.86
212,1715532640660,-0.49,-0.87,1.15,-34.97,44.19,4.58
213,1715532640670,-0.49,-0.87,1.15,-34.97,44.19,4.58
214,1715532640680,-0.49,-0.87,1.15,-34.97,44.19,4.58
215,1715532640690,0.03,-0.1,0.48,-220.46,22.4,5.98
216,1715532640700,0.03,-0.1,0.48,-220.46,22.4,5.98
217,1715532640710,0.03,-0.1,0.48,-220.46,22.4,5.98
218,1715532640720,0.0625,-0.36,0.5875,-225.98250000000002,-16.907500000000006,-24.37
219,1715532640730,0.16,-1.14,0.91,-242.55,-134.83,-115.42
220,1715532640740,0.16,-1.14,0.91,-242.55000000000004,-134.83,-115.42
221,1715532640750,0.16,-1.14,0.91,-242.55,-134.83,-115.42
222,1715532640760,0.385,-1.0174999999999998,0.9625,-219.54000000000002,-167.1175,-106.66
223,1715532640770,1.06,-0.65,1.12,-150.51,-263.98,-80.38
224,1715532640780,1.06,-0.65,1.12,-150.51,-263.98,-80.38
225,1715532640790,1.06,-0.65,1.12,-150.51,-263.98,-80.38
226,1715532640800,0.9950000000000001,-0.585,1.165,-205.595,-188.69,-103.695
227,1715532640810,0.93,-0.52,1.21,-260.68,-113.4,-127.01
228,1715532640820,0.93,-0.52,1.21,-260.68,-113.4,-127.01
229,1715532640830,0.93,-0.52,1.21,-260.68,-113.4,-127.01
230,1715532640840,0.5833333333333334,-0.45999999999999996,0.85,-170.30666666666667,-163.61333333333334,-133.19666666666666
231,1715532640850,0.41,-0.43,0.67,-125.12,-188.72,-136.29
232,1715532640860,0.41,-0.43,0.67,-125.12,-188.72,-136.29
233,1715532640870,0.41,-0.43,0.67,-125.12,-188.72,-136.29
234,1715532640880,0.41,-0.43,0.67,-125.12,-188.72,-136.29
235,1715532640890,0.41,-0.43,0.67,-125.12,-188.72,-136.29
236,1715532640900,0.41,-0.43,0.67,-125.12,-188.72,-136.29
237,1715532640910,0.41,-0.43,0.67,-125.12,-188.72,-136.29
238,1715532640920,0.41,-0.43,0.67,-125.12,-188.72,-136.29
239,1715532640930,0.41,-0.43,0.67,-125.12,-188.72,-136.29
240,1715532640940,0.41,-0.43,0.67,-125.12,-188.72,-136.29
241,1715532640950,0.41,-0.43,0.67,-125.12,-188.72,-136.29
242,1715532640960,0.19999999999999998,-0.315,1.54,-149.93,-133.97,-180.6
243,1715532640970,-0.01,-0.20000000000000004,2.41,-174.74,-79.22,-224.91
244,1715532640980,-0.01,-0.2,2.41,-174.74,-79.22,-224.91
245,1715532640990,-0.455,-0.965,3.205,-170.195,-52.67,-218.8075
246,1715532641000,-0.9,-1.7299999999999998,4.0,-156.56,26.98,-200.5
247,1715532641010,-0.9,-1.73,4.0,-156.56,26.98,-200.5
248,1715532641020,-0.9,-1.7299999999999998,4.0,-156.56,26.98,-200.5
249,1715532641030,-0.9366666666666666,-1.2233333333333334,3.51,-72.81666666666666,17.783333333333335,-146.48333333333332
250,1715532641040,-1.01,-0.21,2.53,94.67,-0.61,-38.45
251,1715532641050,-1.01,-0.21,2.53,94.67,-0.61,-38.45
252,1715532641060,-1.01,-0.21,2.53,94.67,-0.61,-38.45
253,1715532641070,-1.01,-0.21,2.53,94.67,-0.61,-38.45
254,1715532641080,-1.01,-0.21,2.53,94.67,-0.61,-38.45
255,1715532641090,-1.01,-0.21000000000000002,2.53,94.67,-0.61,-38.45
256,1715532641100,-1.01,-0.21,2.53,94.67,-0.61,-38.45
257,1715532641110,-1.01,-0.21000000000000002,2.53,94.67,-0.61,-38.45
258,1715532641120,-1.01,-0.21,2.53,94.67,-0.61,-38.45
259,1715532641130,-1.01,-0.21,2.53,94.67,-0.61,-38.45
260,1715532641140,-1.01,-0.21,2.53,94.67,-0.61,-38.45
261,1715532641150,-0.6875,-0.2575,2.3,120.7625,21.27,5.892499999999995
262,1715532641160,0.28,-0.4,1.61,199.04,86.91,138.92
263,1715532641170,0.28,-0.4,1.61,199.04,86.91,138.92
264,1715532641180,0.28,-0.4000000000000001,1.61,199.04,86.91000000000001,138.92
265,1715532641190,0.42000000000000004,-0.6000000000000001,1.29,211.185,149.475,166.325
266,1715532641200,0.56,-0.8,0.97,223.33,212.04,193.73
267,1715532641210,0.56,-0.8,0.97,223.33,212.04,193.73
268,1715532641220,0.56,-0.8,0.97,223.33,212.04,193.73
269,1715532641230,0.8,-0.74,0.32,287.17,150.57,243.23
270,1715532641240,0.8000000000000002,-0.7399999999999999,0.32,287.17,150.57,243.23
271,1715532641250,0.8,-0.74,0.32,287.17,150.57,243.23
272,1715532641260,0.775,-0.59,0.33999999999999997,287.17,150.57,243.23
273,1715532641270,0.75,-0.44,0.36000000000000004,304.63,93.51,200.92999999999998
274,1715532641280,0.75,-0.44,0.36,304.63,93.51,200.93
275,1715532641290,0.75,-0.44,0.36,304.63,93.51,200.93
276,1715532641300,0.75,-0.44,0.36,304.63,93.51,200.93
277,1715532641310,0.35,-0.1,0.67,249.15,80.51,157.78
278,1715532641320,0.35,-0.1,0.67,249.15,80.51,157.78
279,1715532641330,0.35,-0.1,0.67,249.15,80.51,157.78
280,1715532641340,0.1175,0.2375,0.41500000000000004,183.0,69.6575,133.01500000000001
281,1715532641350,0.04,0.35,0.33,160.95,66.04,124.76
282,1715532641360,0.04,0.3499999999999999,0.33,160.95,66.04,124.76
283,1715532641370,0.04,0.35,0.33,160.95,66.04,124.76
284,1715532641380,0.25,-0.21,0.94,43.717499999999994,-1.1599999999999975,45.9275
285,1715532641390,0.25,-0.21,0.94,4.64,-23.56,19.65
286,1715532641400,0.25,-0.21,0.94,4.64,-23.56,19.65
287,1715532641410,0.25,-0.21,0.94,4.64,-23.56,19.65
288,1715532641420,0.25,-0.21,0.94,4.64,-23.56,19.65
289,1715532641430,0.25,-0.21,0.94,4.64,-23.56,19.65
290,1715532641440,0.25,-0.21,0.94,4.64,-23.56,19.65
291,1715532641450,0.25,-0.21,0.94,4.64,-23.56,19.65
292,1715532641460,0.25,-0.21,0.94,4.64,-23.56,19.65
293,1715532641470,0.25,-0.21,0.94,4.64,-23.56,19.65
294,1715532641480,0.25,-0.21,0.94,4.64,-23.56,19.65
295,1715532641490,0.6625,-1.1800000000000002,0.8525,-271.15250000000003,-121.04749999999999,-60.41
296,1715532641500,0.72,-1.35,1.08,-279.79,-129.76,-64.88
297,1715532641510,0.72,-1.35,1.08,-279.79,-129.76,-64.88
298,1715532641520,0.72,-1.35,1.08,-279.79,-129.76,-64.88
299,1715532641530,0.83,-0.74,0.98,-265.82500000000005,-112.09,-32.427499999999995
300,1715532641540,0.83,-0.74,0.98,-261.17,-106.2,-21.61
301,1715532641550,0.83,-0.74,0.98,-261.17,-106.2,-21.61
302,1715532641560,0.83,-0.7399999999999999,0.98,-261.17,-106.2,-21.61
303,1715532641570,0.6425,-0.5900000000000001,1.0999999999999999,-244.505,-88.0275,-48.0625
304,1715532641580,0.58,-0.54,1.14,-238.95,-81.97,-56.88
305,1715532641590,0.58,-0.54,1.14,-238.95,-81.97,-56.88
306,1715532641600,0.58,-0.54,1.14,-238.94999999999996,-81.97,-56.88
307,1715532641610,0.58,-0.54,1.14,-238.95,-81.97,-56.88000000000001
308,1715532641620,0.58,-0.54,1.14,-238.94999999999996,-81.97,-56.88
309,1715532641630,0.58,-0.54,1.14,-238.95,-81.97,-56.88000000000001
310,1715532641640,0.58,-0.54,1.14,-238.95,-81.97,-56.88
311,1715532641650,0.58,-0.54,1.14,-238.95,-81.97,-56.88
312,1715532641660,0.58,-0.54,1.14,-238.95,-81.97,-56.88
313,1715532641670,0.58,-0.54,1.14,-238.95,-81.97,-56.88
314,1715532641680,0.5,0.06,1.18,-129.7,-126.46,-119.81
315,1715532641690,0.43,0.04,2.6,-233.28,-44.13,-141.6
316,1715532641700,0.43,0.04,2.6,-233.28,-44.13,-141.6
317,1715532641710,0.43,0.04,2.6,-233.28,-44.13,-141.6
318,1715532641720,0.29,-0.15499999999999997,3.02,-169.465,-55.269999999999996,-145.63
319,1715532641730,0.15,-0.35,3.44,-105.65,-66.41,-149.66
320,1715532641740,0.15,-0.35,3.44,-105.65,-66.41,-149.66
321,1715532641750,0.15,-0.3499999999999999,3.44,-105.65000000000002,-66.41,-149.66
322,1715532641760,-0.036000000000000004,-0.16999999999999998,3.2,-64.196,2.5840000000000005,-106.7
323,1715532641770,-0.16,-0.05000000000000001,3.0400000000000005,-36.56,48.580000000000005,-78.06
324,1715532641780,-0.16,-0.05,3.04,-36.56,48.58,-78.06
325,1715532641790,-0.16,-0.05,3.04,-36.56,48.58,-78.06
326,1715532641800,-0.10500000000000001,-0.11499999999999999,2.825,-36.56,48.58,-78.06
327,1715532641810,-0.05,-0.18,2.61,62.44,67.69,5.31
328,1715532641820,-0.05,-0.18,2.61,62.44,67.69,5.31
329,1715532641830,-0.05,-0.18,2.61,62.44,67.69,5.31
330,1715532641840,0.175,-0.1575,2.2725,83.285,92.255,33.14
331,1715532641850,0.25,-0.15,2.16,104.13,116.82,60.97
332,1715532641860,0.25,-0.15,2.16,104.13,116.82,60.97
333,1715532641870,0.25,-0.15,2.16,104.13,116.82,60.97
334,1715532641880,0.33,-0.25,1.26,104.13,116.82,60.97
335,1715532641890,0.33,-0.25,1.26,161.99,110.10999999999999,113.59
336,1715532641900,0.33,-0.25,1.26,161.99,110.11,113.59
337,1715532641910,0.33,-0.25,1.26,161.99,110.11,113.59
338,1715532641920,0.33,-0.25,1.26,161.99,110.11,113.58999999999999
339,1715532641930,0.33,-0.25,1.26,161.99,110.11,113.59
340,1715532641940,0.33,-0.25,1.26,161.99,110.11,113.59
341,1715532641950,0.33,-0.25,1.26,161.99,110.11,113.59
342,1715532641960,0.33,-0.25,1.26,161.99,110.11,113.59
343,1715532641970,0.33,-0.25,1.26,161.99,110.11,113.59
344,1715532641980,0.33,-0.25,1.26,161.99,110.11,113.59
345,1715532641990,0.33,-0.25,1.26,161.99,110.11,113.59
346,1715532642000,0.33,-0.25,1.26,161.99,110.11,113.59
347,1715532642010,0.3825,-0.2425,0.3675,265.9925,80.125,93.9025
348,1715532642020,0.4,-0.24,0.07,300.66,70.13,87.34
349,1715532642030,0.35500000000000004,-0.015,0.295,269.9925,61.205,72.145
350,1715532642040,0.34,0.06,0.37,259.77,58.23,67.08
351,1715532642050,0.34,0.06,0.37,259.77,58.23,67.08
352,1715532642060,0.34,0.06,0.37,259.77,58.23,67.08
353,1715532642070,0.21250000000000002,0.375,0.79,188.8575,58.5975,45.5625
354,1715532642080,0.17,0.48,0.93,165.22,58.72,38.39
355,1715532642090,0.17,0.48,0.93,165.22,58.720000000000006,38.39
356,1715532642100,0.17,0.48,0.93,165.22,58.72,38.39
357,1715532642110,0.19000000000000003,0.12,1.03,96.5,16.05,-29.72
358,1715532642120,0.19,0.12,1.03,96.5,16.05,-29.72
359,1715532642130,0.19,0.12,1.03,96.5,16.05,-29.72
360,1715532642140,0.19,0.12,1.03,96.5,16.05,-29.72
361,1715532642150,0.19,0.12,1.03,96.5,16.05,-29.72
362,1715532642160,0.19,0.12,1.03,96.5,16.05,-29.72
363,1715532642170,0.19,0.12,1.03,96.5,16.05,-29.72
364,1715532642180,0.19,0.12,1.03,96.5,16.05,-29.72
365,1715532642190,0.19,0.12,1.03,96.5,16.05,-29.72
366,1715532642200,0.26,-0.17,0.865,-53.405,15.625,-9.155
367,1715532642210,0.33,-0.46,0.7,-203.31,15.2,11.41
368,1715532642220,0.5233333333333333,-0.7066666666666667,0.82,-196.51666666666665,-68.05333333333334,-2.383333333333333
369,1715532642230,0.62,-0.83,0.88,-193.12,-109.68,-9.28
370,1715532642240,0.62,-0.83,0.88,-193.12,-109.68,-9.28
371,1715532642250,0.62,-0.83,0.88,-193.12,-109.68,-9.28
372,1715532642260,0.7625000000000001,-0.62,0.8875,-254.23000000000002,-55.4775,16.7225
373,1715532642270,0.81,-0.55,0.89,-274.6,-37.41,25.39
374,1715532642280,0.81,-0.55,0.89,-274.6,-37.41,25.39
375,1715532642290,0.81,-0.55,0.89,-274.6,-37.41,25.39
376,1715532642300,0.64,-0.49,0.69,-232.97,-57.98,-46.26
377,1715532642310,0.64,-0.49,0.69,-232.97,-57.98,-46.26
378,1715532642320,0.64,-0.49,0.69,-232.97,-57.98,-46.26
379,1715532642330,0.64,-0.49,0.69,-232.97,-57.98,-46.26
380,1715532642340,0.56,-0.25,0.58,-191.96,-78.37,-23.74
381,1715532642350,0.56,-0.25,0.58,-191.96,-78.37,-23.74
382,1715532642360,0.56,-0.25,0.58,-191.96,-78.37,-23.74
383,1715532642370,0.56,-0.25,0.58,-191.96,-78.37,-23.74
384,1715532642380,0.57,-0.04,0.63,-173.89,-86.3,-75.26
385,1715532642390,0.57,-0.04,0.63,-173.89,-86.3,-75.26
386,1715532642400,0.57,-0.04,0.63,-173.89,-86.3,-75.26
387,1715532642410,0.59,-0.08,0.81,-180.36,-91.91499999999999,-89.08500000000001
388,1715532642420,0.61,-0.12,0.99,-186.83,-97.53,-102.91
389,1715532642430,0.61,-0.12,0.99,-186.83,-97.53,-102.91
390,1715532642440,0.61,-0.12,0.99,-186.83,-97.53,-102.91
391,1715532642450,0.61,-0.12,0.99,-186.83,-97.53,-102.91
392,1715532642460,0.61,-0.12,0.99,-186.83,-97.53,-102.91
393,1715532642470,0.61,-0.12,0.99,-186.83,-97.53,-102.91
394,1715532642480,0.61,-0.12,0.9899999999999999,-186.83,-97.53000000000002,-102.91000000000001
395,1715532642490,0.61,-0.12,0.99,-186.83,-97.53,-102.91
396,1715532642500,0.61,-0.12,0.99,-186.83,-97.53,-102.91
397,1715532642510,0.61,-0.12,0.99,-186.83,-97.53,-102.91
398,1715532642520,0.61,-0.12,0.99,-186.83,-97.53,-102.91
399,1715532642530,0.58,-0.33,1.9000000000000001,-193.26,-111.02,-127.28333333333335
400,1715532642540,0.03,-0.18,2.75,-96.5,72.69,-111.21
401,1715532642550,0.03,-0.18000000000000002,2.75,-96.5,72.69,-111.21
402,1715532642560,0.03,-0.18,2.75,-96.5,72.69,-111.21
403,1715532642570,-0.09,-0.27,2.61,-25.15,74.34,-51.76
404,1715532642580,-0.09,-0.27,2.61,-25.15,74.34,-51.76
405,1715532642590,-0.09000000000000001,-0.27,2.61,-25.149999999999995,74.34,-51.76
406,1715532642600,-0.06599999999999999,-0.268,2.5119999999999996,-14.723999999999998,80.896,-33.16799999999999
407,1715532642610,0.03,-0.26,2.12,26.98,107.12,41.2
408,1715532642620,0.03,-0.26,2.12,26.98,107.12,41.2
409,1715532642630,0.03,-0.26,2.12,26.98,107.12,41.2
410,1715532642640,0.03,-0.26,2.12,26.98,107.12,41.2
411,1715532642650,0.03,-0.26,2.12,26.98,107.12,41.2
412,1715532642660,0.03,-0.26,2.12,26.98,107.12,41.2
413,1715532642670,0.03,-0.26,2.12,26.98,107.12,41.2
414,1715532642680,0.03,-0.26,2.12,26.98,107.12,41.2
415,1715532642690,0.03,-0.26,2.12,26.98,107.12,41.2
416,1715532642700,0.03,-0.26,2.12,26.98,107.12,41.2
417,1715532642710,0.03,-0.26,2.12,26.98,107.12,41.2
418,1715532642720,0.03,-0.26,2.12,26.98,107.12,41.2
419,1715532642730,0.4,-0.35,0.3,256.96,125.79,142.82
420,1715532642740,0.4,-0.35,0.3,256.96,125.79,142.82
421,1715532642750,0.4,-0.35,0.3,256.96,125.79,142.82
422,1715532642760,0.4,-0.35,0.3,256.96,125.79,142.82
423,1715532642770,0.56,-0.27,0.09,285.64,115.17,141.85
424,1715532642780,0.56,-0.27,0.09,285.64,115.17,141.85
425,1715532642790,0.56,-0.27,0.09,285.64,115.17,141.85
426,1715532642800,0.5075000000000001,-0.007500000000000003,-0.0225,264.095,111.205,132.48
427,1715532642810,0.49,0.08,-0.06,242.55,107.24,123.11
428,1715532642820,0.49,0.08,-0.06,242.55,107.24,123.11
429,1715532642830,0.49,0.08,-0.06,242.55,107.24,123.11
430,1715532642840,0.36,0.57,0.66,219.7075,89.0975,112.25999999999999
431,1715532642850,0.36,0.57,0.66,151.18,34.67,79.71
432,1715532642860,0.36,0.57,0.66,151.18,34.67,79.71
433,1715532642870,0.36000000000000004,0.57,0.66,151.18,34.67,79.71
434,1715532642880,0.65,-0.18,2.16,62.32,-56.7,-35.83
435,1715532642890,0.65,-0.18,2.16,62.32,-56.7,-35.83
436,1715532642900,0.65,-0.18,2.16,62.32,-56.7,-35.83
437,1715532642910,0.54,-0.53,2.09,23.439999999999998,-13.747500000000002,-39.995
438,1715532642920,0.43,-0.88,2.02,-93.2,115.11,-52.49
439,1715532642930,0.43,-0.88,2.02,-93.2,115.11,-52.49
440,1715532642940,0.43,-0.88,2.02,-93.2,115.11,-52.49
441,1715532642950,0.44333333333333336,-0.8733333333333334,1.5733333333333335,-104.14666666666666,89.59666666666668,-43.70333333333334
442,1715532642960,0.45,-0.87,1.35,-109.62,76.84,-39.31
443,1715532642970,0.45,-0.87,1.35,-109.62,76.84,-39.31
444,1715532642980,0.45,-0.87,1.3500000000000003,-109.62,76.84,-39.31
445,1715532642990,0.45,-0.8699999999999999,1.35,-109.62,76.84,-39.31
446,1715532643000,0.45,-0.87,1.3500000000000003,-109.62,76.84,-39.31
447,1715532643010,0.45,-0.8699999999999999,1.35,-109.62,76.84,-39.31
448,1715532643020,0.45,-0.87,1.35,-109.62,76.84,-39.31
449,1715532643030,0.45,-0.87,1.35,-109.62,76.84,-39.31
450,1715532643040,0.45,-0.87,1.3500000000000003,-109.62,76.84,-39.31
451,1715532643050,0.45,-0.87,1.35,-109.62,76.84,-39.31
452,1715532643060,0.44,-0.42,0.52,-169.49,-78.43,-92.47
453,1715532643070,0.38,-0.26,0.46,-183.9125,-81.13,-108.8125
454,1715532643080,0.38000000000000006,-0.26,0.46,-188.72,-82.03,-114.26
455,1715532643090,0.38,-0.26,0.46,-188.72,-82.03,-114.26
456,1715532643100,0.388,-0.23399999999999999,0.406,-188.72,-82.03,-114.26000000000002
457,1715532643110,0.42,-0.13,0.19000000000000003,-166.54666666666665,-97.77666666666669,-128.90666666666667
458,1715532643120,0.42,-0.13,0.19,-155.46,-105.65,-136.23
459,1715532643130,0.42,-0.13,0.19,-155.46,-105.65,-136.23
460,1715532643140,0.42,-0.13,0.19,-155.46,-105.65,-136.23
461,1715532643150,0.57,0.0,0.36999999999999994,-118.09999999999998,-127.32,-217.96
462,1715532643160,0.57,0.0,0.37,-118.1,-127.32,-217.96
463,1715532643170,0.57,0.0,0.37,-118.1,-127.32,-217.96
464,1715532643180,0.57,0.0,0.36999999999999994,-118.09999999999998,-127.32,-217.96
465,1715532643190,0.57,0.0,0.37,-118.1,-127.32,-217.96
466,1715532643200,0.57,0.0,0.37,-118.1,-127.31999999999998,-217.95999999999998
467,1715532643210,0.57,0.0,0.36999999999999994,-118.09999999999998,-127.32,-217.96
468,1715532643220,0.57,0.0,0.37,-118.1,-127.32,-217.96
469,1715532643230,0.57,0.0,0.37,-118.1,-127.32,-217.96
470,1715532643240,0.57,0.0,0.37,-118.1,-127.32,-217.96
471,1715532643250,0.8833333333333333,-0.8066666666666666,3.723333333333334,-178.08,-151.48666666666665,-298.44
472,1715532643260,0.53,-0.885,4.165,-165.805,-8.024999999999991,-290.955
473,1715532643270,0.02,-0.56,2.93,-123.54,147.52,-243.22999999999996
474,1715532643280,0.02,-0.56,2.93,-123.54,147.52,-243.23
475,1715532643290,0.02,-0.56,2.93,-123.54,147.52,-243.23
476,1715532643300,-0.15333333333333332,-0.12000000000000001,2.3633333333333333,-123.54,147.52,-243.23
477,1715532643310,-0.24,0.1,2.08,-97.17,109.77000000000001,-207.92000000000002
478,1715532643320,-0.24,0.1,2.08,-70.8,72.02,-172.61
479,1715532643330,-0.24,0.1,2.08,-70.8,72.02,-172.61
480,1715532643340,-0.16999999999999998,0.2,2.23,-60.545,92.345,-140.20000000000002
481,1715532643350,-0.1,0.3,2.38,-50.29,112.67,-107.79
482,1715532643360,-0.1,0.3,2.38,-50.29,112.67,-107.79
483,1715532643370,-0.1,0.3,2.38,-50.29,112.67,-107.79
484,1715532643380,0.18000000000000002,0.42,2.17,-16.763333333333332,179.48333333333335,-76.86333333333333
485,1715532643390,0.18,0.42,2.17,0.0,212.89,-61.4
486,1715532643400,0.18,0.42,2.17,0.0,212.89,-61.4
487,1715532643410,0.22999999999999998,0.3433333333333333,1.8666666666666665,0.0,212.89,-61.4
488,1715532643420,0.33,0.19,1.26,49.345,210.845,-20.415
489,1715532643430,0.33,0.19,1.26,98.69,208.8,20.57
490,1715532643440,0.33,0.19,1.26,98.69,208.8,20.57
491,1715532643450,0.53,0.15,0.99,134.64,193.13,26.6725
492,1715532643460,0.73,0.11,0.7200000000000001,242.49,146.12,44.98
493,1715532643470,0.73,0.11,0.72,242.49,146.12,44.98
494,1715532643480,0.73,0.11,0.72,242.49,146.12,44.98
495,1715532643490,0.7525,-0.1075,0.6900000000000001,242.175,143.23250000000002,37.885000000000005
496,1715532643500,0.76,-0.18,0.68,242.07,142.27,35.52
497,1715532643510,0.76,-0.18,0.68,242.07,142.27,35.52
498,1715532643520,0.76,-0.18,0.68,242.07,142.27,35.52
499,1715532643530,0.76,-0.18,0.68,242.07,142.27,35.52
500,1715532643540,0.76,-0.18,0.68,242.07,142.27,35.52
501,1715532643550,0.76,-0.18,0.68,242.07,142.27,35.52
502,1715532643560,0.76,-0.18,0.68,242.07,142.27,35.52
503,1715532643570,0.76,-0.18,0.68,242.07,142.27,35.52
504,1715532643580,0.6625,-0.125,0.6525000000000001,240.2825,104.03250000000001,28.5775
505,1715532643590,0.37,0.04,0.57,234.92,-10.68,7.75
506,1715532643600,0.4066666666666667,-0.12,0.6266666666666666,234.92,-10.68,7.75
507,1715532643610,0.48,-0.44000000000000006,0.74,135.5,-27.53,5.13
508,1715532643620,0.48,-0.44,0.7399999999999999,135.5,-27.53,5.13
509,1715532643630,0.48,-0.44,0.74,135.5,-27.53,5.13
510,1715532643640,0.47,-0.435,0.58,86.97749999999999,-26.155,7.585
511,1715532643650,0.46,-0.43,0.42,-58.59,-22.03,14.95
512,1715532643660,0.46,-0.43,0.42,-58.59,-22.03,14.95
513,1715532643670,0.46,-0.43,0.42,-58.59,-22.03,14.95
514,1715532643680,0.445,-0.5425,0.435,-151.0,-68.05,-17.795
515,1715532643690,0.44,-0.58,0.44,-243.41,-114.07,-50.54
516,1715532643700,0.44,-0.58,0.44,-243.41,-114.07,-50.54
517,1715532643710,0.44,-0.58,0.44,-243.41,-114.07,-50.54
518,1715532643720,0.44,-0.58,0.44,-243.41,-114.07,-50.54
519,1715532643730,0.44,-0.58,0.44,-243.41,-114.07,-50.54
520,1715532643740,0.44,-0.58,0.44,-243.41,-114.07,-50.54
521,1715532643750,0.44,-0.58,0.44,-243.41,-114.07,-50.54
522,1715532643760,0.44,-0.58,0.44,-243.41,-114.07,-50.54
523,1715532643770,0.505,-1.08,0.705,-281.985,-139.005,-66.44
524,1715532643780,0.57,-1.58,0.9700000000000001,-320.56,-163.94,-82.34
525,1715532643790,0.48749999999999993,-1.48,0.95,-305.1175,-152.2975,-86.0775
526,1715532643800,0.24,-1.18,0.89,-258.79,-117.37,-97.29
527,1715532643810,0.24,-1.18,0.89,-258.79,-117.37,-97.29
528,1715532643820,0.24,-1.18,0.89,-258.79,-117.37,-97.29
529,1715532643830,0.2575,-1.02,0.925,-306.27500000000003,-72.22,-112.1975
530,1715532643840,0.31,-0.54,1.03,-448.73,63.23,-156.92
531,1715532643850,0.31,-0.54,1.03,-448.73,63.23,-156.92
532,1715532643860,0.31,-0.54,1.03,-448.73,63.23,-156.92
533,1715532643870,0.2275,-0.7275,1.1875,-417.26750000000004,29.7975,-216.01749999999998
534,1715532643880,-0.02,-1.29,1.66,-322.88,-70.5,-393.31
535,1715532643890,-0.02,-1.29,1.6599999999999997,-322.88,-70.5,-393.31
536,1715532643900,-0.02,-1.29,1.66,-322.88,-70.5,-393.31
537,1715532643910,-0.12400000000000003,-1.074,2.168,-306.18,-38.176,-347.386
538,1715532643920,-0.28,-0.75,2.93,-281.13,10.31,-278.5
539,1715532643930,-0.28,-0.75,2.93,-281.13,10.31,-278.5
540,1715532643940,-0.28,-0.75,2.93,-281.13,10.31,-278.5
541,1715532643950,-0.3866666666666667,-0.5966666666666667,3.47,-281.13,10.31,-278.5
542,1715532643960,-0.44,-0.52,3.74,-146.18,-25.02,-268.98
543,1715532643970,-0.44,-0.52,3.74,-146.18,-25.02,-268.98
544,1715532643980,-0.44,-0.52,3.74,-146.18,-25.02,-268.98
545,1715532643990,-0.44,-0.135,3.34,-123.84,93.53999999999999,-228.12
546,1715532644000,-0.44,0.25,2.94,-101.5,212.1,-187.26
547,1715532644010,-0.44,0.25,2.94,-101.5,212.1,-187.26
548,1715532644020,-0.44,0.25,2.94,-101.5,212.1,-187.26
549,1715532644030,-0.44,0.25,2.94,-101.5,212.1,-187.26
550,1715532644040,-0.44,0.25,2.94,-101.5,212.1,-187.26
551,1715532644050,-0.44,0.25,2.94,-101.5,212.1,-187.26
552,1715532644060,-0.44,0.25,2.94,-101.5,212.1,-187.26
553,1715532644070,-0.44,0.25,2.94,-101.5,212.1,-187.26
554,1715532644080,-0.44,0.25,2.94,-101.5,212.1,-187.26
555,1715532644090,-0.44,0.25,2.94,-101.5,212.1,-187.26
556,1715532644100,-0.44,0.25,2.94,-101.5,212.1,-187.26
557,1715532644110,0.36000000000000004,-0.22,2.25,95.40000000000002,211.61,62.32
558,1715532644120,0.36,-0.22,2.25,95.4,211.61,62.32
559,1715532644130,0.36,-0.22,2.25,95.4,211.61,62.32
560,1715532644140,0.7,-0.375,1.905,137.54500000000002,181.885,124.60499999999999
561,1715532644150,1.04,-0.53,1.56,179.69,152.16,186.89
562,1715532644160,1.04,-0.53,1.56,179.69,152.16,186.89
563,1715532644170,1.04,-0.53,1.56,179.69,152.16,186.89
564,1715532644180,0.965,-0.62,0.795,227.11249999999998,164.7525,167.52499999999998
565,1715532644190,0.94,-0.65,0.54,242.92,168.95,161.07
566,1715532644200,0.94,-0.65,0.54,242.92,168.95,161.07
567,1715532644210,0.94,-0.65,0.54,242.92,168.95,161.07
568,1715532644220,0.94,-0.65,0.54,242.92,168.95,161.07
569,1715532644230,0.94,-0.65,0.54,242.92,168.95,161.07
570,1715532644240,0.94,-0.65,0.54,242.92,168.95,161.07
571,1715532644250,0.94,-0.65,0.54,242.92,168.95,161.07
572,1715532644260,0.94,-0.65,0.54,242.92,168.95,161.07
573,1715532644270,0.94,-0.65,0.54,242.92,168.95,161.07
574,1715532644280,0.94,-0.65,0.54,242.92,168.95,161.07
575,1715532644290,0.94,-0.65,0.54,242.92,168.95,161.07
576,1715532644300,0.5575,-0.095,0.165,223.83249999999998,41.232499999999995,59.445
577,1715532644310,0.43,0.09,0.04,217.47,-1.34,25.57
578,1715532644320,0.43,0.09,0.04,217.47,-1.34,25.57
579,1715532644330,0.39,0.175,0.11,179.9775,-4.6975,21.755
580,1715532644340,0.3499999999999999,0.26,0.18000000000000002,67.5,-14.770000000000001,10.31
581,1715532644350,0.35,0.26,0.18,67.5,-14.77,10.31
582,1715532644360,0.35,0.26,0.18,67.5,-14.77,10.31
583,1715532644370,0.38,-0.185,0.395,67.5,-14.77,10.31
584,1715532644380,0.41,-0.63,0.61,-71.84,-67.93,-94.67
585,1715532644390,0.41,-0.63,0.61,-71.84,-67.93,-94.67
586,1715532644400,0.41,-0.63,0.61,-71.84,-67.93,-94.67
587,1715532644410,0.29,-0.81,0.37,-144.775,-67.2,-73.885
588,1715532644420,0.25,-0.87,0.29,-217.71,-66.47,-53.1
589,1715532644430,0.25,-0.87,0.29,-217.71,-66.47,-53.1
590,1715532644440,0.25,-0.87,0.29,-217.71,-66.47,-53.1
591,1715532644450,0.6325000000000001,-1.1025,0.5974999999999999,-223.845,-162.84500000000003,-64.97
592,1715532644460,0.76,-1.18,0.7,-229.98,-259.22,-76.84
593,1715532644470,0.7600000000000001,-1.18,0.6999999999999998,-229.98,-259.22,-76.84
594,1715532644480,0.76,-1.18,0.7,-229.98,-259.22,-76.84
595,1715532644490,0.9,-1.07,1.23,-302.49,-196.595,-28.78
596,1715532644500,0.9,-1.07,1.23,-326.66,-175.72,-12.76
597,1715532644510,0.9,-1.07,1.23,-326.66,-175.72,-12.76
598,1715532644520,0.875,-0.9500000000000001,1.16,-326.66,-175.72,-12.76
599,1715532644530,0.8000000000000002,-0.59,0.9499999999999998,-273.74,-144.9,-107.73
600,1715532644540,0.8,-0.59,0.95,-273.74,-144.9,-107.72999999999999
601,1715532644550,0.8000000000000002,-0.59,0.9499999999999998,-273.74,-144.9,-107.73
602,1715532644560,0.8,-0.59,0.95,-273.74,-144.9,-107.72999999999999
603,1715532644570,0.8,-0.59,0.95,-273.74,-144.9,-107.73
604,1715532644580,0.8,-0.59,0.95,-273.74,-144.9,-107.73
605,1715532644590,0.8,-0.59,0.95,-273.74,-144.9,-107.73
606,1715532644600,0.8,-0.59,0.95,-273.74,-144.9,-107.73
607,1715532644610,0.8,-0.59,0.95,-273.74,-144.9,-107.73
608,1715532644620,0.8000000000000002,-0.59,0.9499999999999998,-273.74,-144.9,-107.73
609,1715532644630,0.8425,-0.4825,1.065,-258.08500000000004,-135.575,-117.205
610,1715532644640,0.985,-0.28,1.63,-204.985,-97.56,-169.465
611,1715532644650,1.0,-0.4,1.85,-198.85,-87.52,-193.3
612,1715532644660,1.0,-0.4,1.85,-198.85,-87.52,-193.3
613,1715532644670,1.0,-0.4,1.85,-198.85,-87.52,-193.3
614,1715532644680,0.7999999999999999,-1.1866666666666668,2.8366666666666664,-231.32333333333335,-60.873333333333335,-233.21333333333334
615,1715532644690,0.7,-1.58,3.33,-247.56,-47.55,-253.17
616,1715532644700,0.7,-1.58,3.33,-247.56,-47.55,-253.17
617,1715532644710,0.6999999999999998,-1.58,3.33,-247.56000000000003,-47.54999999999999,-253.17
618,1715532644720,0.06999999999999998,-1.1075,2.82,-122.5875,6.0600000000000005,-145.275
619,1715532644730,-0.14,-0.95,2.65,-80.93,23.93,-109.31
620,1715532644740,-0.14,-0.95,2.65,-80.93,23.93,-109.31
621,1715532644750,-0.14,-0.9499999999999998,2.65,-80.93,23.929999999999996,-109.31
622,1715532644760,-0.14,-0.95,2.65,-80.93,23.93,-109.31
623,1715532644770,-0.14,-0.95,2.65,-80.93,23.93,-109.31
624,1715532644780,-0.14,-0.9499999999999998,2.65,-80.93,23.929999999999996,-109.31
625,1715532644790,-0.14,-0.95,2.65,-80.93,23.93,-109.31
626,1715532644800,-0.14,-0.95,2.65,-80.93,23.93,-109.30999999999999
627,1715532644810,-0.14,-0.95,2.65,-80.93,23.93,-109.31
628,1715532644820,-0.25666666666666665,-0.58,2.9,-89.49666666666667,44.620000000000005,-62.27333333333333
629,1715532644830,-0.294,0.364,3.04,-48.205999999999996,112.78,51.576
630,1715532644840,0.0,0.67,2.5,39.43,152.95,81.24
631,1715532644850,0.0,0.67,2.5,39.43,152.95,81.24
632,1715532644860,0.0,0.67,2.5,39.43,152.95,81.24
633,1715532644870,0.09333333333333334,0.5166666666666667,2.23,39.43,152.95,81.24
634,1715532644880,0.28,0.21,1.69,170.29,148.25,136.66
635,1715532644890,0.28,0.21,1.69,170.29,148.25,136.66
636,1715532644900,0.28,0.21,1.6900000000000002,170.29,148.25,136.66
637,1715532644910,0.675,0.0,1.395,205.92,145.4425,153.49
638,1715532644920,1.07,-0.21,1.1,312.81,137.02,203.98
639,1715532644930,1.07,-0.21,1.1,312.81,137.02,203.98
640,1715532644940,1.07,-0.21,1.1,312.81,137.02,203.98
641,1715532644950,1.065,-0.2875,0.9775,314.15250000000003,147.9625,195.8175
642,1715532644960,1.05,-0.52,0.61,318.18,180.79,171.33
643,1715532644970,1.05,-0.52,0.61,318.18,180.79,171.33
644,1715532644980,1.05,-0.52,0.61,318.18,180.79,171.33
645,1715532644990,0.91,-0.62,1.03,305.85,151.12,133.36
646,1715532645000,0.91,-0.62,1.03,305.85,151.12,133.36
647,1715532645010,0.91,-0.62,1.03,305.85,151.12,133.36
648,1715532645020,0.7666666666666666,-0.5766666666666667,1.1033333333333333,305.85,151.12,133.36
649,1715532645030,0.48,-0.49,1.25,330.63,183.53,95.76
650,1715532645040,0.48,-0.49,1.25,330.63,183.53,95.76
651,1715532645050,0.48,-0.49,1.25,330.63,183.53,95.76
652,1715532645060,0.295,-0.425,1.105,305.01,187.1925,92.3425
653,1715532645070,-0.26,-0.23,0.67,228.15,198.17999999999998,82.09
654,1715532645080,-0.26,-0.23,0.67,228.15,198.18,82.09
655,1715532645090,-0.26,-0.23,0.67,228.15,198.18,82.09
656,1715532645100,-0.26,-0.23,0.67,228.15,198.17999999999998,82.09
657,1715532645110,-0.26,-0.23,0.67,228.15,198.18,82.09
658,1715532645120,-0.26,-0.23,0.67,228.15,198.18,82.09
659,1715532645130,-0.26,-0.23,0.67,228.15,198.17999999999998,82.09
660,1715532645140,-0.26,-0.23,0.67,228.15,198.18,82.09
661,1715532645150,-0.26,-0.23,0.67,228.15,198.18,82.09
662,1715532645160,0.22,-0.12,0.84,-24.84,-50.05,59.69
663,1715532645170,0.22,-0.12,0.84,-24.84,-50.05,59.69
664,1715532645180,0.19000000000000003,-0.5,0.38000000000000006,-209.29,17.94,13.49
665,1715532645190,0.19,-0.5,0.38,-209.29000000000002,17.94,13.49
666,1715532645200,0.19,-0.5,0.38,-209.29,17.94,13.49
667,1715532645210,0.19000000000000003,-0.5,0.38000000000000006,-209.29,17.94,13.49
668,1715532645220,0.5,-0.58,0.45,-207.64,-16.85,13.61
669,1715532645230,0.5,-0.58,0.45,-207.64,-16.85,13.61
670,1715532645240,0.5,-0.58,0.45,-207.64,-16.85,13.61
671,1715532645250,0.5275,-0.5675,0.43,-207.64,-16.85,13.61
672,1715532645260,0.61,-0.53,0.37,-229.98,2.87,-20.69
673,1715532645270,0.61,-0.53,0.37,-229.98,2.87,-20.69
674,1715532645280,0.61,-0.53,0.37,-229.98,2.87,-20.69
675,1715532645290,0.61,-0.53,0.37,-229.98,2.87,-20.69
676,1715532645300,0.61,-0.53,0.37,-229.98,2.87,-20.69
677,1715532645310,0.61,-0.53,0.37,-229.98,2.87,-20.69
678,1715532645320,0.61,-0.53,0.37,-229.98,2.87,-20.69
679,1715532645330,0.61,-0.53,0.36999999999999994,-229.98,2.8699999999999997,-20.69
680,1715532645340,0.61,-0.53,0.37,-229.98,2.87,-20.69
681,1715532645350,0.6475,-0.2225,0.05499999999999999,-168.18,-69.1825,-62.7575
682,1715532645360,0.66,-0.12,-0.05,-147.58,-93.2,-76.78
683,1715532645370,0.9266666666666667,-0.07333333333333333,0.3566666666666667,-220.74,-105.48666666666666,-86.79333333333334
684,1715532645380,1.06,-0.05,0.56,-257.32,-111.63,-91.8
685,1715532645390,1.06,-0.05,0.56,-257.32,-111.63,-91.8
686,1715532645400,1.06,-0.05,0.56,-257.32,-111.63,-91.8
687,1715532645410,1.8775,0.025,1.8875000000000002,-230.635,-271.2525,-281.04
688,1715532645420,2.15,0.05,2.33,-221.74,-324.46,-344.12
689,1715532645430,2.15,0.05000000000000001,2.33,-221.74,-324.46,-344.12000000000006
690,1715532645440,2.15,0.05,2.33,-221.74,-324.46,-344.12
691,1715532645450,1.01,-1.58,4.2,-400.7,31.92,-440.55
692,1715532645460,1.01,-1.58,4.2,-400.7,31.92,-440.55
693,1715532645470,1.01,-1.58,4.2,-400.7,31.92,-440.55
694,1715532645480,1.01,-1.58,4.2,-400.7,31.92,-440.55
695,1715532645490,-0.81,-0.64,3.08,-41.32,-72.81,-170.41
696,1715532645500,-0.81,-0.64,3.08,-41.32,-72.81,-170.41
697,1715532645510,-0.81,-0.64,3.08,-41.32,-72.81,-170.41
698,1715532645520,-0.8666666666666667,-0.58,3.0400000000000005,-49.74333333333334,-45.30666666666667,-123.43333333333334
699,1715532645530,-0.9800000000000001,-0.4600000000000001,2.96,-66.59,9.7,-29.48
700,1715532645540,-0.98,-0.46,2.96,-66.59,9.7,-29.48
701,1715532645550,-0.98,-0.46,2.9599999999999995,-66.59,9.7,-29.48
702,1715532645560,-0.8725,-0.37,2.785,-26.810000000000002,1.0024999999999995,9.5975
703,1715532645570,-0.55,-0.1,2.26,92.53,-25.09,126.83
704,1715532645580,-0.55,-0.1,2.26,92.53,-25.09,126.83
705,1715532645590,-0.55,-0.1,2.26,92.53,-25.09,126.83
706,1715532645600,-0.55,-0.1,2.26,92.53,-25.09,126.83
707,1715532645610,-0.55,-0.1,2.26,92.53,-25.09,126.83
708,1715532645620,-0.55,-0.10000000000000002,2.26,92.53000000000002,-25.09,126.83
709,1715532645630,-0.55,-0.1,2.26,92.53,-25.09,126.83
710,1715532645640,-0.55,-0.1,2.26,92.53,-25.09,126.83
711,1715532645650,-0.55,-0.10000000000000002,2.26,92.53000000000002,-25.09,126.83
712,1715532645660,-0.55,-0.1,2.26,92.53,-25.09,126.83
713,1715532645670,-0.55,-0.1,2.26,92.53,-25.09,126.83
714,1715532645680,-0.19333333333333336,-0.19666666666666668,1.7266666666666666,136.09,71.61,143.16666666666666
715,1715532645690,0.52,-0.39,0.66,223.21,265.01,175.84
716,1715532645700,0.52,-0.39,0.66,223.21,265.01,175.84
717,1715532645710,0.52,-0.39,0.66,223.21,265.01,175.84
718,1715532645720,0.45,-0.43,0.36,246.89,245.73,174.99
719,1715532645730,0.45,-0.43,0.36,246.89,245.73,174.99
720,1715532645740,0.45,-0.43,0.36,246.89,245.73,174.99
721,1715532645750,0.4175,-0.32,0.4975,252.9475,219.9275,161.0875
722,1715532645760,0.32,0.01,0.91,271.12,142.52,119.38
723,1715532645770,0.32,0.01,0.9099999999999999,271.12,142.52,119.38
724,1715532645780,0.32,0.01,0.91,271.12,142.52,119.38
725,1715532645790,0.32,0.01,0.91,271.12,142.52,119.38
726,1715532645800,0.32,0.01,0.91,271.12,142.52,119.38
727,1715532645810,0.32,0.01,0.91,271.12,142.52,119.38
728,1715532645820,0.32,0.01,0.91,271.12,142.52,119.38
729,1715532645830,0.32,0.01,0.91,271.12,142.52,119.38
730,1715532645840,0.32,0.01,0.91,271.12,142.52,119.38
731,1715532645850,0.32,0.01,0.91,271.12,142.52,119.38
732,1715532645860,0.32,0.01,0.91,271.12,142.52,119.38
733,1715532645870,0.24666666666666667,0.043333333333333335,0.9333333333333335,128.60333333333332,111.39,80.34333333333333
734,1715532645880,0.3025,-0.45999999999999996,0.9775,-51.0225,58.105000000000004,8.760000000000002
735,1715532645890,0.25,-0.7,0.67,-109.62,110.11,-26.49
736,1715532645900,0.25,-0.7,0.67,-109.62,110.11,-26.49
737,1715532645910,0.35,-1.14,0.24,-204.59,-65.31,-42.24
738,1715532645920,0.3499999999999999,-1.14,0.24,-204.59,-65.31,-42.24
739,1715532645930,0.35,-1.14,0.24,-204.59,-65.31,-42.24
740,1715532645940,0.35,-1.14,0.24,-204.59,-65.31,-42.24
741,1715532645950,0.66,-1.19,1.08,-219.79,-162.48,-8.79
742,1715532645960,0.66,-1.19,1.08,-219.79,-162.48,-8.79
743,1715532645970,0.66,-1.19,1.08,-219.79,-162.48,-8.79
744,1715532645980,0.665,-0.955,0.9450000000000001,-223.88,-147.17499999999998,-8.209999999999999
745,1715532645990,0.67,-0.72,0.81,-236.15,-101.26,-6.47
746,1715532646000,0.67,-0.72,0.81,-236.15,-101.26,-6.47
747,1715532646010,0.67,-0.72,0.81,-236.15,-101.26,-6.47
748,1715532646020,0.5725,-0.5775,0.6900000000000001,-206.165,-118.5175,-23.6375
749,1715532646030,0.54,-0.53,0.65,-196.17,-124.27,-29.36
750,1715532646040,0.54,-0.53,0.65,-196.17,-124.27,-29.36
751,1715532646050,0.54,-0.53,0.65,-196.17,-124.27,-29.36
752,1715532646060,0.5,-0.34500000000000003,0.625,-185.45499999999998,-106.32499999999999,-32.595
753,1715532646070,0.46,-0.16,0.6,-174.74,-88.38,-35.83
754,1715532646080,0.46,-0.16,0.6,-174.74,-88.38,-35.83
755,1715532646090,0.46,-0.16,0.6,-174.74,-88.38,-35.83
756,1715532646100,0.31,-0.35,0.79,-192.99,-131.59,-63.84
757,1715532646110,0.31,-0.35,0.79,-192.99,-131.59,-63.84
758,1715532646120,0.31,-0.35,0.79,-192.99,-131.59,-63.84
759,1715532646130,0.31,-0.3499999999999999,0.79,-192.99,-131.59,-63.84
760,1715532646140,0.31,-0.3499999999999999,0.79,-192.99,-131.59,-63.84
761,1715532646150,0.31,-0.35,0.79,-192.99,-131.59,-63.84
762,1715532646160,0.31,-0.35,0.79,-192.99,-131.59,-63.84
763,1715532646170,0.31,-0.35,0.79,-192.99,-131.59,-63.84
764,1715532646180,0.31,-0.3499999999999999,0.79,-192.99,-131.59,-63.84
765,1715532646190,0.31,-0.35,0.79,-192.99,-131.59,-63.84000000000001
766,1715532646200,0.225,-0.475,1.6025,-181.9275,-105.77250000000001,-73.82000000000001
767,1715532646210,-0.18333333333333335,-0.31,3.16,-52.18666666666667,21.606666666666666,-34.14
768,1715532646220,-0.26,-0.04,2.72,-3.91,46.57,0.67
769,1715532646230,-0.26,-0.04,2.72,-3.91,46.57,0.67
770,1715532646240,-0.26,-0.04,2.72,-3.91,46.57,0.67
771,1715532646250,-0.25666666666666665,-0.06333333333333334,2.72,3.2533333333333325,32.10333333333333,2.846666666666667
772,1715532646260,-0.25,-0.11,2.72,17.58,3.17,7.2
773,1715532646270,-0.25,-0.11,2.72,17.58,3.17,7.2
774,1715532646280,-0.25,-0.11,2.72,17.58,3.17,7.2
775,1715532646290,-0.16,-0.29,2.32,98.6925,50.0,80.8575
776,1715532646300,-0.16,-0.29,2.32,125.73,65.61,105.41
777,1715532646310,-0.16,-0.29,2.32,125.73,65.61,105.41
778,1715532646320,-0.16,-0.29,2.32,125.73,65.61,105.41000000000001
779,1715532646330,-0.16,-0.29,2.32,125.73,65.61,105.41
780,1715532646340,-0.16,-0.29,2.32,125.73,65.61,105.41000000000001
781,1715532646350,-0.16,-0.29,2.32,125.73,65.61,105.41
782,1715532646360,-0.16,-0.29,2.32,125.73,65.61,105.41
783,1715532646370,-0.16,-0.29,2.32,125.73,65.61,105.41
784,1715532646380,-0.16,-0.29,2.32,125.73,65.61,105.41000000000001
785,1715532646390,-0.16,-0.29,2.32,125.73,65.61,105.41
786,1715532646400,0.32666666666666666,-0.3466666666666667,0.8633333333333333,243.16333333333333,132.10333333333332,182.17
787,1715532646410,0.38,-0.42,0.55,238.77,157.17,177.25
788,1715532646420,0.38,-0.42,0.55,238.77,157.17,177.25
789,1715532646430,0.38,-0.42,0.55,238.77,157.17,177.25
790,1715532646440,0.28500000000000003,-0.47,0.51,256.56,107.27,173.37
791,1715532646450,0.19,-0.52,0.47,274.35,57.37,169.49
792,1715532646460,0.19,-0.52,0.47,274.35,57.37,169.49
793,1715532646470,0.1975,-0.23500000000000001,0.77,288.36,24.369999999999997,157.4075
794,1715532646480,0.2,-0.14,0.87,293.03,13.37,153.38
795,1715532646490,0.2,-0.14,0.87,293.03,13.37,153.38
796,1715532646500,0.2,-0.14,0.87,293.03,13.37,153.38
797,1715532646510,0.02,0.12,0.87,252.19999999999996,18.49,79.83
798,1715532646520,0.02,0.12,0.87,252.2,18.49,79.83
799,1715532646530,0.02,0.12,0.87,252.2,18.49,79.83
800,1715532646540,0.0825,0.009999999999999995,0.9825,252.2,18.49,79.83
801,1715532646550,0.27,-0.32,1.32,116.64,-58.9,18.92
802,1715532646560,0.27,-0.32,1.32,116.64,-58.9,18.92
803,1715532646570,0.27,-0.32,1.32,116.64,-58.9,18.92
804,1715532646580,0.27,-0.32,1.32,116.64,-58.9,18.92
805,1715532646590,0.27,-0.32,1.32,116.64,-58.9,18.92
806,1715532646600,0.19,-0.64,0.96,18.8,26.61,7.57
807,1715532646610,0.19,-0.64,0.96,18.8,26.61,7.57
808,1715532646620,0.18000000000000002,-0.6900000000000001,0.7366666666666667,-51.73666666666667,25.856666666666666,4.213333333333334
809,1715532646630,0.16,-0.79,0.29,-192.81,24.35,-2.5
810,1715532646640,0.16,-0.79,0.29,-192.81000000000003,24.350000000000005,-2.5
811,1715532646650,0.16,-0.79,0.29,-192.81,24.35,-2.5
812,1715532646660,0.16,-0.79,0.29,-192.81,24.35,-2.5
813,1715532646670,0.16,-0.79,0.29,-192.81,24.35,-2.5
814,1715532646680,0.16,-0.79,0.29,-192.81,24.35,-2.5
815,1715532646690,0.16,-0.79,0.29,-192.81,24.35,-2.5
816,1715532646700,0.16,-0.79,0.29,-192.81,24.35,-2.5
817,1715532646710,0.16,-0.79,0.29,-192.81,24.35,-2.5
818,1715532646720,0.16,-0.79,0.29,-192.81000000000003,24.350000000000005,-2.5
819,1715532646730,0.505,-0.835,0.5675,-241.9275,-54.654999999999994,-3.235
820,1715532646740,0.56,-0.69,0.7999999999999999,-250.85333333333332,-66.14333333333333,-17.64
821,1715532646750,0.53,-0.61,0.87,-247.13,-58.72,-24.72
822,1715532646760,0.53,-0.61,0.87,-247.13,-58.72,-24.72
823,1715532646770,0.53,-0.61,0.87,-247.13,-58.72,-24.72
824,1715532646780,0.47,-0.22,0.44,-232.4433333333333,-50.74,-40.586666666666666
825,1715532646790,0.47,-0.22,0.44,-225.1,-46.75,-48.52
826,1715532646800,0.47,-0.22,0.44,-225.1,-46.75,-48.52
827,1715532646810,0.47,-0.22,0.44,-225.1,-46.75,-48.52
828,1715532646820,0.61,-0.3,0.73,-203.86,-99.3,-82.4
829,1715532646830,0.61,-0.3,0.73,-203.86,-99.3,-82.4
830,1715532646840,0.61,-0.3,0.73,-203.86,-99.3,-82.4
831,1715532646850,0.61,-0.3,0.73,-203.86,-99.3,-82.4
832,1715532646860,0.61,-0.3,0.73,-203.86,-99.3,-82.4
833,1715532646870,0.61,-0.3,0.73,-203.86,-99.3,-82.4
834,1715532646880,0.61,-0.3,0.73,-203.86,-99.3,-82.4
835,1715532646890,0.61,-0.3,0.73,-203.86,-99.3,-82.4
836,1715532646900,0.61,-0.3,0.73,-203.86,-99.3,-82.4
837,1715532646910,0.61,-0.3,0.73,-203.86,-99.3,-82.4
838,1715532646920,0.5425,-0.69,2.44,-280.21000000000004,-76.7775,-142.775
839,1715532646930,0.255,-0.935,3.295,-265.21000000000004,-42.277499999999996,-150.0375
840,1715532646940,-0.01,-1.05,3.58,-143.86,38.7,-111.45
841,1715532646950,-0.01,-1.05,3.58,-143.86,38.7,-111.45
842,1715532646960,-0.01,-1.05,3.58,-143.86,38.7,-111.45
843,1715532646970,-0.20500000000000002,-0.675,3.1950000000000003,-119.34,43.2,-95.6125
844,1715532646980,-0.4000000000000001,-0.3,2.81,-45.78,56.70000000000001,-48.1
845,1715532646990,-0.4,-0.3,2.81,-45.78,56.7,-48.1
846,1715532647000,-0.4,-0.3,2.81,-45.78,56.7,-48.1
847,1715532647010,-0.385,-0.49500000000000005,2.66,-13.080000000000002,49.285000000000004,-30.475
848,1715532647020,-0.38,-0.56,2.61,85.02,27.04,22.4
849,1715532647030,-0.38,-0.56,2.61,85.02,27.04,22.4
850,1715532647040,-0.38,-0.56,2.61,85.02,27.04,22.4
851,1715532647050,-0.05000000000000001,-0.31,1.93,156.37,61.52,100.52
852,1715532647060,-0.05,-0.31,1.93,156.37,61.52,100.52
853,1715532647070,-0.05,-0.31,1.93,156.37,61.52,100.52
854,1715532647080,-0.05,-0.31,1.93,156.37,61.52,100.52
855,1715532647090,0.21,-0.26,1.44,229.25,84.41,145.32
856,1715532647100,0.21,-0.26,1.44,229.25,84.41,145.32
857,1715532647110,0.21,-0.26,1.44,229.25,84.41,145.32
858,1715532647120,0.2575,-0.25,1.3475,236.405,100.1725,147.1375
859,1715532647130,0.4000000000000001,-0.22,1.07,257.87,147.46,152.59
860,1715532647140,0.4,-0.22,1.07,257.87,147.46,152.59
861,1715532647150,0.4,-0.22,1.07,257.87,147.46,152.59
862,1715532647160,0.4000000000000001,-0.22,1.07,257.87,147.46,152.59
863,1715532647170,0.4,-0.22,1.07,257.87,147.46,152.59
864,1715532647180,0.4,-0.22,1.07,257.87,147.46,152.59
865,1715532647190,0.4,-0.22,1.07,257.87,147.46,152.59
866,1715532647200,0.4,-0.22,1.07,257.87,147.46,152.59
867,1715532647210,0.4000000000000001,-0.22,1.07,257.87,147.46,152.59
868,1715532647220,0.4,-0.22,1.07,257.87,147.46,152.59
869,1715532647230,0.4,-0.22,1.07,257.87,147.46,152.59
870,1715532647240,0.4,-0.22,1.07,257.87,147.46,152.59
871,1715532647250,0.4533333333333333,-0.4266666666666667,0.6433333333333334,310.1166666666667,79.22000000000001,135.86333333333334
872,1715532647260,0.48,-0.53,0.43,336.24,45.1,127.5
873,1715532647270,0.48,-0.53,0.43,336.24,45.1,127.5
874,1715532647280,0.45,0.01,0.15,223.21,-43.4,88.38
875,1715532647290,0.45,0.01,0.15,223.21,-43.4,88.38
876,1715532647300,0.45,0.01,0.15,223.21,-43.4,88.38
877,1715532647310,0.405,-0.1875,0.295,167.21,-32.7325,62.19499999999999
878,1715532647320,0.27,-0.7799999999999999,0.73,-0.79,-0.73,-16.36
879,1715532647330,0.27,-0.78,0.73,-0.79,-0.73,-16.36
880,1715532647340,0.27,-0.78,0.73,-0.79,-0.73,-16.36
881,1715532647350,0.22000000000000003,-0.89,0.57,-46.14,-4.255,-2.3825000000000003
882,1715532647360,0.17,-1.0,0.41,-182.18999999999997,-14.83,39.55
883,1715532647370,0.17,-1.0,0.41,-182.19,-14.830000000000002,39.55
884,1715532647380,0.17,-1.0,0.41,-182.18999999999997,-14.83,39.55
885,1715532647390,0.17,-1.0,0.41,-182.19,-14.83,39.55
886,1715532647400,0.17,-1.0,0.41,-182.18999999999997,-14.83,39.55
887,1715532647410,0.17,-1.0,0.41,-182.19,-14.83,39.55
888,1715532647420,0.17,-1.0,0.41,-182.18999999999997,-14.83,39.55
889,1715532647430,0.17,-1.0,0.41,-182.19,-14.83,39.55
890,1715532647440,0.375,-1.085,0.5525,-226.425,-71.365,22.779999999999998
891,1715532647450,0.67,-1.26,0.87,-289.86,-131.84,3.72
892,1715532647460,0.67,-1.26,0.87,-289.86,-131.84,3.72
893,1715532647470,0.8000000000000002,-0.96,1.3,-310.85333333333335,-124.55333333333333,16.62
894,1715532647480,0.8,-0.96,1.3,-321.35,-120.91,23.07
895,1715532647490,0.8000000000000002,-0.96,1.3,-321.35,-120.91000000000001,23.070000000000004
896,1715532647500,0.8,-0.96,1.3,-321.35,-120.91,23.07
897,1715532647510,0.7324999999999999,-0.495,1.45,-237.53,-101.82249999999999,0.4125000000000003
898,1715532647520,0.71,-0.34,1.5,-209.59,-95.46,-7.14
899,1715532647530,0.71,-0.34,1.5,-209.59,-95.46,-7.14
900,1715532647540,0.71,-0.34,1.5,-209.59,-95.46,-7.14
901,1715532647550,0.63,0.2,1.44,-208.01,1.53,-36.68
902,1715532647560,0.63,0.2,1.44,-208.01,1.53,-36.68
903,1715532647570,0.63,0.2,1.44,-208.01,1.53,-36.68
904,1715532647580,0.5725,0.21500000000000002,1.4874999999999998,-191.6825,-5.8875,-49.925
905,1715532647590,0.4000000000000001,0.26,1.63,-142.7,-28.14,-89.66000000000001
906,1715532647600,0.4,0.26,1.63,-142.7,-28.14,-89.66
907,1715532647610,0.4,0.26,1.63,-142.7,-28.14,-89.66
908,1715532647620,0.37,0.225,2.29,-138.245,-29.39,-102.47999999999999
909,1715532647630,0.34,0.19000000000000003,2.9500000000000006,-133.79,-30.64,-115.3
910,1715532647640,0.34,0.19,2.95,-133.79,-30.64,-115.3
911,1715532647650,0.34,0.19,2.95,-133.79,-30.64,-115.3
912,1715532647660,0.43333333333333335,0.1366666666666667,3.0866666666666664,-89.74333333333333,-16.113333333333333,-114.2
913,1715532647670,0.62,0.03,3.36,-1.65,12.94,-112.0
914,1715532647680,0.62,0.03,3.36,-1.65,12.94,-112.0
915,1715532647690,0.62,0.03,3.36,-1.65,12.94,-112.0
916,1715532647700,0.62,0.03,3.36,-1.6499999999999997,12.94,-112.0
917,1715532647710,0.62,0.03,3.36,-1.6499999999999997,12.94,-112.0
918,1715532647720,0.62,0.03,3.36,-1.65,12.94,-112.0
919,1715532647730,0.62,0.03,3.36,-1.65,12.94,-112.0
920,1715532647740,0.62,0.03,3.36,-1.65,12.94,-112.0
921,1715532647750,0.62,0.03,3.36,-1.6499999999999997,12.94,-112.0
922,1715532647760,0.62,0.03,3.36,-1.65,12.94,-112.0
923,1715532647770,0.62,0.03,3.36,-1.65,12.94,-112.0
924,1715532647780,0.6999999999999998,0.05000000000000001,2.03,110.53000000000002,148.99,-0.18000000000000002
925,1715532647790,0.7,0.05,2.03,110.53,148.99,-0.18
926,1715532647800,0.7,0.05,2.03,110.53,148.99,-0.18
927,1715532647810,0.6999999999999998,0.05000000000000001,2.03,110.53000000000002,148.99,-0.18000000000000002
928,1715532647820,0.72,-0.18,1.34,171.87,150.39,37.23
929,1715532647830,0.72,-0.18,1.34,171.87,150.39,37.23
930,1715532647840,0.72,-0.18,1.34,171.87,150.39,37.23
931,1715532647850,0.745,-0.1925,1.1425,196.9875,139.64749999999998,42.54
932,1715532647860,0.82,-0.23,0.55,272.34,107.42,58.47
933,1715532647870,0.82,-0.23,0.55,272.34,107.42,58.47
934,1715532647880,0.82,-0.23,0.55,272.34,107.42,58.47
935,1715532647890,0.82,-0.23,0.55,272.34,107.42,58.47
936,1715532647900,0.82,-0.23,0.55,272.34,107.42,58.47
937,1715532647910,0.82,-0.23,0.55,272.34,107.42,58.47
938,1715532647920,0.82,-0.23,0.55,272.34,107.42,58.47
939,1715532647930,0.82,-0.23,0.55,272.34,107.42,58.47
940,1715532647940,0.82,-0.23,0.55,272.34,107.42,58.47
941,1715532647950,0.82,-0.23,0.55,272.34,107.42,58.47
942,1715532647960,0.82,-0.23,0.55,272.34,107.42,58.47
943,1715532647970,0.41,-0.02,-0.46,112.55,-36.62,-4.46
944,1715532647980,0.41,-0.02,-0.46,112.55,-36.62,-4.46
945,1715532647990,0.41,-0.02,-0.46,112.55,-36.62,-4.46
946,1715532648000,0.41,-0.02,-0.46,112.55,-36.62,-4.46
947,1715532648010,0.59,-0.45,1.22,-22.58,-91.0,-69.82
948,1715532648020,0.59,-0.45,1.22,-22.58,-91.0,-69.82
949,1715532648030,0.59,-0.45,1.22,-22.58,-91.0,-69.82
950,1715532648040,0.565,-0.62,1.425,-43.6375,-70.37,-61.794999999999995
951,1715532648050,0.49,-1.13,2.04,-106.81,-8.48,-37.72
952,1715532648060,0.49,-1.13,2.04,-106.81,-8.48,-37.72
953,1715532648070,0.49,-1.13,2.04,-106.81,-8.48,-37.72
954,1715532648080,0.42,-1.0074999999999998,1.8375,-122.5725,-11.5775,-24.415
955,1715532648090,0.21,-0.64,1.23,-169.86,-20.87,15.5
956,1715532648100,0.21,-0.64,1.23,-169.86,-20.87,15.5
957,1715532648110,0.21,-0.64,1.23,-169.86,-20.87,15.5
958,1715532648120,0.39999999999999997,-0.7333333333333334,1.4933333333333334,-175.13,-69.7,9.376666666666667
959,1715532648130,0.78,-0.92,2.02,-185.67,-167.36,-2.87
960,1715532648140,0.78,-0.92,2.02,-185.67,-167.36,-2.87
961,1715532648150,0.7799999999999999,-0.92,2.02,-185.67,-167.36,-2.8699999999999997
962,1715532648160,0.9225,-0.5225,1.78,-221.925,-122.13000000000001,1.2199999999999998
963,1715532648170,0.9700000000000001,-0.38999999999999996,1.7,-258.18,-76.9,5.31
964,1715532648180,0.97,-0.39,1.7,-258.18,-76.9,5.31
965,1715532648190,0.97,-0.39,1.7,-258.18,-76.9,5.31
966,1715532648200,0.81,-0.17,1.58,-272.42,-70.10666666666667,-36.15
967,1715532648210,0.81,-0.17,1.58,-279.54,-66.71,-56.88
968,1715532648220,0.81,-0.17,1.58,-279.54,-66.71,-56.88
969,1715532648230,0.81,-0.17,1.58,-279.54,-66.71,-56.88
970,1715532648240,0.81,-0.17,1.58,-279.54,-66.71,-56.88
971,1715532648250,0.81,-0.17,1.58,-279.54,-66.71,-56.88
972,1715532648260,0.81,-0.17,1.58,-279.54,-66.71,-56.88
973,1715532648270,0.8100000000000002,-0.17,1.58,-279.54,-66.71,-56.88000000000001
974,1715532648280,0.81,-0.17,1.58,-279.54,-66.71,-56.88
975,1715532648290,0.81,-0.17,1.58,-279.54,-66.71,-56.88
976,1715532648300,0.385,-0.11000000000000001,1.1,-307.89,-18.735,-115.325
977,1715532648310,-0.07250000000000001,-0.030000000000000002,0.7474999999999999,-329.65,36.364999999999995,-185.58
978,1715532648320,-0.17,0.03,1.13,-309.88,57.74,-221.01
979,1715532648330,-0.17,0.03,1.13,-309.88,57.74,-221.01
980,1715532648340,-0.17,0.03,1.13,-309.88,57.74,-221.01
981,1715532648350,-0.135,0.14,1.495,-278.65999999999997,55.3,-230.225
982,1715532648360,-0.1,0.25,1.86,-247.44,52.86,-239.44
983,1715532648370,-0.10000000000000002,0.25,1.86,-247.43999999999997,52.85999999999999,-239.43999999999997
984,1715532648380,-0.1,0.25,1.86,-247.44,52.86,-239.44
985,1715532648390,0.18500000000000003,-0.4475,3.585,-160.065,97.78,-235.715
986,1715532648400,0.28,-0.68,4.16,-72.69,142.7,-231.99
987,1715532648410,0.28,-0.68,4.16,-72.69,142.7,-231.99
988,1715532648420,0.28,-0.68,4.16,-72.69,142.7,-231.99
989,1715532648430,0.28,-0.68,4.16,-72.69,142.7,-231.99
990,1715532648440,0.28,-0.68,4.16,-72.69,142.7,-231.99
991,1715532648450,0.28,-0.68,4.16,-72.69,142.7,-231.99
992,1715532648460,0.28,-0.68,4.16,-72.69,142.7,-231.99
993,1715532648470,0.28,-0.68,4.16,-72.69,142.7,-231.99
994,1715532648480,0.28,-0.68,4.16,-72.69,142.7,-231.99
995,1715532648490,0.2625,-0.6000000000000001,3.6325000000000003,-29.584999999999997,147.935,-202.5275
996,1715532648500,0.21,-0.36,2.05,99.73,163.64,-114.14
997,1715532648510,0.71,-0.05,2.25,122.92,212.4,-64.94
998,1715532648520,0.71,-0.05000000000000001,2.25,122.92,212.4,-64.94
999,1715532648530,0.71,-0.05,2.25,122.92,212.4,-64.94
1000,1715532648540,0.6359999999999999,-0.142,2.054,122.92,212.4,-64.94
1001,1715532648550,0.34,-0.51,1.27,103.88,254.33,-49.8
1002,1715532648560,0.34,-0.51,1.27,103.88,254.33,-49.79999999999999
1003,1715532648570,0.34,-0.51,1.27,103.88,254.33,-49.8
1004,1715532648580,0.34,-0.55,0.9650000000000001,131.5,221.77,4.975000000000001
1005,1715532648590,0.34,-0.59,0.66,159.12,189.21,59.75
1006,1715532648600,0.34,-0.59,0.66,159.12,189.21,59.75
1007,1715532648610,0.34,-0.59,0.66,159.12,189.21,59.75
1008,1715532648620,0.55,-0.905,0.35250000000000004,218.4,145.905,112.07750000000001
1009,1715532648630,0.62,-1.01,0.25,238.16,131.47,129.52
1010,1715532648640,0.62,-1.01,0.25,238.16,131.47,129.52
1011,1715532648650,0.62,-1.01,0.25,238.16,131.47,129.52
1012,1715532648660,0.7666666666666666,-0.5833333333333334,0.016666666666666663,273.9266666666667,58.876666666666665,187.82666666666668
1013,1715532648670,0.84,-0.36999999999999994,-0.10000000000000002,291.81,22.58,216.98
1014,1715532648680,0.84,-0.37,-0.1,291.81,22.58,216.98
1015,1715532648690,0.8400000000000001,-0.37,-0.1,291.81,22.58,216.97999999999996
1016,1715532648700,0.78,0.45,0.06,213.32,18.31,112.73
1017,1715532648710,0.7799999999999999,0.45,0.06,213.32000000000002,18.31,112.73
1018,1715532648720,0.78,0.45,0.06,213.32,18.31,112.73
1019,1715532648730,0.78,0.45,0.06,213.32,18.31,112.73
1020,1715532648740,0.78,0.45,0.06,213.32,18.31,112.73
1021,1715532648750,0.78,0.45,0.06,213.32,18.31,112.73
1022,1715532648760,0.78,0.45,0.06,213.32,18.31,112.73
1023,1715532648770,0.78,0.45,0.06,213.32,18.31,112.73
1024,1715532648780,0.78,0.45,0.06,213.32,18.31,112.73
1025,1715532648790,0.78,0.45,0.06,213.32,18.31,112.73
1026,1715532648800,0.78,0.45,0.06,213.32,18.31,112.73
1027,1715532648810,0.7799999999999999,0.45,0.06,213.32000000000002,18.31,112.73
1028,1715532648820,0.7025,0.435,0.2825,148.76,-1.3900000000000006,76.8425
1029,1715532648830,0.08,0.46,0.44,-168.33,-63.9,-101.07
1030,1715532648840,0.08,0.46,0.44,-168.33,-63.9,-101.07
1031,1715532648850,0.17500000000000002,-0.12999999999999998,0.86,-226.28500000000003,-122.16,-148.04
1032,1715532648860,0.27,-0.72,1.28,-284.24,-180.42,-195.01
1033,1715532648870,0.27,-0.7200000000000001,1.28,-284.24,-180.42,-195.01
1034,1715532648880,0.27,-0.72,1.28,-284.24,-180.42,-195.01
1035,1715532648890,0.007500000000000003,-1.2075,1.205,-279.20500000000004,-193.88,-151.305
1036,1715532648900,-0.08,-1.37,1.18,-274.17,-207.34,-107.6
1037,1715532648910,-0.08,-1.37,1.18,-274.17,-207.34,-107.6
1038,1715532648920,-0.08,-1.37,1.18,-274.17,-207.34,-107.6
1039,1715532648930,0.03333333333333333,-1.03,1.3,-342.69,-141.62,-46.526666666666664
1040,1715532648940,0.09,-0.86,1.36,-376.95,-108.76,-15.99
1041,1715532648950,0.09,-0.86,1.36,-376.95,-108.76,-15.99
1042,1715532648960,0.09000000000000001,-0.86,1.36,-376.95,-108.76,-15.99
1043,1715532648970,0.09,-0.86,1.36,-376.95,-108.76,-15.99
1044,1715532648980,0.09,-0.86,1.36,-376.95,-108.76,-15.99
1045,1715532648990,0.09,-0.86,1.36,-376.95,-108.76,-15.99
1046,1715532649000,0.09,-0.86,1.36,-376.95,-108.76,-15.99
1047,1715532649010,0.09000000000000001,-0.86,1.36,-376.95,-108.76,-15.99
1048,1715532649020,0.2475,-0.1475,1.3225,-274.005,62.4875,-130.245
1049,1715532649030,0.3,0.09,1.31,-239.69,119.57,-168.33
1050,1715532649040,0.325,-0.010000000000000009,1.23,-218.9075,115.9075,-198.985
1051,1715532649050,0.4,-0.31,0.99,-156.56,104.92,-290.95
1052,1715532649060,0.4,-0.31,0.99,-156.56,104.92,-290.95
1053,1715532649070,0.4,-0.31,0.99,-156.56,104.92,-290.95
1054,1715532649080,0.45,-0.4266666666666667,1.2233333333333334,-156.56,104.92,-290.95
1055,1715532649090,0.55,-0.66,1.69,-159.8075,133.3,-292.375
1056,1715532649100,0.55,-0.66,1.6900000000000002,-160.89,142.76,-292.85
1057,1715532649110,0.55,-0.66,1.69,-160.89,142.76,-292.85
1058,1715532649120,0.29000000000000004,-1.065,1.905,-154.39,114.47,-332.675
1059,1715532649130,0.03,-1.47,2.12,-147.89,86.18,-372.5
1060,1715532649140,0.03,-1.47,2.12,-147.89,86.18,-372.5
1061,1715532649150,0.03,-1.47,2.12,-147.89,86.18,-372.5
1062,1715532649160,0.03,-1.47,2.12,-147.89,86.18,-372.5
1063,1715532649170,-0.21,-0.83,2.51,-91.74,165.77,-209.96
1064,1715532649180,-0.21,-0.83,2.51,-91.74,165.77,-209.96
1065,1715532649190,-0.21,-0.83,2.51,-91.74,165.77,-209.96
1066,1715532649200,-0.6,-0.12,1.77,-103.82,139.77,-186.4
1067,1715532649210,-0.6,-0.12,1.7700000000000002,-103.82,139.77,-186.4
1068,1715532649220,-0.6,-0.12,1.77,-103.82,139.77,-186.4
1069,1715532649230,-0.6325,-0.135,1.8925,-103.82,139.77,-186.4
1070,1715532649240,-0.73,-0.18000000000000002,2.26,-26.179999999999996,62.68,-98.63
1071,1715532649250,-0.73,-0.18,2.26,-26.18,62.68,-98.63
1072,1715532649260,-0.73,-0.18,2.26,-26.18,62.68,-98.63
1073,1715532649270,-0.73,-0.18,2.26,-26.18,62.68,-98.63
1074,1715532649280,-0.73,-0.18,2.26,-26.18,62.68,-98.63
1075,1715532649290,-0.73,-0.18,2.26,-26.18,62.68,-98.63
1076,1715532649300,-0.73,-0.18,2.26,-26.18,62.68,-98.63
1077,1715532649310,-0.73,-0.18000000000000002,2.26,-26.179999999999996,62.68,-98.63
1078,1715532649320,-0.73,-0.18,2.26,-26.18,62.68,-98.63
1079,1715532649330,-0.73,-0.18000000000000002,2.26,-26.179999999999996,62.68,-98.63
1080,1715532649340,-0.73,-0.18,2.26,-26.18,62.68,-98.63
1081,1715532649350,-0.4,-0.23,1.335,92.835,50.015,55.605000000000004
1082,1715532649360,-0.07,-0.28,0.41,211.85,37.35,209.84
1083,1715532649370,-0.07,-0.28,0.41,211.85,37.35,209.84
1084,1715532649380,-0.07,-0.28,0.41,211.85,37.35,209.84
1085,1715532649390,0.09,-0.325,0.395,236.60000000000002,46.230000000000004,221.465
1086,1715532649400,0.25,-0.37,0.38,261.35,55.11,233.09
1087,1715532649410,0.25,-0.37,0.38,261.35,55.11,233.09
1088,1715532649420,0.25,-0.36999999999999994,0.38000000000000006,261.35,55.10999999999999,233.09
1089,1715532649430,0.3775,0.2525,0.2975,250.55,82.395,223.94
1090,1715532649440,0.42,0.46,0.27,246.95,91.49,220.89
1091,1715532649450,0.42,0.46,0.27,246.94999999999996,91.49,220.89
1092,1715532649460,0.42,0.46,0.27,246.95,91.49,220.89
1093,1715532649470,0.42,0.46,0.27,246.95,91.49,220.89
1094,1715532649480,0.42,0.46,0.27,246.95,91.49,220.89
1095,1715532649490,0.42,0.46,0.27,246.94999999999996,91.49,220.89
1096,1715532649500,0.42,0.46,0.27,246.95,91.49,220.89
1097,1715532649510,0.42,0.46,0.27,246.95,91.49,220.89
1098,1715532649520,0.42,0.46,0.27,246.95,91.49,220.89
1099,1715532649530,0.42,0.46,0.27,246.95,91.49,220.89
1100,1715532649540,0.21,0.42333333333333334,1.3366666666666667,206.66666666666666,-3.073333333333333,124.67333333333333
1101,1715532649550,0.1,-0.11,1.78,196.29,-77.27,73.85
1102,1715532649560,0.1,-0.11,1.78,196.29,-77.27,73.85
1103,1715532649570,0.1,-0.11,1.78,196.29,-77.27,73.85
1104,1715532649580,0.1466666666666667,-0.19666666666666666,1.1066666666666667,68.44333333333333,-62.01,72.91666666666667
1105,1715532649590,0.17,-0.24,0.77,4.52,-54.38,72.45
1106,1715532649600,0.17,-0.24,0.77,4.52,-54.38,72.45
1107,1715532649610,0.17,-0.24,0.77,4.52,-54.38,72.45
1108,1715532649620,0.32,-0.26,0.7250000000000001,-41.775,-91.98,58.230000000000004
1109,1715532649630,0.47,-0.28,0.68,-88.07,-129.58,44.01
1110,1715532649640,0.47,-0.28,0.68,-88.07,-129.58,44.01
1111,1715532649650,0.47,-0.28,0.68,-88.07,-129.58,44.01
1112,1715532649660,0.53,-0.34,0.69,-110.66,-66.53,0.43
1113,1715532649670,0.53,-0.34,0.69,-110.66,-66.53,0.43
1114,1715532649680,0.53,-0.34,0.69,-110.66000000000001,-66.53,0.43
1115,1715532649690,0.53,-0.34,0.69,-110.66,-66.53,0.43
1116,1715532649700,0.41,-0.45,0.22,-119.14,15.26,-42.24
1117,1715532649710,0.41,-0.45,0.22,-119.14,15.26,-42.24
1118,1715532649720,0.41,-0.45,0.22,-119.14,15.26,-42.24
1119,1715532649730,0.41,-0.45,0.22,-119.14,15.26,-42.24
1120,1715532649740,0.39,-0.3,-0.27,-136.54,62.38,-65.73
1121,1715532649750,0.39,-0.3,-0.27,-136.54,62.38,-65.73
1122,1715532649760,0.39,-0.3,-0.27,-136.54,62.38,-65.73
1123,1715532649770,0.4166666666666667,-0.3033333333333333,-0.33,-152.1833333333333,40.733333333333334,-94.15333333333335
1124,1715532649780,0.47,-0.31,-0.45,-183.47,-2.56,-151.0
1125,1715532649790,0.47,-0.31,-0.45,-183.47,-2.56,-151.0
1126,1715532649800,0.47,-0.31,-0.45,-183.47,-2.56,-151.0
1127,1715532649810,0.47,-0.31,-0.45,-183.47,-2.56,-151.0
1128,1715532649820,0.47,-0.31,-0.45,-183.47,-2.56,-151.0
1129,1715532649830,0.47,-0.31,-0.45,-183.47,-2.56,-151.0
1130,1715532649840,0.47,-0.31,-0.45,-183.47,-2.56,-151.0
1131,1715532649850,0.47,-0.31,-0.45,-183.47,-2.56,-151.0
1132,1715532649860,0.47,-0.31,-0.45,-183.47,-2.56,-151.0
1133,1715532649870,0.5775,-0.425,-0.07,-201.095,-35.1225,-179.7175
1134,1715532649880,0.9,-0.77,1.07,-253.97,-132.81,-265.87
1135,1715532649890,0.88,-1.58,3.56,-261.17,-153.81,-233.15
1136,1715532649900,0.88,-1.58,3.56,-261.17,-153.81,-233.15
1137,1715532649910,0.88,-1.58,3.56,-261.17,-153.81,-233.15
1138,1715532649920,0.88,-1.58,3.56,-261.17,-153.81,-233.15
1139,1715532649930,0.36999999999999994,-0.51,3.7099999999999995,-245.91,-54.56333333333333,-207.96333333333334
1140,1715532649940,0.37,-0.51,3.71,-238.28,-4.94,-195.37
1141,1715532649950,0.36999999999999994,-0.51,3.7099999999999995,-238.28,-4.94,-195.37
1142,1715532649960,0.37,-0.51,3.71,-238.28,-4.94,-195.37
1143,1715532649970,-0.12,-0.27,3.19,-206.025,-5.215,-177.945
1144,1715532649980,-0.12,-0.27,3.19,-173.77,-5.489999999999999,-160.52
1145,1715532649990,-0.12,-0.27,3.19,-173.77,-5.49,-160.52
1146,1715532650000,-0.12,-0.27,3.19,-173.77,-5.49,-160.52
1147,1715532650010,-0.12,-0.27,3.19,-173.77,-5.489999999999999,-160.52
1148,1715532650020,-0.12,-0.27,3.19,-173.77,-5.49,-160.52
1149,1715532650030,-0.12,-0.27,3.19,-173.77,-5.49,-160.52
1150,1715532650040,-0.12,-0.27,3.19,-173.77,-5.49,-160.52
1151,1715532650050,-0.12,-0.27,3.19,-173.77,-5.49,-160.52
1152,1715532650060,-0.12,-0.27,3.19,-173.77,-5.489999999999999,-160.52
1153,1715532650070,-0.58,0.44,1.38,-36.74,34.61,-63.96
1154,1715532650080,-0.515,0.635,1.14,-6.329999999999998,33.769999999999996,-47.1
1155,1715532650090,-0.45,0.83,0.9,84.9,31.25,3.48
1156,1715532650100,-0.45,0.83,0.9,84.9,31.25,3.48
1157,1715532650110,-0.45,0.83,0.9,84.9,31.25,3.48
1158,1715532650120,-0.69,0.5075000000000001,0.6,76.245,134.4275,28.7025
1159,1715532650130,-0.77,0.4000000000000001,0.5,73.36,168.82,37.11
1160,1715532650140,-0.77,0.4,0.5,73.36,168.82,37.11
1161,1715532650150,-0.77,0.4,0.5,73.36,168.82,37.11
1162,1715532650160,-0.59,0.3,0.8,182.35750000000002,132.34,142.6275
1163,1715532650170,-0.59,0.3,0.8,218.69,120.18,177.8
1164,1715532650180,-0.59,0.3,0.8000000000000002,218.68999999999997,120.18,177.80000000000004
1165,1715532650190,-0.5549999999999999,0.2475,0.8275,218.69,120.18,177.8
1166,1715532650200,-0.45,0.09000000000000001,0.91,188.01,200.78666666666666,202.98666666666668
1167,1715532650210,-0.45,0.09,0.91,172.67,241.09,215.58
1168,1715532650220,-0.45,0.09,0.91,172.67,241.09,215.58
1169,1715532650230,-0.41500000000000004,0.0050000000000000044,1.46,172.67,241.09,215.58
1170,1715532650240,-0.31,-0.25,3.11,258.73,77.15,273.01
1171,1715532650250,-0.31,-0.25,3.11,258.73,77.15,273.01
1172,1715532650260,-0.31,-0.25,3.11,258.73,77.15,273.01
1173,1715532650270,0.08499999999999999,-0.36,3.4749999999999996,297.5475,70.5725,262.375
1174,1715532650280,0.48,-0.47,3.84,414.0,50.84,230.47
1175,1715532650290,0.48,-0.47,3.84,414.0,50.84,230.47
1176,1715532650300,0.48,-0.47,3.84,414.0,50.84,230.47
1177,1715532650310,0.48,-0.47,3.84,414.0,50.84,230.47
1178,1715532650320,0.48,-0.47,3.84,414.0,50.84,230.47
1179,1715532650330,0.48,-0.47,3.84,414.0,50.84,230.47
1180,1715532650340,0.48,-0.47,3.84,414.0,50.84,230.47
1181,1715532650350,0.48,-0.47,3.84,414.0,50.84,230.47
1182,1715532650360,0.48,-0.47,3.84,414.0,50.84,230.47
1183,1715532650370,0.48,-0.47,3.84,414.0,50.84,230.47
1184,1715532650380,0.48,-0.47,3.84,414.0,50.84,230.47
1185,1715532650390,0.48,-0.47,3.84,414.0,50.84,230.47
1186,1715532650400,0.5325,-0.5375000000000001,1.275,196.425,21.1325,81.6475
1187,1715532650410,0.55,-0.56,0.42,123.9,11.23,32.04
1188,1715532650420,0.55,-0.6666666666666666,0.15,92.57000000000001,17.576666666666668,27.566666666666666
1189,1715532650430,0.55,-0.88,-0.38999999999999996,29.91,30.27,18.62
1190,1715532650440,0.55,-0.88,-0.39,29.91,30.27,18.62
1191,1715532650450,0.55,-0.88,-0.38999999999999996,29.91,30.27,18.62
1192,1715532650460,0.49250000000000005,-0.8725,-0.535,3.710000000000001,37.595,10.332500000000001
1193,1715532650470,0.32,-0.85,-0.9700000000000001,-74.89,59.57,-14.53
1194,1715532650480,0.32,-0.85,-0.97,-74.89,59.57000000000001,-14.529999999999998
1195,1715532650490,0.32,-0.85,-0.9700000000000001,-74.89,59.57,-14.53
1196,1715532650500,0.295,-0.8825,-0.9675,-101.15,37.8275,-24.752499999999998
1197,1715532650510,0.22,-0.98,-0.96,-179.93,-27.4,-55.42
1198,1715532650520,0.22,-0.98,-0.96,-179.92999999999998,-27.399999999999995,-55.419999999999995
1199,1715532650530,0.22,-0.98,-0.96,-179.93,-27.4,-55.42
1200,1715532650540,0.22,-0.98,-0.96,-179.93,-27.4,-55.42
1201,1715532650550,0.22,-0.98,-0.96,-179.93,-27.4,-55.42
1202,1715532650560,0.22,-0.98,-0.96,-179.92999999999998,-27.399999999999995,-55.419999999999995
1203,1715532650570,0.22,-0.98,-0.96,-179.93,-27.4,-55.42
1204,1715532650580,0.22,-0.98,-0.96,-179.93,-27.4,-55.42
1205,1715532650590,0.5425,-0.905,0.2925,-261.77750000000003,-81.055,-91.72
1206,1715532650600,0.65,-0.88,0.71,-289.06,-98.94,-103.82
1207,1715532650610,0.65,-0.88,0.71,-289.06,-98.94,-103.82
1208,1715532650620,1.47,-0.73,2.8,-320.74,-184.725,-104.69
1209,1715532650630,1.47,-0.73,2.8,-331.3,-213.32,-104.98
1210,1715532650640,1.47,-0.73,2.8,-331.3,-213.32,-104.98
1211,1715532650650,1.47,-0.73,2.7999999999999994,-331.3,-213.32000000000002,-104.98
1212,1715532650660,1.12,-0.69,3.69,-355.47,-100.28,-142.15
1213,1715532650670,1.12,-0.69,3.69,-355.47,-100.28,-142.15
1214,1715532650680,1.12,-0.69,3.69,-355.47,-100.28,-142.15
1215,1715532650690,1.0625,-0.5125,3.77,-337.74,-122.435,-132.935
1216,1715532650700,0.89,0.02,4.01,-284.55,-188.9,-105.29
1217,1715532650710,0.89,0.02,4.01,-284.55,-188.9,-105.29
1218,1715532650720,0.89,0.02,4.01,-284.55,-188.9,-105.29
1219,1715532650730,0.7575000000000001,0.075,3.8925,-261.035,-158.6875,-102.6175
1220,1715532650740,0.36,0.24,3.54,-190.49,-68.05,-94.6
1221,1715532650750,0.36,0.24,3.54,-190.49,-68.05,-94.6
1222,1715532650760,0.36,0.24,3.54,-190.49,-68.05,-94.6
1223,1715532650770,0.08666666666666666,0.2333333333333333,2.94,-190.49,-68.05,-94.59999999999998
1224,1715532650780,-0.46,0.22,1.74,-146.42,18.8,-99.98
1225,1715532650790,-0.46,0.22,1.74,-146.42,18.8,-99.98
1226,1715532650800,-0.46,0.22,1.74,-146.42,18.8,-99.98
1227,1715532650810,-0.49,0.43,1.11,-80.04499999999999,5.005000000000001,-72.51
1228,1715532650820,-0.5,0.5,0.9,-13.67,-8.79,-45.04
1229,1715532650830,-0.5,0.5,0.9,-13.67,-8.79,-45.04
1230,1715532650840,-0.5,0.5,0.9,-13.67,-8.79,-45.04
1231,1715532650850,-0.5,0.5,0.9,-13.67,-8.79,-45.04
1232,1715532650860,-0.5,0.5,0.9,-13.67,-8.79,-45.04
1233,1715532650870,-0.5,0.5,0.9,-13.67,-8.79,-45.04
1234,1715532650880,-0.5,0.5,0.9,-13.67,-8.79,-45.04
1235,1715532650890,-0.5,0.5,0.9,-13.67,-8.79,-45.04
1236,1715532650900,-0.5,0.5,0.9,-13.67,-8.79,-45.04
1237,1715532650910,-0.5,0.5,0.9,-13.67,-8.79,-45.04
1238,1715532650920,-0.5033333333333333,0.6166666666666667,0.7766666666666667,17.62,-7.733333333333333,-20.81
1239,1715532650930,-0.61,0.92,0.57,97.7325,3.8424999999999994,25.2075
1240,1715532650940,-0.61,0.92,0.57,150.33,32.23,17.88
1241,1715532650950,-0.61,0.92,0.57,150.33,32.23,17.88
1242,1715532650960,-0.565,0.8275,0.7899999999999999,151.82500000000002,59.2375,18.2925
1243,1715532650970,-0.43,0.55,1.45,156.31,140.26,19.53
1244,1715532650980,-0.43,0.55,1.45,156.31,140.26,19.53
1245,1715532650990,-0.43,0.55,1.45,156.31,140.26,19.53
1246,1715532651000,-0.245,0.56,2.52,171.845,188.17000000000002,31.25
1247,1715532651010,-0.06,0.57,3.59,187.38,236.08,42.97
1248,1715532651020,-0.06,0.57,3.59,187.38,236.08,42.97
1249,1715532651030,-0.06,0.57,3.59,187.38,236.08,42.97
1250,1715532651040,-0.06,0.57,3.59,187.38,236.08,42.97
1251,1715532651050,-0.06,0.57,3.59,187.38,236.08,42.97
1252,1715532651060,-0.06,0.57,3.59,187.38,236.08,42.97
1253,1715532651070,-0.06,0.57,3.59,187.38,236.08,42.97
1254,1715532651080,-0.06,0.57,3.59,187.38,236.08,42.97
1255,1715532651090,-0.06,0.57,3.59,187.38,236.08,42.97
1256,1715532651100,-0.06,0.57,3.59,187.38,236.08,42.97
1257,1715532651110,0.1825,0.43999999999999995,3.4325,243.76,201.215,74.005
1258,1715532651120,0.83,-0.88,2.13,345.1933333333333,113.46666666666665,139.34
1259,1715532651130,0.83,-0.88,2.13,209.78,147.16,83.8
1260,1715532651140,0.83,-0.88,2.13,209.78,147.16,83.8
1261,1715532651150,0.83,-0.88,2.13,209.78,147.16,83.8
1262,1715532651160,0.83,-0.68,0.32,197.36666666666667,82.78666666666668,127.62666666666667
1263,1715532651170,0.83,-0.68,0.32,191.16,50.6,149.54
1264,1715532651180,0.83,-0.68,0.32,191.16,50.6,149.54
1265,1715532651190,0.83,-0.68,0.32,191.16,50.6,149.54
1266,1715532651200,0.91,-0.58,-0.21,116.575,36.895,106.29499999999999
1267,1715532651210,0.91,-0.58,-0.21,41.99,23.19,63.05
1268,1715532651220,0.91,-0.58,-0.21,41.99,23.19,63.05
1269,1715532651230,0.72,-0.78,-0.275,41.99,23.19,63.05
1270,1715532651240,0.53,-0.98,-0.34,13.590000000000002,48.870000000000005,29.156666666666666
1271,1715532651250,0.53,-0.98,-0.34,-0.61,61.71,12.21
1272,1715532651260,0.53,-0.98,-0.34,-0.61,61.71,12.21
1273,1715532651270,0.475,-0.855,-0.78,-39.675,27.225,2.2900000000000005
1274,1715532651280,0.42,-0.73,-1.22,-78.74,-7.260000000000001,-7.63
1275,1715532651290,0.42,-0.73,-1.22,-78.74,-7.26,-7.63
1276,1715532651300,0.42,-0.73,-1.22,-78.74,-7.26,-7.63
1277,1715532651310,0.5266666666666666,-0.63,-0.7333333333333334,-165.20666666666668,-60.160000000000004,-60.88999999999999
1278,1715532651320,0.58,-0.58,-0.49,-208.44,-86.61,-87.52
1279,1715532651330,0.58,-0.58,-0.49,-208.43999999999997,-86.61,-87.52
1280,1715532651340,0.58,-0.58,-0.49,-208.44,-86.61,-87.52
1281,1715532651350,0.73,-0.63,0.41,-309.39,-70.98,-150.33
1282,1715532651360,0.73,-0.63,0.41,-309.39,-70.98,-150.33
1283,1715532651370,0.73,-0.63,0.41,-309.39,-70.98,-150.33
1284,1715532651380,0.73,-0.63,0.41,-309.39,-70.98,-150.33
1285,1715532651390,0.73,-0.63,0.41,-309.39,-70.98,-150.33
1286,1715532651400,0.73,-0.63,0.41,-309.39,-70.98,-150.33
1287,1715532651410,0.73,-0.63,0.41,-309.39,-70.98,-150.33
1288,1715532651420,0.73,-0.63,0.41,-309.39,-70.98,-150.33
1289,1715532651430,0.73,-0.63,0.41,-309.39,-70.98,-150.33
1290,1715532651440,0.73,-0.63,0.41,-309.39,-70.98,-150.33
1291,1715532651450,0.4,-1.08,4.23,-492.31,90.33,-272.4
1292,1715532651460,0.18333333333333335,-0.8666666666666667,4.253333333333334,-492.31,90.33,-272.4
1293,1715532651470,-0.25,-0.44,4.3,-260.2225,-58.349999999999994,-181.6275
1294,1715532651480,-0.25,-0.44,4.3,-182.86,-107.91000000000001,-151.37
1295,1715532651490,-0.25,-0.44,4.3,-182.86,-107.91,-151.37
1296,1715532651500,-0.19,-0.22,3.9475,-182.86,-107.91,-151.37
1297,1715532651510,-0.01,0.44,2.89,-186.29500000000002,-25.1475,-147.89
1298,1715532651520,-0.01,0.44,2.89,-187.43999999999997,2.44,-146.73
1299,1715532651530,-0.01,0.44,2.89,-187.44,2.44,-146.73
1300,1715532651540,-0.3775,0.4325,1.8175,-187.44,2.44,-146.73
1301,1715532651550,-0.5,0.43,1.46,-91.86,17.64,-187.5
1302,1715532651560,-0.5,0.43,1.46,-91.86,17.64,-187.5
1303,1715532651570,-0.5,0.43,1.46,-91.86,17.64,-187.5
1304,1715532651580,-0.5,0.43,1.46,-91.86,17.64,-187.5
1305,1715532651590,-0.5,0.43,1.46,-91.86,17.64,-187.5
1306,1715532651600,-0.5,0.43,1.46,-91.86,17.64,-187.5
1307,1715532651610,-0.5,0.43,1.46,-91.86,17.64,-187.5
1308,1715532651620,-0.5,0.43,1.46,-91.86,17.64,-187.5
1309,1715532651630,-0.5,0.43,1.46,-91.86,17.64,-187.5
1310,1715532651640,-0.5733333333333334,0.49,0.8466666666666667,-28.993333333333336,9.38,-131.22666666666666
1311,1715532651650,-0.61,0.52,0.54,2.44,5.25,-103.08999999999999
1312,1715532651660,-0.83,0.29,0.09,52.37,28.38,-40.16
1313,1715532651670,-0.83,0.29,0.09000000000000001,52.37,28.38,-40.16
1314,1715532651680,-0.83,0.29,0.09,52.37,28.38,-40.16
1315,1715532651690,-0.83,0.29,0.09000000000000001,52.37,28.38,-40.16
1316,1715532651700,-0.66,0.45,0.44,98.14,79.41,15.99
1317,1715532651710,-0.66,0.45,0.44,98.14,79.41,15.99
1318,1715532651720,-0.66,0.45,0.44,98.14,79.41,15.99
1319,1715532651730,-0.65,0.4025,0.42,101.2225,98.4975,29.4325
1320,1715532651740,-0.62,0.26,0.36000000000000004,110.46999999999998,155.76,69.76
1321,1715532651750,-0.62,0.26,0.36,110.47,155.76,69.76
1322,1715532651760,-0.62,0.26,0.36,110.47,155.76,69.76
1323,1715532651770,-0.495,0.5,1.315,115.32249999999999,139.3575,72.8725
1324,1715532651780,-0.37,0.74,2.27,129.88,90.15,82.21
1325,1715532651790,-0.36999999999999994,0.7399999999999999,2.27,129.88,90.15000000000002,82.21
1326,1715532651800,-0.37,0.74,2.27,129.88,90.15,82.21
1327,1715532651810,0.0050000000000000044,0.335,4.1,129.88,90.15,82.21
1328,1715532651820,0.13,0.2,4.71,316.77,107.06,140.69
1329,1715532651830,0.13,0.20000000000000004,4.71,316.77,107.06,140.69
1330,1715532651840,0.13,0.2,4.71,316.77,107.06,140.69
1331,1715532651850,0.65,-0.06,3.3800000000000003,331.0733333333333,81.48333333333333,131.08666666666667
1332,1715532651860,0.65,-0.06,3.38,359.68,30.33,111.88
1333,1715532651870,0.65,-0.06,3.38,359.68,30.33,111.88
1334,1715532651880,0.65,-0.06,3.3800000000000003,359.68,30.33,111.88
1335,1715532651890,0.65,-0.06,3.38,359.68,30.33,111.88
1336,1715532651900,0.65,-0.06,3.38,359.68,30.33,111.88
1337,1715532651910,0.65,-0.06,3.38,359.68,30.33,111.88
1338,1715532651920,0.65,-0.06,3.3800000000000003,359.68,30.33,111.88
1339,1715532651930,0.65,-0.06,3.38,359.68,30.33,111.88
1340,1715532651940,0.65,-0.06,3.3800000000000003,359.68,30.33,111.88
1341,1715532651950,0.65,-0.06,3.38,359.68,30.33,111.88
1342,1715532651960,0.65,-0.06,3.3800000000000003,359.68,30.33,111.88
1343,1715532651970,0.65,-0.06,3.38,359.68,30.33,111.88
1344,1715532651980,0.48,-0.71,-0.33,-1.65,-65.06,-28.32
1345,1715532651990,0.48,-0.71,-0.33,-1.6499999999999997,-65.06,-28.320000000000004
1346,1715532652000,0.41000000000000003,-0.73,-0.30500000000000005,-39.644999999999996,-76.72,-30.455000000000002
1347,1715532652010,0.34,-0.75,-0.28,-77.64,-88.38,-32.59
1348,1715532652020,0.34,-0.75,-0.28,-77.64,-88.38,-32.59
1349,1715532652030,0.34,-0.75,-0.28,-77.64,-88.38,-32.59
1350,1715532652040,0.3666666666666667,-0.73,-0.31333333333333335,-108.48,-83.37333333333333,-55.70333333333334
1351,1715532652050,0.38,-0.72,-0.33,-123.9,-80.87,-67.26
1352,1715532652060,0.38,-0.72,-0.33,-123.9,-80.87,-67.26
1353,1715532652070,0.38,-0.72,-0.33,-123.9,-80.87,-67.26
1354,1715532652080,0.38,-0.72,-0.33,-123.9,-80.87,-67.26
1355,1715532652090,0.38000000000000006,-0.7200000000000001,-0.33,-123.90000000000002,-80.87,-67.26
1356,1715532652100,0.38,-0.72,-0.33,-123.9,-80.87,-67.26
1357,1715532652110,0.38,-0.72,-0.33,-123.9,-80.87,-67.26
1358,1715532652120,0.38,-0.72,-0.33,-123.9,-80.87,-67.26
1359,1715532652130,0.38000000000000006,-0.7200000000000001,-0.33,-123.90000000000002,-80.87,-67.26
1360,1715532652140,0.38,-0.72,-0.33,-123.9,-80.87,-67.26
1361,1715532652150,0.38,-0.72,-0.33,-123.9,-80.87,-67.26
1362,1715532652160,0.5499999999999999,-0.6866666666666666,0.05999999999999998,-199.7266666666667,-104.08333333333333,-135.11
1363,1715532652170,0.89,-0.62,0.84,-351.38,-150.51,-270.81
1364,1715532652180,0.89,-0.62,0.84,-351.37999999999994,-150.51,-270.81
1365,1715532652190,0.9675,-0.9225,1.665,-344.865,-185.1325,-291.075
1366,1715532652200,1.2,-1.83,4.14,-325.32,-289.0,-351.87
1367,1715532652210,1.2,-1.83,4.14,-325.32,-289.0,-351.87
1368,1715532652220,1.2,-1.83,4.14,-325.32,-289.0,-351.87000000000006
1369,1715532652230,0.855,-1.33,4.385,-329.44,-157.5,-312.255
1370,1715532652240,0.51,-0.83,4.63,-333.56,-26.0,-272.64
1371,1715532652250,0.51,-0.83,4.63,-333.56,-26.0,-272.64
1372,1715532652260,0.51,-0.83,4.63,-333.56,-26.0,-272.64
1373,1715532652270,0.095,-0.525,3.615,-285.705,-22.52,-261.105
1374,1715532652280,-0.32,-0.22,2.6,-237.85,-19.04,-249.57
1375,1715532652290,-0.32,-0.22,2.6,-237.85,-19.04,-249.57000000000002
1376,1715532652300,-0.32,-0.22,2.6,-237.85,-19.04,-249.57
1377,1715532652310,-0.695,0.057499999999999996,2.3000000000000003,-217.12,-17.345,-224.9925
1378,1715532652320,-0.82,0.15,2.2,-210.21,-16.78,-216.80000000000004
1379,1715532652330,-0.82,0.15,2.2,-210.21,-16.78,-216.8
1380,1715532652340,-0.82,0.15,2.2,-210.21,-16.78,-216.8
1381,1715532652350,-0.9,0.51,1.64,-176.90333333333334,-15.213333333333333,-184.2266666666667
1382,1715532652360,-0.9,0.51,1.64,-110.29,-12.08,-119.08
1383,1715532652370,-0.9,0.51,1.64,-110.29,-12.08,-119.08
1384,1715532652380,-0.9,0.51,1.64,-110.29,-12.08,-119.08
1385,1715532652390,-0.59,0.98,0.99,-30.46,31.7275,-71.155
1386,1715532652400,-0.59,0.98,0.99,-3.85,46.33,-55.18
1387,1715532652410,-0.59,0.98,0.99,-3.85,46.33,-55.18
1388,1715532652420,-0.59,0.98,0.99,-3.85,46.33,-55.18
1389,1715532652430,-0.59,0.98,0.9899999999999999,-3.85,46.330000000000005,-55.18
1390,1715532652440,-0.59,0.98,0.99,-3.85,46.33,-55.18
1391,1715532652450,-0.59,0.98,0.99,-3.85,46.33,-55.18
1392,1715532652460,-0.59,0.98,0.99,-3.85,46.33,-55.18
1393,1715532652470,-0.59,0.98,0.9899999999999999,-3.85,46.330000000000005,-55.18
1394,1715532652480,-0.59,0.98,0.99,-3.85,46.33,-55.18
1395,1715532652490,-0.59,0.98,0.99,-3.85,46.33,-55.18
1396,1715532652500,0.1225,0.86,1.0875000000000001,133.04250000000002,110.26249999999999,-11.17
1397,1715532652510,0.36,0.82,1.12,205.02,127.2,-2.44
1398,1715532652520,0.36000000000000004,0.82,1.12,205.02,127.2,-2.44
1399,1715532652530,0.36,0.82,1.12,205.02,127.2,-2.44
1400,1715532652540,0.7,1.02,2.59,268.875,47.4525,-66.16
1401,1715532652550,0.6999999999999998,1.02,2.59,290.16,20.87,-87.40000000000002
1402,1715532652560,0.6999999999999998,1.02,2.59,290.16,20.87,-87.40000000000002
1403,1715532652570,0.7,1.02,2.59,290.16,20.87,-87.4
1404,1715532652580,0.61,0.34,3.83,318.79,37.84,-148.62
1405,1715532652590,0.61,0.34,3.83,318.79,37.84,-148.62
1406,1715532652600,0.61,0.34,3.83,318.79,37.84,-148.62
1407,1715532652610,0.61,0.34,3.83,318.79,37.84,-148.62
1408,1715532652620,0.61,0.34,3.83,318.79,37.84,-148.62
1409,1715532652630,0.61,0.34,3.83,318.79,37.84,-148.62
1410,1715532652640,0.61,0.34,3.83,318.79,37.84,-148.62
1411,1715532652650,0.61,0.34,3.83,318.79,37.84,-148.62
1412,1715532652660,0.61,0.34,3.83,318.79,37.84,-148.62
1413,1715532652670,0.61,0.34,3.83,318.79,37.84,-148.62
1414,1715532652680,0.61,0.34,3.83,318.79,37.84,-148.62
1415,1715532652690,0.26,-0.91,0.54,97.17,76.42,44.8
1416,1715532652700,0.31,-0.7399999999999999,0.06,-5.55,-10.56,90.58
1417,1715532652710,0.31,-0.74,0.06,-5.55,-10.56,90.58
1418,1715532652720,0.31,-0.74,0.06,-5.55,-10.56,90.58
1419,1715532652730,0.49,-0.5666666666666667,-0.09333333333333334,-62.43666666666667,-65.12666666666667,93.42666666666666
1420,1715532652740,0.58,-0.48,-0.17,-90.88,-92.41,94.85
1421,1715532652750,0.58,-0.48,-0.17,-90.88,-92.41,94.85
1422,1715532652760,0.58,-0.48,-0.17,-90.88,-92.41,94.85
1423,1715532652770,0.69,-0.24,-0.08,-163.33,-139.95,48.34
1424,1715532652780,0.69,-0.24,-0.08,-163.33,-139.95,48.34
1425,1715532652790,0.69,-0.24,-0.08,-163.33,-139.95,48.34
1426,1715532652800,0.69,-0.24,-0.08,-163.33,-139.95,48.34
1427,1715532652810,0.63,-0.39,0.09,-152.16,-146.0,-14.89
1428,1715532652820,0.63,-0.38999999999999996,0.09000000000000001,-152.16,-146.0,-14.89
1429,1715532652830,0.63,-0.39,0.09,-152.16,-146.0,-14.89
1430,1715532652840,0.63,-0.39,0.09,-152.16,-146.0,-14.89
1431,1715532652850,0.72,-0.16,0.01,-195.86,-103.88,-58.65
1432,1715532652860,0.7200000000000001,-0.16,0.01,-195.86,-103.88,-58.65
1433,1715532652870,0.72,-0.16,0.01,-195.86,-103.88,-58.65
1434,1715532652880,0.8233333333333333,-0.22999999999999998,0.07666666666666666,-210.02,-113.11666666666667,-94.23666666666666
1435,1715532652890,1.03,-0.37,0.21,-238.34,-131.59,-165.41
1436,1715532652900,1.03,-0.37,0.21,-238.34,-131.59,-165.41
1437,1715532652910,1.03,-0.37,0.21,-238.34,-131.59,-165.41
1438,1715532652920,1.24,-0.44333333333333336,0.5566666666666666,-281.94,-153.82666666666668,-188.66333333333333
1439,1715532652930,1.66,-0.59,1.25,-369.14,-198.3,-235.17
1440,1715532652940,1.66,-0.59,1.25,-369.14,-198.3,-235.17
1441,1715532652950,1.66,-0.59,1.25,-369.14000000000004,-198.30000000000004,-235.17
1442,1715532652960,1.66,-0.59,1.25,-369.14,-198.3,-235.17
1443,1715532652970,1.66,-0.59,1.25,-369.14000000000004,-198.30000000000004,-235.17
1444,1715532652980,1.66,-0.59,1.25,-369.14,-198.3,-235.17
1445,1715532652990,1.66,-0.59,1.25,-369.14,-198.3,-235.17
1446,1715532653000,1.66,-0.59,1.25,-369.14000000000004,-198.30000000000004,-235.17
1447,1715532653010,1.66,-0.59,1.25,-369.14,-198.3,-235.17
1448,1715532653020,1.0666666666666667,-0.7233333333333333,2.4899999999999998,-336.6666666666667,-48.11333333333334,-221.61666666666667
1449,1715532653030,0.77,-0.79,3.11,-320.43,26.98,-214.84
1450,1715532653040,0.14750000000000002,-0.3625,2.735,-298.83,-33.447500000000005,-226.93
1451,1715532653050,-0.06,-0.22,2.61,-291.63,-53.59,-230.96
1452,1715532653060,-0.06,-0.22,2.61,-291.63,-53.59,-230.96
1453,1715532653070,-0.06,-0.22,2.61,-291.63,-53.59,-230.96
1454,1715532653080,-0.5,-0.015,2.495,-261.475,-7.995000000000001,-186.405
1455,1715532653090,-0.94,0.19000000000000003,2.38,-231.32000000000002,37.6,-141.85
1456,1715532653100,-0.94,0.19,2.38,-231.32,37.6,-141.85
1457,1715532653110,-1.0833333333333333,0.34,2.0566666666666666,-231.32000000000002,37.6,-141.85
1458,1715532653120,-1.37,0.64,1.41,-21.24,-5.07,-30.94
1459,1715532653130,-1.37,0.64,1.41,-21.24,-5.07,-30.94
1460,1715532653140,-1.37,0.64,1.41,-21.24,-5.07,-30.94
1461,1715532653150,-1.37,0.64,1.41,-21.24,-5.07,-30.94
1462,1715532653160,-1.37,0.64,1.41,-21.24,-5.07,-30.94
1463,1715532653170,-1.37,0.64,1.41,-21.24,-5.07,-30.94
1464,1715532653180,-1.37,0.64,1.41,-21.24,-5.07,-30.94
1465,1715532653190,-1.37,0.64,1.41,-21.24,-5.07,-30.94
1466,1715532653200,-1.37,0.64,1.41,-21.24,-5.07,-30.94
1467,1715532653210,-1.1900000000000002,0.6,1.0933333333333333,17.169999999999998,53.626666666666665,14.590000000000002
1468,1715532653220,-0.83,0.52,0.46,93.99,171.02,105.65
1469,1715532653230,-0.5433333333333333,0.43333333333333335,0.7399999999999999,110.96333333333332,198.48666666666668,110.98333333333335
1470,1715532653240,-0.4,0.39,0.88,119.45,212.22,113.65
1471,1715532653250,-0.4000000000000001,0.38999999999999996,0.88,119.45,212.22,113.65000000000002
1472,1715532653260,-0.4,0.39,0.88,119.45,212.22,113.65
1473,1715532653270,-0.3025,0.17250000000000001,1.33,128.2325,241.33499999999998,138.27249999999998
1474,1715532653280,-0.27,0.10000000000000002,1.4799999999999998,131.16,251.04,146.48
1475,1715532653290,-0.27,0.1,1.48,131.16,251.04,146.48
1476,1715532653300,-0.27,0.1,1.48,131.16,251.04,146.48
1477,1715532653310,0.24,-0.16,5.05,188.11,167.36,178.28
1478,1715532653320,0.24,-0.16,5.05,188.11,167.36,178.28
1479,1715532653330,0.24,-0.16,5.05,188.11,167.36,178.28
1480,1715532653340,0.24,-0.16,5.05,188.11,167.36,178.28
1481,1715532653350,0.38000000000000006,-0.77,2.52,325.81,179.68999999999997,303.1
1482,1715532653360,0.38,-0.77,2.52,325.81,179.69,303.1
1483,1715532653370,0.38,-0.77,2.52,325.81,179.69,303.1
1484,1715532653380,0.98,-0.29000000000000004,2.79,317.16999999999996,106.965,216.125
1485,1715532653390,1.58,0.19000000000000003,3.06,308.53,34.24,129.15
1486,1715532653400,1.58,0.19,3.06,308.53,34.24,129.15
1487,1715532653410,1.58,0.19000000000000003,3.06,308.53,34.24,129.15
1488,1715532653420,0.9733333333333333,-0.51,1.5133333333333334,218.68666666666664,101.07333333333334,74.76666666666667
1489,1715532653430,0.67,-0.86,0.74,39.0,234.74,-34.0
1490,1715532653440,0.67,-0.86,0.74,39.0,234.74,-34.0
1491,1715532653450,0.67,-0.86,0.7399999999999999,39.0,234.74,-34.0
1492,1715532653460,0.67,-0.86,0.74,39.0,234.74,-34.0
1493,1715532653470,0.67,-0.86,0.7399999999999999,39.0,234.74,-34.0
1494,1715532653480,0.67,-0.86,0.74,39.0,234.74,-34.0
1495,1715532653490,0.67,-0.86,0.74,39.0,234.74,-34.0
1496,1715532653500,0.67,-0.86,0.74,39.0,234.74,-34.0
1497,1715532653510,0.67,-0.86,0.7399999999999999,39.0,234.74,-34.0
1498,1715532653520,0.67,-0.86,0.74,39.0,234.74,-34.0
1499,1715532653530,0.67,-0.86,0.7399999999999999,39.0,234.74,-34.0
1500,1715532653540,0.67,-0.86,0.74,39.0,234.74,-34.0
1501,1715532653550,0.49,-0.84,-0.35,-88.62,-74.28,25.94
1502,1715532653560,0.49,-0.84,-0.35,-88.62,-74.28,25.94
1503,1715532653570,0.51,-0.7399999999999999,-0.35333333333333333,-88.62,-74.28,25.94
1504,1715532653580,0.55,-0.54,-0.36,-117.43,-58.65,23.5
1505,1715532653590,0.55,-0.54,-0.36,-117.43,-58.65,23.5
1506,1715532653600,0.55,-0.54,-0.36,-117.43,-58.65,23.5
1507,1715532653610,0.5800000000000001,-0.4466666666666667,-0.3233333333333333,-138.79333333333332,-60.949999999999996,-4.13
1508,1715532653620,0.64,-0.26,-0.25,-181.52,-65.55,-59.39
1509,1715532653630,0.64,-0.26,-0.25,-181.52,-65.55,-59.39
1510,1715532653640,0.64,-0.26,-0.25,-181.52,-65.55,-59.39000000000001
1511,1715532653650,0.64,-0.26,-0.25,-181.52,-65.55,-59.39
1512,1715532653660,0.64,-0.26,-0.25,-181.52,-65.55,-59.39
1513,1715532653670,0.64,-0.26,-0.25,-181.52,-65.55,-59.39000000000001
1514,1715532653680,0.64,-0.26,-0.25,-181.52,-65.55,-59.39
1515,1715532653690,0.64,-0.26,-0.25,-181.52,-65.55,-59.39000000000001
1516,1715532653700,0.64,-0.26,-0.25,-181.52,-65.55,-59.39
1517,1715532653710,0.64,-0.26,-0.25,-181.52,-65.55,-59.39
1518,1715532653720,0.64,-0.26,-0.25,-181.52,-65.55,-59.39
1519,1715532653730,0.64,-0.26,-0.25,-181.52,-65.55,-59.39000000000001
1520,1715532653740,-0.01,-1.89,4.76,-271.24,-9.95,-192.99
1521,1715532653750,-0.01,-1.89,4.76,-271.24,-9.95,-192.99
1522,1715532653760,-0.01,-1.89,4.76,-271.24,-9.95,-192.99
1523,1715532653770,-0.34,-0.09000000000000001,3.7000000000000006,-179.32000000000002,47.85,-122.74
1524,1715532653780,-0.34,-0.09000000000000001,3.7000000000000006,-179.32000000000002,47.85,-122.74
1525,1715532653790,-0.34,-0.09,3.7,-179.32,47.85,-122.74
1526,1715532653800,-0.38999999999999996,0.12999999999999998,3.3166666666666664,-179.32000000000002,47.85,-122.74
1527,1715532653810,-0.49,0.57,2.55,-106.08,49.74,-122.86
1528,1715532653820,-0.49,0.57,2.55,-106.08,49.74,-122.86
1529,1715532653830,-0.49,0.57,2.55,-106.08,49.74,-122.86
1530,1715532653840,-0.58,0.5675,2.34,-106.08,49.74,-122.86
1531,1715532653850,-0.85,0.56,1.71,-90.03000000000002,79.59,-155.58
1532,1715532653860,-0.85,0.56,1.71,-90.03,79.59,-155.58
1533,1715532653870,-0.85,0.56,1.71,-90.03,79.59,-155.58
1534,1715532653880,-0.7749999999999999,0.545,1.3399999999999999,-61.205,58.807500000000005,-129.01500000000001
1535,1715532653890,-0.6999999999999998,0.53,0.9700000000000001,25.27,-3.5400000000000005,-49.32
1536,1715532653900,-0.7,0.53,0.97,25.27,-3.54,-49.32
1537,1715532653910,-0.7,0.53,0.97,25.27,-3.54,-49.32
1538,1715532653920,-0.625,0.6125,0.31,34.575,39.61,-6.135000000000002
1539,1715532653930,-0.6,0.64,0.09000000000000001,43.88,82.76,37.05
1540,1715532653940,-0.6,0.64,0.09,43.88,82.76,37.05
1541,1715532653950,-0.6,0.64,0.09,43.88,82.76,37.05
1542,1715532653960,-0.685,0.53,-0.02500000000000001,88.67999999999999,34.24,72.44999999999999
1543,1715532653970,-0.77,0.42,-0.14,133.48,-14.28,107.85
1544,1715532653980,-0.77,0.42,-0.14,133.48,-14.28,107.84999999999998
1545,1715532653990,-0.77,0.42,-0.14,133.48,-14.28,107.85
1546,1715532654000,-0.77,0.42,-0.14,133.48,-14.28,107.85
1547,1715532654010,-0.77,0.42,-0.14,133.48,-14.28,107.85
1548,1715532654020,-0.77,0.42,-0.14,133.48,-14.28,107.85
1549,1715532654030,-0.77,0.42,-0.14,133.48,-14.28,107.85
1550,1715532654040,-0.77,0.42,-0.14,133.48,-14.28,107.84999999999998
1551,1715532654050,-0.77,0.42,-0.14,133.48,-14.28,107.85
1552,1715532654060,-0.77,0.42,-0.14,133.48,-14.28,107.85
1553,1715532654070,-0.95,0.0375,1.96,180.13,12.8625,226.91250000000002
1554,1715532654080,-1.01,-0.09000000000000001,2.66,195.67999999999998,21.91,266.6
1555,1715532654090,-1.01,-0.09,2.66,195.68,21.91,266.6
1556,1715532654100,-0.895,-0.27999999999999997,3.34,195.68,21.91,266.6
1557,1715532654110,-0.7799999999999999,-0.47,4.02,309.94,97.59999999999998,265.38
1558,1715532654120,-0.78,-0.47,4.02,309.94,97.6,265.38
1559,1715532654130,-0.78,-0.47,4.02,309.94,97.6,265.38
1560,1715532654140,-0.015000000000000013,-0.5,3.3375,339.7375,-1.647499999999999,296.37
1561,1715532654150,0.24,-0.51,3.11,349.67,-34.73,306.7
1562,1715532654160,0.24,-0.51,3.11,349.67,-34.73,306.7
1563,1715532654170,0.24,-0.51,3.11,349.67,-34.73,306.7
1564,1715532654180,0.24,-0.51,3.11,349.67,-34.73,306.7
1565,1715532654190,0.24,-0.51,3.11,349.67,-34.73,306.7
1566,1715532654200,0.24,-0.51,3.11,349.67,-34.73,306.7
1567,1715532654210,0.24,-0.51,3.11,349.67,-34.73,306.7
1568,1715532654220,0.24,-0.51,3.11,349.67,-34.73,306.7
1569,1715532654230,0.24,-0.51,3.11,349.67,-34.73,306.7
1570,1715532654240,0.24,-0.51,3.11,349.67,-34.73,306.7
1571,1715532654250,0.24,-0.51,3.11,349.67,-34.73,306.7
1572,1715532654260,0.47,-0.725,1.275,107.85000000000001,34.055,153.3175
1573,1715532654270,0.64,-0.83,-0.03,-57.19,43.330000000000005,85.63
1574,1715532654280,0.64,-0.83,-0.03,-57.19,43.33,85.63
1575,1715532654290,0.61,-0.8066666666666666,-0.08,-76.92333333333333,43.026666666666664,64.18666666666667
1576,1715532654300,0.55,-0.76,-0.18,-116.39,42.42,21.3
1577,1715532654310,0.55,-0.76,-0.18,-116.39,42.42,21.3
1578,1715532654320,0.55,-0.76,-0.18,-116.39,42.42,21.3
1579,1715532654330,0.6633333333333333,-0.58,-0.17333333333333334,-121.21333333333332,29.013333333333335,13.873333333333335
1580,1715532654340,0.7200000000000001,-0.49,-0.17,-130.86,2.2,-0.98
1581,1715532654350,0.72,-0.49,-0.17,-130.86,2.2,-0.98
1582,1715532654360,0.7200000000000001,-0.49,-0.17,-130.86,2.2,-0.98
1583,1715532654370,0.8066666666666666,-0.36999999999999994,-0.17666666666666667,-146.4466666666667,-21.16,-45.28666666666667
1584,1715532654380,0.85,-0.31,-0.18000000000000002,-154.24,-32.84,-67.44
1585,1715532654390,0.85,-0.31,-0.18,-154.24,-32.84,-67.44
1586,1715532654400,0.85,-0.31,-0.18000000000000002,-154.24,-32.84,-67.44
1587,1715532654410,0.8725,-0.3475,0.0675,-201.6175,-46.6625,-124.935
1588,1715532654420,0.88,-0.36,0.15,-217.41,-51.27,-144.1
1589,1715532654430,0.88,-0.36,0.15,-217.41,-51.27,-144.1
1590,1715532654440,0.8125,-0.5575,0.4775,-240.97,-52.307500000000005,-169.01749999999998
1591,1715532654450,0.61,-1.15,1.46,-311.65,-55.419999999999995,-243.77
1592,1715532654460,0.61,-1.15,1.46,-311.65,-55.42,-243.77
1593,1715532654470,0.61,-1.15,1.46,-311.65,-55.42,-243.77
1594,1715532654480,0.4325,-1.29,2.1425,-297.2,-86.12,-230.2375
1595,1715532654490,-0.1,-1.71,4.19,-253.85,-178.22,-189.64
1596,1715532654500,-0.10000000000000002,-1.71,4.19,-253.85,-178.22,-189.64
1597,1715532654510,-0.1,-1.71,4.19,-253.85,-178.22,-189.64
1598,1715532654520,-0.1,-1.71,4.19,-253.85,-178.22,-189.64
1599,1715532654530,-0.1,-1.71,4.19,-253.85,-178.22,-189.64
1600,1715532654540,-0.1,-1.71,4.19,-253.85,-178.22,-189.64
1601,1715532654550,-0.10000000000000002,-1.71,4.19,-253.85,-178.22,-189.64
1602,1715532654560,-0.1,-1.71,4.19,-253.85,-178.22,-189.64
1603,1715532654570,-0.1,-1.71,4.19,-253.85,-178.22,-189.64
1604,1715532654580,-0.10000000000000002,-1.71,4.19,-253.85,-178.22,-189.64
1605,1715532654590,-0.195,-1.08,3.8525,-225.1325,-111.7225,-180.285
1606,1715532654600,-0.7600000000000001,0.77,2.353333333333333,-90.02666666666666,104.61666666666667,-140.09333333333333
1607,1715532654610,-0.9,0.75,2.11,-65.55,113.04,-134.03
1608,1715532654620,-0.9,0.75,2.11,-65.55,113.04,-134.03
1609,1715532654630,-0.9,0.75,2.11,-65.55,113.04,-134.03
1610,1715532654640,-0.8025,0.78,1.3525,6.180000000000001,50.6475,-75.2525
1611,1715532654650,-0.77,0.79,1.1,30.09,29.85,-55.66
1612,1715532654660,-0.77,0.79,1.1,30.09,29.85,-55.66
1613,1715532654670,-0.77,0.79,1.1,30.09,29.85,-55.66
1614,1715532654680,-0.77,0.79,1.1,30.09,29.850000000000005,-55.66
1615,1715532654690,-0.65,0.72,0.9825,48.7675,24.645,-31.857499999999998
1616,1715532654700,-0.29,0.51,0.63,104.8,9.03,39.55
1617,1715532654710,-0.29,0.51,0.63,104.8,9.03,39.55
1618,1715532654720,-0.29,0.51,0.63,104.8,9.03,39.55
1619,1715532654730,-0.29,0.51,0.63,104.8,9.03,39.55
1620,1715532654740,-0.29,0.51,0.63,104.8,9.03,39.55
1621,1715532654750,-0.29,0.51,0.63,104.8,9.03,39.55
1622,1715532654760,-0.29,0.51,0.63,104.8,9.03,39.55
1623,1715532654770,-0.29,0.51,0.63,104.8,9.03,39.55
1624,1715532654780,-0.29,0.51,0.63,104.8,9.03,39.55
1625,1715532654790,-0.07,-0.12,-0.26,129.7,56.76,161.44
1626,1715532654800,-0.01,0.26,0.15,115.54,39.92,231.26
1627,1715532654810,-0.01,0.26,0.15,115.54,39.92,231.26
1628,1715532654820,-0.01,0.26,0.15,115.54,39.92,231.26
1629,1715532654830,-0.73,0.71,2.15,98.69,-56.580000000000005,242.42999999999998
1630,1715532654840,-0.73,0.71,2.15,98.69,-56.58,242.43
1631,1715532654850,-0.73,0.71,2.15,98.69,-56.58,242.43
1632,1715532654860,-0.68,0.68,3.3699999999999997,175.98333333333335,-60.71,257.30333333333334
1633,1715532654870,-0.58,0.62,5.81,330.57,-68.97,287.05
1634,1715532654880,-0.58,0.62,5.81,330.57,-68.97,287.05
1635,1715532654890,-0.58,0.62,5.81,330.57,-68.97,287.05
1636,1715532654900,-0.5449999999999999,0.145,4.38,362.03,1.9200000000000017,254.55
1637,1715532654910,-0.51,-0.33,2.9500000000000006,393.49,72.81,222.05000000000004
1638,1715532654920,-0.51,-0.33,2.95,393.49,72.81,222.05
1639,1715532654930,-0.51,-0.33,2.9500000000000006,393.49,72.81,222.05000000000004
1640,1715532654940,0.022500000000000006,-0.405,2.065,331.9225,41.9625,139.925
1641,1715532654950,0.2,-0.43,1.77,311.4,31.68,112.55
1642,1715532654960,0.20000000000000004,-0.43,1.7700000000000002,311.4,31.679999999999996,112.55
1643,1715532654970,0.2,-0.43,1.77,311.4,31.68,112.55
1644,1715532654980,0.165,-0.885,1.1,225.615,87.86,68.515
1645,1715532654990,0.13,-1.34,0.43,139.83,144.04,24.48
1646,1715532655000,0.13,-1.34,0.43,139.83,144.04,24.48
1647,1715532655010,0.13,-1.34,0.43,139.83,144.04,24.48
1648,1715532655020,0.23,-1.28,-0.7200000000000001,-34.48,105.58999999999999,25.39
1649,1715532655030,0.23,-1.28,-0.72,-34.48,105.59,25.39
1650,1715532655040,0.23,-1.28,-0.7200000000000001,-34.48,105.58999999999999,25.39
1651,1715532655050,0.23,-1.28,-0.72,-34.48,105.59,25.39
1652,1715532655060,0.23,-1.28,-0.7200000000000001,-34.48,105.58999999999999,25.39
1653,1715532655070,0.23,-1.28,-0.72,-34.48,105.59,25.39
1654,1715532655080,0.23,-1.28,-0.7200000000000001,-34.48,105.58999999999999,25.39
1655,1715532655090,0.23,-1.28,-0.72,-34.48,105.59,25.39
1656,1715532655100,0.23,-1.28,-0.7200000000000001,-34.48,105.58999999999999,25.39
1657,1715532655110,0.23,-1.28,-0.72,-34.48,105.59,25.39
1658,1715532655120,0.65,-0.59,-0.21,-166.02,4.15,0.55
1659,1715532655130,0.7766666666666667,-0.3633333333333333,-0.09666666666666666,-185.38666666666666,-38.169999999999995,-36.39666666666667
1660,1715532655140,0.84,-0.25,-0.04,-195.07,-59.33,-54.87
1661,1715532655150,0.84,-0.25,-0.04,-195.07000000000002,-59.330000000000005,-54.87
1662,1715532655160,0.84,-0.25,-0.04,-195.07000000000002,-59.330000000000005,-54.87
1663,1715532655170,0.77,-0.345,0.28500000000000003,-220.825,-38.12,-103.425
1664,1715532655180,0.6999999999999998,-0.44,0.61,-246.58,-16.91,-151.98
1665,1715532655190,0.7,-0.44,0.61,-246.58,-16.91,-151.98
1666,1715532655200,0.6999999999999998,-0.44,0.61,-246.58,-16.91,-151.98
1667,1715532655210,0.52,-0.5449999999999999,1.33,-294.415,-66.62,-185.76
1668,1715532655220,0.46,-0.58,1.57,-310.36,-83.19,-197.02
1669,1715532655230,0.46,-0.58,1.57,-310.36,-83.19,-197.02
1670,1715532655240,0.46,-0.58,1.57,-310.36,-83.19,-197.02
1671,1715532655250,0.46,-0.58,1.57,-310.36,-83.19,-197.02
1672,1715532655260,0.46,-0.58,1.57,-310.36,-83.19,-197.02
1673,1715532655270,0.46,-0.58,1.57,-310.36,-83.19,-197.02
1674,1715532655280,0.46,-0.58,1.57,-310.36,-83.19,-197.02
1675,1715532655290,0.46,-0.58,1.57,-310.36,-83.19,-197.02
1676,1715532655300,0.46,-0.58,1.57,-310.36,-83.19,-197.02
1677,1715532655310,-0.09333333333333332,-0.36000000000000004,2.9633333333333334,-254.93999999999997,-28.75,-171.54666666666665
1678,1715532655320,-0.34750000000000003,-0.06,3.5275,-210.10999999999999,-7.4025,-148.0225
1679,1715532655330,-0.28,0.51,3.13,-158.75,-25.02,-115.66
1680,1715532655340,-0.28,0.51,3.1300000000000003,-158.75,-25.02,-115.66000000000001
1681,1715532655350,-0.28,0.51,3.1300000000000003,-158.75,-25.02,-115.66000000000001
1682,1715532655360,-0.28,0.51,3.13,-158.75,-25.02,-115.66
1683,1715532655370,-0.28,0.51,3.1300000000000003,-158.75,-25.02,-115.66000000000001
1684,1715532655380,-0.28,0.51,3.13,-158.75,-25.02,-115.66
1685,1715532655390,-0.3566666666666667,0.64,2.78,-136.75666666666666,4.763333333333333,-103.63666666666666
1686,1715532655400,-0.525,0.81,1.3525,-30.119999999999997,35.31,-39.675000000000004
1687,1715532655410,-0.53,0.7799999999999999,1.11,32.53,6.29,0.24
1688,1715532655420,-0.53,0.7799999999999999,1.11,32.53,6.29,0.24
1689,1715532655430,-0.53,0.78,1.11,32.53,6.29,0.24
1690,1715532655440,-0.33,0.61,0.42,80.36500000000001,0.425,55.08
1691,1715532655450,-0.33,0.61,0.42,96.31,-1.53,73.36
1692,1715532655460,-0.33,0.61,0.42,96.31,-1.53,73.36
1693,1715532655470,-0.33,0.61,0.42,96.31,-1.53,73.36
1694,1715532655480,-0.21,0.43,0.14,123.96,-29.600000000000005,110.34999999999998
1695,1715532655490,-0.21,0.43,0.14,123.96,-29.6,110.35
1696,1715532655500,-0.21,0.43,0.14,123.96,-29.600000000000005,110.34999999999998
1697,1715532655510,-0.17333333333333334,0.37666666666666665,0.27,130.59333333333333,-24.373333333333335,123.71666666666665
1698,1715532655520,-0.1,0.27,0.53,143.86,-13.92,150.45
1699,1715532655530,-0.10000000000000002,0.27,0.53,143.86,-13.92,150.45
1700,1715532655540,-0.10000000000000002,0.27,0.53,143.86,-13.92,150.45
1701,1715532655550,-0.1,0.27,0.53,143.86,-13.92,150.45
1702,1715532655560,-0.10000000000000002,0.27,0.53,143.86,-13.92,150.45
1703,1715532655570,-0.1,0.27,0.53,143.86,-13.92,150.45
1704,1715532655580,-0.10000000000000002,0.27,0.53,143.86,-13.92,150.45
1705,1715532655590,-0.1,0.27,0.53,143.86,-13.92,150.45
1706,1715532655600,-0.10000000000000002,0.27,0.53,143.86,-13.92,150.45
1707,1715532655610,-0.1,0.27,0.53,143.86,-13.92,150.45
1708,1715532655620,-0.10000000000000002,0.27,0.53,143.86,-13.92,150.45
1709,1715532655630,-0.1,0.27,0.53,143.86,-13.92,150.45
1710,1715532655640,-0.02,0.3833333333333333,2.5233333333333334,272.7266666666667,-15.873333333333335,92.71
1711,1715532655650,0.02,0.44,3.52,337.16,-16.85,63.84
1712,1715532655660,0.02,0.44,3.52,337.16,-16.85,63.84
1713,1715532655670,0.22249999999999998,0.32,2.995,303.605,-24.86,-5.969999999999998
1714,1715532655680,0.29,0.28,2.82,292.42,-27.53,-29.24
1715,1715532655690,0.29,0.28,2.82,292.42,-27.53,-29.24
1716,1715532655700,0.29,0.28,2.82,292.42,-27.53,-29.24
1717,1715532655710,0.2975,-0.4775,2.205,206.545,72.5425,-62.19500000000001
1718,1715532655720,0.3,-0.73,2.0,177.92,105.90000000000002,-73.18
1719,1715532655730,0.3,-0.73,2.0,177.92,105.9,-73.18
1720,1715532655740,0.205,-0.845,1.5225,177.92,105.9,-73.18
1721,1715532655750,-0.08,-1.19,0.09000000000000001,72.08,114.81,18.68
1722,1715532655760,-0.08,-1.19,0.09,72.08,114.81,18.68
1723,1715532655770,-0.08,-1.19,0.09,72.08,114.81,18.68
1724,1715532655780,-0.08,-1.19,0.09,72.08,114.81,18.68
1725,1715532655790,-0.08,-1.19,0.09000000000000001,72.08,114.81,18.68
1726,1715532655800,-0.08,-1.19,0.09,72.08,114.81,18.68
1727,1715532655810,-0.08,-1.19,0.09000000000000001,72.08,114.81,18.68
1728,1715532655820,-0.08,-1.19,0.09000000000000001,72.08,114.81,18.68
1729,1715532655830,-0.08,-1.19,0.09000000000000001,72.08,114.81,18.68
1730,1715532655840,0.44,-1.01,-0.64,-64.27,-15.75,135.07
1731,1715532655850,0.44,-1.01,-0.64,-64.27,-15.75,135.07
1732,1715532655860,0.575,-0.8525,-0.73,-132.7075,-62.4375,88.285
1733,1715532655870,0.62,-0.8000000000000002,-0.7600000000000001,-155.52,-78.0,72.69
1734,1715532655880,0.62,-0.8,-0.76,-155.52,-78.0,72.69
1735,1715532655890,0.62,-0.8000000000000002,-0.7600000000000001,-155.52,-78.0,72.69
1736,1715532655900,0.6575,-0.8,-0.5700000000000001,-185.03,-74.8275,56.2575
1737,1715532655910,0.77,-0.8000000000000002,0.0,-273.56,-65.31,6.96
1738,1715532655920,0.77,-0.8,0.0,-273.56,-65.31,6.96
1739,1715532655930,0.77,-0.8000000000000002,0.0,-273.56,-65.31,6.96
1740,1715532655940,1.04,-0.8000000000000002,0.4000000000000001,-388.92,-57.07,-96.5
1741,1715532655950,1.04,-0.8,0.4,-388.92,-57.07,-96.5
1742,1715532655960,1.04,-0.8000000000000002,0.4000000000000001,-388.92,-57.07,-96.5
1743,1715532655970,1.1400000000000001,-1.185,2.065,-388.92,-57.07,-96.5
1744,1715532655980,1.24,-1.57,3.73,-441.06333333333333,-45.79666666666666,-137.84
1745,1715532655990,1.24,-1.57,3.73,-545.35,-23.25,-220.52
1746,1715532656000,1.24,-1.57,3.73,-545.35,-23.25,-220.52
1747,1715532656010,0.9400000000000001,-0.93,5.016666666666667,-545.35,-23.25,-220.52
1748,1715532656020,0.79,-0.61,5.66,-281.01,-61.16,-149.35
1749,1715532656030,0.79,-0.61,5.66,-281.01,-61.16,-149.35
1750,1715532656040,0.79,-0.61,5.66,-281.01,-61.16,-149.35
1751,1715532656050,0.44,-0.015000000000000013,4.25,-230.655,1.3400000000000034,-149.685
1752,1715532656060,0.09000000000000001,0.58,2.84,-180.30000000000004,63.84,-150.02
1753,1715532656070,0.09,0.58,2.84,-180.3,63.84,-150.02
1754,1715532656080,0.09000000000000001,0.58,2.84,-180.30000000000004,63.84,-150.02
1755,1715532656090,0.09000000000000001,0.58,2.84,-180.30000000000004,63.84,-150.02
1756,1715532656100,0.09,0.58,2.84,-180.3,63.84,-150.02
1757,1715532656110,0.09000000000000001,0.58,2.84,-180.30000000000004,63.84,-150.02
1758,1715532656120,0.09000000000000001,0.58,2.84,-180.30000000000004,63.84,-150.02
1759,1715532656130,0.09,0.58,2.84,-180.3,63.84,-150.02
1760,1715532656140,0.09000000000000001,0.58,2.84,-180.30000000000004,63.84,-150.02
1761,1715532656150,0.09,0.58,2.84,-180.3,63.84,-150.02
1762,1715532656160,-0.08333333333333333,0.5299999999999999,2.373333333333333,-130.74,64.79666666666667,-150.43
1763,1715532656170,-0.4166666666666667,0.33666666666666667,0.9866666666666667,0.6466666666666671,78.35000000000001,-115.80333333333333
1764,1715532656180,-0.41,0.29,0.76,16.78,84.17,-98.08
1765,1715532656190,-0.41,0.29,0.7600000000000001,16.78,84.17,-98.08
1766,1715532656200,-0.41,0.29,0.7600000000000001,16.78,84.17,-98.08
1767,1715532656210,-0.28,0.24,0.29,45.84,89.54,-32.41
1768,1715532656220,-0.28,0.24,0.29,45.84,89.54,-32.41
1769,1715532656230,-0.28,0.24,0.29,45.84,89.54,-32.41
1770,1715532656240,-0.24333333333333337,0.2866666666666667,0.2233333333333333,53.163333333333334,86.42666666666668,-25.33
1771,1715532656250,-0.17,0.38,0.09,67.81,80.2,-11.17
1772,1715532656260,-0.17,0.38000000000000006,0.09000000000000001,67.81,80.2,-11.17
1773,1715532656270,-0.17,0.38,0.09,67.81,80.2,-11.17
1774,1715532656280,-0.17,0.38000000000000006,0.09000000000000001,67.81,80.2,-11.17
1775,1715532656290,-0.17,0.38000000000000006,0.09000000000000001,67.81,80.2,-11.17
1776,1715532656300,-0.17,0.38,0.09,67.81,80.2,-11.17
1777,1715532656310,-0.17,0.38,0.09,67.81,80.2,-11.17
1778,1715532656320,-0.17,0.38000000000000006,0.09000000000000001,67.81,80.2,-11.17
1779,1715532656330,-0.17,0.38000000000000006,0.09000000000000001,67.81,80.2,-11.17
1780,1715532656340,-0.17,0.38,0.09,67.81,80.2,-11.17
1781,1715532656350,-0.17,0.38000000000000006,0.09000000000000001,67.81,80.2,-11.17
1782,1715532656360,-0.24,0.5033333333333333,0.81,99.67,88.52333333333333,4.1066666666666665
1783,1715532656370,-0.42,0.6,2.08,109.56,39.31,9.7
1784,1715532656380,-0.42,0.6,2.08,109.56,39.31,9.7
1785,1715532656390,-0.42,0.6,2.08,109.56,39.31,9.7
1786,1715532656400,-0.013333333333333327,0.25333333333333335,3.7466666666666666,173.27999999999997,33.77666666666667,87.66666666666667
1787,1715532656410,0.19,0.08,4.58,205.14,31.01,126.65
1788,1715532656420,0.19000000000000003,0.08,4.58,205.14,31.01,126.65000000000002
1789,1715532656430,0.19,0.08,4.58,205.14,31.01,126.65
1790,1715532656440,0.75,-0.14,3.49,209.59,12.699999999999998,65.25
1791,1715532656450,0.75,-0.14,3.49,209.59,12.7,65.25
1792,1715532656460,0.75,-0.14,3.49,209.59,12.699999999999998,65.25
1793,1715532656470,0.71,-0.33666666666666667,2.896666666666667,193.54,38.76,47.28333333333333
1794,1715532656480,0.63,-0.73,1.71,161.44,90.88,11.35
1795,1715532656490,0.63,-0.73,1.71,161.44,90.88,11.35
1796,1715532656500,0.63,-0.73,1.71,161.44,90.88,11.35
1797,1715532656510,0.47000000000000003,-0.4633333333333334,0.6966666666666667,144.06333333333333,54.949999999999996,-0.12333333333333367
1798,1715532656520,0.39,-0.33,0.19,109.31,-16.91,-23.07
1799,1715532656530,0.38999999999999996,-0.33,0.19000000000000003,109.31,-16.91,-23.070000000000004
1800,1715532656540,0.39,-0.33,0.19,109.31,-16.91,-23.07
1801,1715532656550,0.30333333333333334,-0.3766666666666667,0.12333333333333334,48.68333333333334,-39.696666666666665,-49.39666666666667
1802,1715532656560,0.26,-0.4000000000000001,0.09000000000000001,18.37,-51.09,-62.56
1803,1715532656570,0.26,-0.4000000000000001,0.09000000000000001,18.37,-51.09,-62.56
1804,1715532656580,0.26,-0.4,0.09,18.37,-51.09,-62.56
1805,1715532656590,0.3725,-0.5349999999999999,-0.10500000000000001,-12.485,-89.08500000000001,-34.0
1806,1715532656600,0.41,-0.58,-0.17,-22.77,-101.75,-24.48
1807,1715532656610,0.41,-0.58,-0.17,-22.77,-101.75,-24.48
1808,1715532656620,0.41,-0.58,-0.17,-22.77,-101.75,-24.48
1809,1715532656630,0.41,-0.58,-0.17,-22.77,-101.75,-24.48
1810,1715532656640,0.41,-0.58,-0.17,-22.77,-101.75,-24.48
1811,1715532656650,0.41,-0.58,-0.17,-22.77,-101.75,-24.48
1812,1715532656660,0.41,-0.58,-0.17,-22.77,-101.75,-24.48
1813,1715532656670,0.41,-0.58,-0.17,-22.77,-101.75,-24.48
1814,1715532656680,0.41,-0.58,-0.17,-22.77,-101.75,-24.48
1815,1715532656690,0.5449999999999999,-0.45999999999999996,-0.32,-75.09,-130.76749999999998,-139.2825
1816,1715532656700,0.59,-0.42,-0.36999999999999994,-92.53000000000002,-140.44,-177.55000000000004
1817,1715532656710,0.82,-0.6999999999999998,0.14,-202.09,-135.25,-278.99
1818,1715532656720,0.82,-0.6999999999999998,0.14,-202.09,-135.25,-278.99
1819,1715532656730,0.82,-0.7,0.14,-202.09,-135.25,-278.99
1820,1715532656740,0.7266666666666666,-1.0333333333333332,0.6233333333333334,-254.17333333333332,-177.04,-305.68333333333334
1821,1715532656750,0.54,-1.7,1.59,-358.34,-260.62,-359.07
1822,1715532656760,0.54,-1.7,1.59,-358.34,-260.62,-359.07
1823,1715532656770,0.54,-1.7,1.59,-358.34,-260.62,-359.07
1824,1715532656780,0.5966666666666667,-1.4833333333333334,2.7100000000000004,-329.97666666666663,-215.25,-334.33
1825,1715532656790,0.71,-1.05,4.95,-273.25,-124.51,-284.85
1826,1715532656800,0.71,-1.05,4.95,-273.25,-124.51,-284.85
1827,1715532656810,0.71,-1.05,4.95,-273.25,-124.51,-284.85
1828,1715532656820,0.71,-1.05,4.95,-273.25,-124.51,-284.85
1829,1715532656830,0.71,-1.05,4.95,-273.25,-124.51,-284.85
1830,1715532656840,0.71,-1.05,4.95,-273.25,-124.51,-284.85
1831,1715532656850,0.71,-1.05,4.95,-273.25,-124.51,-284.85
1832,1715532656860,0.71,-1.05,4.95,-273.25,-124.51,-284.85
1833,1715532656870,0.71,-1.05,4.95,-273.25,-124.51,-284.85
1834,1715532656880,0.27666666666666667,-0.7000000000000001,3.973333333333333,-250.20000000000002,-93.2,-275.61333333333334
1835,1715532656890,-0.59,0.0,2.02,-204.1,-30.58,-257.14
1836,1715532656900,-0.57,0.41,1.6499999999999997,-143.98,-30.94,-186.52
1837,1715532656910,-0.57,0.41,1.65,-143.98,-30.94,-186.52
1838,1715532656920,-0.57,0.41,1.6499999999999997,-143.98,-30.94,-186.52
1839,1715532656930,-0.57,0.41,1.65,-143.98,-30.94,-186.52
1840,1715532656940,-0.62,0.82,0.79,-70.25,31.62,-119.87
1841,1715532656950,-0.62,0.82,0.79,-70.25,31.62,-119.87
1842,1715532656960,-0.62,0.82,0.79,-70.25,31.62,-119.87
1843,1715532656970,-0.6733333333333333,0.8366666666666666,0.66,-46.346666666666664,42.91,-104.85666666666667
1844,1715532656980,-0.78,0.87,0.4,1.46,65.49,-74.83
1845,1715532656990,-0.7799999999999999,0.87,0.4000000000000001,1.46,65.49,-74.83
1846,1715532657000,-0.78,0.87,0.4,1.46,65.49,-74.83
1847,1715532657010,-0.6533333333333333,0.8433333333333333,0.43333333333333335,67.54666666666667,78.71666666666665,-29.136666666666667
1848,1715532657020,-0.59,0.83,0.45,100.58999999999999,85.33,-6.29
1849,1715532657030,-0.59,0.83,0.45,100.59,85.33,-6.29
1850,1715532657040,-0.59,0.83,0.45,100.58999999999999,85.33,-6.29
1851,1715532657050,-0.44333333333333336,0.8433333333333333,0.9366666666666665,132.53,108.23666666666666,-9.99
1852,1715532657060,-0.37,0.85,1.18,148.5,119.69,-11.84
1853,1715532657070,-0.36999999999999994,0.85,1.18,148.5,119.69,-11.839999999999998
1854,1715532657080,-0.37,0.85,1.18,148.5,119.69,-11.84
1855,1715532657090,-0.31,0.49,3.5499999999999994,204.65,66.04,31.01
1856,1715532657100,-0.31,0.49,3.55,204.65,66.04,31.01
1857,1715532657110,-0.31,0.49,3.5499999999999994,204.65,66.04,31.01
1858,1715532657120,-0.31,0.49,3.55,204.65,66.04,31.01
1859,1715532657130,-0.31,0.49,3.5499999999999994,204.65,66.04,31.01
1860,1715532657140,-0.31,0.49,3.5499999999999994,204.65,66.04,31.01
1861,1715532657150,-0.31,0.49,3.5499999999999994,204.65,66.04,31.01
1862,1715532657160,-0.31,0.49,3.55,204.65,66.04,31.01
1863,1715532657170,-0.31,0.49,3.55,204.65,66.04,31.01
1864,1715532657180,-0.31,0.49,3.5499999999999994,204.65,66.04,31.01
1865,1715532657190,-0.31,0.49,3.55,204.65,66.04,31.01
1866,1715532657200,-0.31,0.49,3.5499999999999994,204.65,66.04,31.01
1867,1715532657210,0.1666666666666667,0.21,2.8333333333333335,210.04333333333332,34.24,25.413333333333338
1868,1715532657220,1.12,-0.3499999999999999,1.3999999999999997,220.83,-29.36,14.22
1869,1715532657230,1.12,-0.35,1.4,220.83,-29.36,14.22
1870,1715532657240,0.9100000000000001,-0.43,0.9133333333333332,167.34,-15.503333333333332,1.6866666666666674
1871,1715532657250,0.49,-0.59,-0.06,60.36,12.21,-23.38
1872,1715532657260,0.49,-0.59,-0.06,60.35999999999999,12.21,-23.38
1873,1715532657270,0.49,-0.59,-0.06,60.36,12.21,-23.38
1874,1715532657280,0.2575,-0.635,-0.47250000000000003,-8.715,-61.4925,-28.2325
1875,1715532657290,0.18000000000000002,-0.65,-0.61,-31.74,-86.06,-29.850000000000005
1876,1715532657300,0.18,-0.65,-0.61,-31.74,-86.06,-29.85
