id,timestamp,acc_x,acc_y,acc_z,gyro_x,gyro_y,gyro_z
0,1715532331390,-0.87,0.2,1.59,6.59,15.87,33.75
1,1715532331400,-0.8175,0.10250000000000001,1.3425,-14.740000000000002,13.6725,107.6325
2,1715532331410,-0.8000000000000002,0.07,1.26,-21.850000000000005,12.94,132.26
3,1715532331420,-0.8000000000000002,0.07,1.26,-21.850000000000005,12.94,132.26
4,1715532331430,-0.64,0.054000000000000006,1.3279999999999998,-21.85,12.940000000000001,132.26
5,1715532331440,-0.4000000000000001,0.03,1.43,129.94,11.11,198.61
6,1715532331450,-0.4000000000000001,0.03,1.43,129.94,11.11,198.61
7,1715532331460,-0.4,0.03,1.43,129.94,11.11,198.61
8,1715532331470,-0.24000000000000002,-0.145,1.3099999999999998,158.75,43.945,206.05499999999998
9,1715532331480,-0.08,-0.32,1.19,187.56000000000003,76.78,213.5
10,1715532331490,-0.08,-0.32,1.19,187.56,76.78,213.5
11,1715532331500,-0.08,-0.32,1.19,187.56000000000003,76.78,213.5
12,1715532331510,0.12,-0.5283333333333333,0.9233333333333333,288.9266666666667,34.155,222.75833333333335
13,1715532331520,0.16,-0.57,0.8699999999999999,309.2,25.630000000000003,224.61000000000004
14,1715532331530,0.16,-0.57,0.87,309.2,25.63,224.61
15,1715532331540,0.16,-0.57,0.8699999999999999,309.2,25.630000000000003,224.61000000000004
16,1715532331550,0.16,-0.57,0.87,309.2,25.63,224.61
17,1715532331560,0.16,-0.57,0.8699999999999999,309.2,25.630000000000003,224.61000000000004
18,1715532331570,0.16,-0.57,0.8699999999999999,309.2,25.630000000000003,224.61000000000004
19,1715532331580,0.16,-0.57,0.87,309.2,25.63,224.61
20,1715532331590,0.16,-0.57,0.8699999999999999,309.2,25.630000000000003,224.61000000000004
21,1715532331600,0.16,-0.57,0.8699999999999999,309.2,25.630000000000003,224.61000000000004
22,1715532331610,0.16,-0.57,0.8699999999999999,309.2,25.630000000000003,224.61000000000004
23,1715532331620,0.16,-0.57,0.87,309.2,25.63,224.61
24,1715532331630,-0.182,-1.404,1.124,117.918,-1.7479999999999998,5.186
25,1715532331640,-0.19,-1.7600000000000002,1.21,88.62,7.2,-8.18
26,1715532331650,-0.19,-1.7600000000000002,1.21,88.62,7.2,-8.18
27,1715532331660,-0.1475,-1.445,0.9099999999999999,35.17,-4.9,-1.0999999999999996
28,1715532331670,-0.02,-0.5,0.01,-125.18000000000002,-41.2,20.14
29,1715532331680,-0.02,-0.5,0.01,-125.18000000000002,-41.2,20.14
30,1715532331690,-0.02,-0.5,0.01,-125.18,-41.2,20.14
31,1715532331700,-0.02,-0.5,0.01,-125.18,-41.2,20.14
32,1715532331710,0.66,-0.6,0.62,-226.5,-158.63,-78.74
33,1715532331720,0.66,-0.6,0.62,-226.5,-158.63,-78.74
34,1715532331730,0.66,-0.6,0.62,-226.5,-158.63,-78.74
35,1715532331740,0.66,-0.6,0.62,-226.5,-158.63,-78.74
36,1715532331750,0.66,-0.6,0.62,-226.5,-158.63,-78.74
37,1715532331760,0.66,-0.6,0.62,-226.5,-158.63,-78.74
38,1715532331770,0.66,-0.6,0.62,-226.5,-158.63,-78.74
39,1715532331780,0.66,-0.6,0.62,-226.5,-158.63,-78.74
40,1715532331790,0.66,-0.6,0.62,-226.5,-158.63,-78.74
41,1715532331800,0.66,-0.6,0.62,-226.5,-158.63,-78.74
42,1715532331810,0.66,-0.6,0.62,-226.5,-158.63,-78.74
43,1715532331820,0.4575,-0.6975,0.815,-226.91250000000002,-91.7975,-182.33
44,1715532331830,0.39,-0.73,0.88,-227.05,-69.52,-216.86
45,1715532331840,0.39,-0.73,0.88,-227.05,-69.52,-216.86
46,1715532331850,0.34750000000000003,-0.6174999999999999,1.06,-229.05,-87.25,-224.01500000000001
47,1715532331860,0.22,-0.28,1.6,-235.05,-140.44,-245.48
48,1715532331870,0.22,-0.28,1.6,-235.05,-140.44,-245.48
49,1715532331880,0.22,-0.28,1.6,-235.05,-140.44,-245.48
50,1715532331890,-0.25,-0.485,2.335,-235.05,-140.44,-245.48
51,1715532331900,-0.72,-0.69,3.07,-232.24,-53.83,-226.75
52,1715532331910,-0.72,-0.69,3.07,-232.24,-53.83,-226.75
53,1715532331920,-0.72,-0.69,3.07,-232.24,-53.83,-226.75
54,1715532331930,-0.88,-0.46499999999999997,3.44,-157.715,-46.295,-181.03
55,1715532331940,-1.04,-0.24,3.81,-83.19,-38.76,-135.31
56,1715532331950,-1.04,-0.24,3.81,-83.19,-38.76,-135.31
57,1715532331960,-1.04,-0.24,3.81,-83.19,-38.76,-135.31
58,1715532331970,-1.3625,-0.06,2.3175,-48.155,16.205000000000002,-58.38
59,1715532331980,-1.47,0.0,1.82,-13.12,71.17,18.55
60,1715532331990,-1.47,0.0,1.82,-13.12,71.17,18.55
61,1715532332000,-1.47,0.0,1.82,-13.12,71.17,18.55
62,1715532332010,-0.78,0.02,2.18,81.41,25.892500000000002,112.075
63,1715532332020,-0.78,0.02,2.18,112.92,10.8,143.25
64,1715532332030,-0.78,0.02,2.18,112.92,10.8,143.25
65,1715532332040,-0.78,0.02,2.18,112.92,10.8,143.25
66,1715532332050,-0.41,-0.3,1.92,151.31,107.3,224.37
67,1715532332060,-0.41,-0.3,1.92,151.31,107.3,224.37
68,1715532332070,-0.41,-0.3,1.92,151.31,107.3,224.37
69,1715532332080,-0.41,-0.3,1.92,151.31,107.3,224.37
70,1715532332090,-0.41,-0.3,1.92,151.31,107.3,224.37
71,1715532332100,-0.41,-0.3,1.92,151.31,107.3,224.37
72,1715532332110,-0.41,-0.3,1.92,151.31,107.3,224.37
73,1715532332120,-0.41,-0.3,1.92,151.31,107.3,224.37
74,1715532332130,-0.41,-0.3,1.92,151.31,107.3,224.37
75,1715532332140,-0.41,-0.3,1.92,151.31,107.3,224.37
76,1715532332150,0.05500000000000002,-0.535,1.705,223.725,176.725,253.94
77,1715532332160,0.3625,-0.9650000000000001,1.2275,358.885,188.72,288.76
78,1715532332170,0.31,-1.03,1.14,421.63,131.29,294.01
79,1715532332180,0.31,-1.03,1.14,421.63,131.29,294.01
80,1715532332190,0.31,-1.03,1.14,421.62999999999994,131.29,294.01
81,1715532332200,0.24,-0.55,1.165,450.16499999999996,62.224999999999994,240.635
82,1715532332210,0.17,-0.07,1.19,478.7,-6.84,187.26
83,1715532332220,0.17,-0.07,1.19,478.7,-6.84,187.26
84,1715532332230,0.17,-0.07,1.19,478.7,-6.84,187.26
85,1715532332240,0.10000000000000002,-0.38999999999999996,1.54,211.17999999999998,-14.22,41.93
86,1715532332250,0.1,-0.39,1.54,211.18,-14.22,41.93
87,1715532332260,0.1,-0.39,1.54,211.18,-14.22,41.93
88,1715532332270,0.1,-0.39,1.54,211.18,-14.22,41.93
89,1715532332280,0.1,-0.39,1.54,211.18,-14.220000000000002,41.93
90,1715532332290,0.10000000000000002,-0.38999999999999996,1.54,211.17999999999998,-14.22,41.93
91,1715532332300,0.1,-0.39,1.54,211.18,-14.22,41.93
92,1715532332310,0.1,-0.39,1.54,211.18,-14.220000000000002,41.93
93,1715532332320,0.1,-0.39,1.54,211.18,-14.22,41.93
94,1715532332330,0.1,-0.39,1.54,211.18,-14.22,41.93
95,1715532332340,0.21500000000000002,-0.455,0.8200000000000001,39.55,-55.205,40.010000000000005
96,1715532332350,0.41000000000000003,-0.675,0.29,-231.78000000000003,-78.4,-0.8499999999999979
97,1715532332360,0.49,-0.83,0.48,-331.48,-60.61,-39.79
98,1715532332370,0.49,-0.83,0.48,-331.48,-60.61,-39.79
99,1715532332380,0.49,-0.83,0.48,-331.48,-60.61,-39.79
100,1715532332390,0.65,-0.9199999999999999,0.5449999999999999,-351.685,-78.675,-58.650000000000006
101,1715532332400,0.81,-1.01,0.61,-371.89,-96.74,-77.51
102,1715532332410,0.81,-1.01,0.61,-371.89,-96.74,-77.51
103,1715532332420,0.81,-1.01,0.61,-371.89000000000004,-96.74,-77.51
104,1715532332430,0.8775000000000001,-0.7849999999999999,0.94,-338.605,-106.31,-109.6925
105,1715532332440,0.9,-0.71,1.05,-327.51,-109.5,-120.42
106,1715532332450,0.9,-0.71,1.05,-327.51,-109.5,-120.42
107,1715532332460,0.9,-0.71,1.05,-327.51,-109.5,-120.42
108,1715532332470,0.79,-0.39,0.93,-342.1,-4.21,-215.39
109,1715532332480,0.79,-0.38999999999999996,0.93,-342.1000000000001,-4.21,-215.39
110,1715532332490,0.79,-0.39,0.93,-342.1,-4.21,-215.39
111,1715532332500,0.79,-0.39,0.93,-342.1,-4.21,-215.39
112,1715532332510,0.52,-0.66,1.36,-323.0,-86.85,-315.92
113,1715532332520,0.52,-0.66,1.36,-323.0,-86.85,-315.92
114,1715532332530,0.52,-0.66,1.36,-323.0,-86.84999999999998,-315.92
115,1715532332540,0.386,-0.784,1.8980000000000001,-323.0,-86.85,-315.92
116,1715532332550,-0.15,-1.28,4.05,-230.9,-202.44999999999996,-293.76
117,1715532332560,-0.15,-1.28,4.05,-230.9,-202.45,-293.76
118,1715532332570,-0.15,-1.28,4.05,-230.9,-202.45,-293.76
119,1715532332580,-0.15,-1.28,4.05,-230.9,-202.45,-293.76
120,1715532332590,-0.15,-1.28,4.05,-230.9,-202.45,-293.76
121,1715532332600,-0.15,-1.28,4.05,-230.9,-202.45,-293.76
122,1715532332610,-0.15,-1.28,4.05,-230.9,-202.45,-293.76
123,1715532332620,-0.15,-1.28,4.05,-230.9,-202.45,-293.76
124,1715532332630,-0.15,-1.28,4.05,-230.9,-202.45,-293.76
125,1715532332640,-0.15,-1.28,4.05,-230.9,-202.45,-293.76
126,1715532332650,-0.15,-1.28,4.05,-230.9,-202.45,-293.76
127,1715532332660,-0.15,-1.28,4.05,-230.9,-202.45,-293.76
128,1715532332670,-0.5275,-1.01,3.6875,-154.53,-143.2775,-183.715
129,1715532332680,-1.66,-0.2,2.6,74.58,34.24,146.42
130,1715532332690,-1.66,-0.2,2.6,74.58,34.24,146.42
131,1715532332700,-1.2133333333333332,-0.2333333333333333,2.26,152.74666666666667,59.833333333333336,216.36666666666667
132,1715532332710,-0.99,-0.25,2.09,191.83,72.63,251.34
133,1715532332720,-0.99,-0.25,2.09,191.83,72.63,251.34
134,1715532332730,-0.99,-0.25,2.09,191.83,72.63,251.34
135,1715532332740,0.09,-0.86,1.64,296.75,109.25,381.84
136,1715532332750,0.09000000000000001,-0.86,1.64,296.75,109.25,381.84
137,1715532332760,0.09,-0.86,1.64,296.75,109.25,381.84
138,1715532332770,0.09,-0.86,1.64,296.75,109.25,381.84
139,1715532332780,0.94,-0.93,0.96,435.0,105.71,372.13
140,1715532332790,0.94,-0.93,0.96,435.0,105.71,372.13
141,1715532332800,0.94,-0.93,0.96,435.0,105.71,372.12999999999994
142,1715532332810,0.94,-0.93,0.96,435.0,105.71,372.13
143,1715532332820,0.94,-0.93,0.96,435.0,105.71,372.13
144,1715532332830,0.94,-0.93,0.96,435.0,105.71,372.13
145,1715532332840,0.94,-0.93,0.96,435.0,105.71,372.13
146,1715532332850,0.94,-0.93,0.96,435.0,105.71,372.12999999999994
147,1715532332860,0.94,-0.93,0.96,435.0,105.71,372.13
148,1715532332870,0.69,-0.31,0.62,426.7,34.0,179.57
149,1715532332880,0.69,-0.31,0.62,426.7,34.0,179.57
150,1715532332890,0.585,-0.125,0.7849999999999999,312.16499999999996,36.59,80.815
151,1715532332900,0.48,0.06,0.95,197.63,39.18,-17.94
152,1715532332910,0.48,0.06,0.95,197.63,39.18,-17.94
153,1715532332920,0.48,0.06,0.95,197.63,39.18,-17.94
154,1715532332930,0.48,0.06,0.95,197.63,39.18,-17.94
155,1715532332940,0.022499999999999992,-1.2675,1.145,-49.105,162.2775,-95.0775
156,1715532332950,-0.13,-1.71,1.21,-131.35,203.31,-120.79
157,1715532332960,-0.13,-1.71,1.21,-131.35,203.31,-120.79
158,1715532332970,0.13,-0.7,-0.03,-57.62,-14.28,32.47
159,1715532332980,0.13,-0.6999999999999998,-0.03,-57.62,-14.28,32.47
160,1715532332990,0.13,-0.7,-0.03,-57.61999999999999,-14.279999999999998,32.47
161,1715532333000,0.13,-0.7,-0.03,-57.62,-14.28,32.47
162,1715532333010,0.13,-0.7,-0.03,-57.62,-14.28,32.47
163,1715532333020,0.58,-0.35,1.02,-306.58,-73.3,-102.84
164,1715532333030,0.58,-0.35,1.02,-306.58,-73.3,-102.84
165,1715532333040,0.58,-0.3499999999999999,1.02,-306.58,-73.3,-102.83999999999999
166,1715532333050,0.25,-1.13,1.0,-458.5,74.34,-246.58
167,1715532333060,0.25,-1.13,1.0,-458.5,74.34,-246.58
168,1715532333070,0.25,-1.13,1.0,-458.5,74.34,-246.58
169,1715532333080,0.26,-1.1199999999999999,0.9933333333333333,-411.84666666666664,29.25666666666667,-244.07666666666668
170,1715532333090,0.28,-1.1,0.98,-318.54,-60.91,-239.07
171,1715532333100,0.28,-1.1,0.9800000000000001,-318.54,-60.90999999999999,-239.07
172,1715532333110,0.28,-1.1,0.98,-318.54,-60.91,-239.07000000000002
173,1715532333120,0.28,-1.1,0.98,-318.54,-60.91,-239.07
174,1715532333130,0.28,-1.1,0.98,-318.54,-60.91,-239.07
175,1715532333140,0.28,-1.1,0.98,-318.54,-60.91,-239.07
176,1715532333150,0.28,-1.1,0.98,-318.54,-60.91,-239.07000000000002
177,1715532333160,0.28,-1.1,0.98,-318.54,-60.91,-239.07
178,1715532333170,0.28,-1.1,0.98,-318.54,-60.91,-239.07
179,1715532333180,0.28,-1.1,0.98,-318.54,-60.91,-239.07
180,1715532333190,0.28,-1.1,0.98,-318.54,-60.91,-239.07
181,1715532333200,0.11500000000000002,-0.7450000000000001,1.3599999999999999,-236.51000000000002,-94.375,-239.7575
182,1715532333210,-0.05,-0.39,1.74,-98.27,-242.31,-247.86
183,1715532333220,-0.05,-0.39,1.74,-98.27,-242.31,-247.86
184,1715532333230,-0.05,-0.39,1.74,-98.27,-242.31,-247.86
185,1715532333240,-0.35333333333333333,-0.5733333333333334,2.4233333333333333,-155.90666666666667,-179.20000000000002,-277.84999999999997
186,1715532333250,-0.96,-0.94,3.79,-271.18,-52.98,-337.83
187,1715532333260,-0.96,-0.94,3.79,-271.18,-52.98,-337.83
188,1715532333270,-1.1,-0.9719999999999999,3.7299999999999995,-271.18,-52.98,-337.83
189,1715532333280,-1.66,-1.1,3.49,-79.56666666666668,-82.48,-184.26333333333332
190,1715532333290,-1.66,-1.1,3.49,16.24,-97.23,-107.48
191,1715532333300,-1.66,-1.1,3.49,16.24,-97.23,-107.48
192,1715532333310,-1.66,-1.1,3.49,16.24,-97.23,-107.48
193,1715532333320,-1.66,-1.1,3.49,16.24,-97.23,-107.48
194,1715532333330,-1.66,-1.1,3.49,16.24,-97.23,-107.48
195,1715532333340,-1.66,-1.1,3.49,16.24,-97.23,-107.48
196,1715532333350,-1.66,-1.1,3.49,16.24,-97.23,-107.48
197,1715532333360,-1.66,-1.1,3.49,16.24,-97.23,-107.48
198,1715532333370,-1.66,-1.1,3.49,16.24,-97.23,-107.48
199,1715532333380,-1.66,-1.1,3.49,16.24,-97.23,-107.48
200,1715532333390,-0.8574999999999999,-0.7625000000000001,2.57,84.1075,39.9325,131.15249999999997
201,1715532333400,-0.39,-0.66,2.11,158.33,82.76,291.75
202,1715532333410,-0.39,-0.66,2.11,158.33,82.76,291.75
203,1715532333420,-0.38999999999999996,-0.66,2.11,158.33,82.76,291.75
204,1715532333430,0.11999999999999998,-0.6825,1.6225,158.33,82.76,291.75
205,1715532333440,0.29,-0.69,1.46,191.6075,148.73,326.0775
206,1715532333450,0.29,-0.69,1.46,202.7,170.72,337.52
207,1715532333460,0.29,-0.69,1.46,202.7,170.72,337.52
208,1715532333470,0.58,-1.04,0.82,268.92,171.2,362.79
209,1715532333480,0.58,-1.04,0.82,268.92,171.2,362.79
210,1715532333490,0.58,-1.04,0.82,268.92,171.19999999999996,362.79
211,1715532333500,0.58,-1.04,0.82,268.92,171.2,362.79
212,1715532333510,0.61,-1.04,0.61,342.35,120.06,320.56
213,1715532333520,0.61,-1.04,0.61,342.35,120.06,320.56
214,1715532333530,0.61,-1.04,0.61,342.3500000000001,120.06,320.56
215,1715532333540,0.61,-1.04,0.61,342.35,120.06,320.56
216,1715532333550,0.44,-0.81,0.49,337.07000000000005,71.415,310.18
217,1715532333560,0.27,-0.58,0.37,331.79,22.77,299.8
218,1715532333570,0.27,-0.58,0.37,331.79,22.77,299.8
219,1715532333580,0.125,0.025000000000000022,0.445,293.55,-36.465,260.13
220,1715532333590,-0.02,0.63,0.52,255.31,-95.7,220.46
221,1715532333600,-0.02,0.63,0.52,255.31,-95.7,220.46
222,1715532333610,-0.02,0.63,0.52,255.31,-95.7,220.46
223,1715532333620,-0.02,-0.020000000000000018,1.24,170.99,-59.57,79.19500000000001
224,1715532333630,-0.02,-0.67,1.96,86.67,-23.44,-62.07
225,1715532333640,-0.02,-0.67,1.96,86.67,-23.44,-62.07
226,1715532333650,-0.02,-0.67,1.96,86.67,-23.44,-62.07
227,1715532333660,-0.02,-0.67,1.96,86.67,-23.44,-62.07
228,1715532333670,-0.02,-0.67,1.9600000000000002,86.67,-23.44,-62.07000000000001
229,1715532333680,-0.02,-0.67,1.96,86.67,-23.44,-62.07
230,1715532333690,-0.02,-0.67,1.96,86.67,-23.44,-62.07
231,1715532333700,-0.02,-0.67,1.96,86.67,-23.44,-62.07
232,1715532333710,-0.02,-0.67,1.96,86.67,-23.44,-62.07
233,1715532333720,0.05500000000000001,-0.5475,1.505,17.974999999999994,-24.5375,-65.3825
234,1715532333730,0.3075,-0.3925,0.2025,-218.995,-30.9425,-99.0
235,1715532333740,0.38999999999999996,-1.03,0.38999999999999996,-311.65,-40.28,-170.04
236,1715532333750,0.39,-1.03,0.39,-311.65,-40.28,-170.04
237,1715532333760,0.39,-1.03,0.39,-311.65,-40.28,-170.04
238,1715532333770,0.51,-0.915,0.52,-328.4,-49.835,-175.655
239,1715532333780,0.63,-0.8,0.65,-345.15,-59.39,-181.27
240,1715532333790,0.63,-0.8,0.65,-345.15,-59.39,-181.27
241,1715532333800,0.63,-0.8,0.65,-345.15,-59.39,-181.27
242,1715532333810,0.5549999999999999,-0.79,0.935,-324.28,-44.04,-213.10000000000002
243,1715532333820,0.48,-0.78,1.22,-303.41,-28.69,-244.93
244,1715532333830,0.48,-0.78,1.22,-303.41,-28.69,-244.93
245,1715532333840,0.48,-0.78,1.22,-303.41,-28.69,-244.93
246,1715532333850,0.48,-0.78,1.22,-303.41,-28.69,-244.93
247,1715532333860,0.48,-0.78,1.22,-303.41,-28.69,-244.93
248,1715532333870,0.48,-0.78,1.22,-303.41,-28.69,-244.93
249,1715532333880,0.48,-0.78,1.22,-303.41,-28.69,-244.93
250,1715532333890,0.48,-0.78,1.22,-303.41,-28.69,-244.93
251,1715532333900,0.48,-0.78,1.22,-303.41,-28.69,-244.93
252,1715532333910,0.3775,-0.7125,1.315,-290.56,-26.615000000000002,-255.81
253,1715532333920,0.07,-0.51,1.6,-252.01,-20.39,-288.45
254,1715532333930,-0.92,-1.21,2.84,-270.8725,-3.1775,-328.7325
255,1715532333940,-0.92,-1.21,2.84,-277.16,2.56,-342.16
256,1715532333950,-0.92,-1.21,2.84,-277.16,2.56,-342.16
257,1715532333960,-0.9200000000000002,-1.21,2.84,-277.16,2.56,-342.16
258,1715532333970,-1.39,-1.6499999999999997,3.97,-40.1,-11.78,-153.14
259,1715532333980,-1.39,-1.65,3.97,-40.1,-11.78,-153.14
260,1715532333990,-1.39,-1.65,3.97,-40.1,-11.78,-153.14
261,1715532334000,-1.4799999999999998,-1.24,3.266666666666667,-37.373333333333335,35.663333333333334,-115.31666666666666
262,1715532334010,-1.66,-0.42,1.86,-31.92,130.55,-39.67
263,1715532334020,-1.66,-0.42,1.86,-31.92,130.55,-39.67
264,1715532334030,-1.66,-0.42,1.86,-31.92,130.55,-39.67
265,1715532334040,-1.565,-0.46249999999999997,1.9400000000000002,-31.92,130.55,-39.67
266,1715532334050,-1.28,-0.59,2.18,10.986666666666665,70.63666666666667,4.436666666666667
267,1715532334060,-1.28,-0.59,2.18,96.8,-49.19,92.65
268,1715532334070,-1.28,-0.59,2.18,96.8,-49.19,92.65
269,1715532334080,-1.1325,-0.515,2.0425,104.705,-23.205,120.69500000000001
270,1715532334090,-0.69,-0.29,1.63,128.42,54.75,204.83
271,1715532334100,-0.69,-0.29,1.63,128.42,54.75,204.83
272,1715532334110,-0.69,-0.29,1.63,128.42,54.75,204.83
273,1715532334120,-0.3433333333333333,-0.37666666666666665,1.25,166.29999999999998,32.89666666666667,243.9766666666667
274,1715532334130,-0.17,-0.42000000000000004,1.06,185.24,21.97,263.55
275,1715532334140,-0.17,-0.42,1.06,185.24,21.97,263.55
276,1715532334150,-0.17,-0.42,1.06,185.24,21.97,263.55
277,1715532334160,-0.17,-0.42000000000000004,1.06,185.24,21.97,263.55
278,1715532334170,-0.17,-0.42,1.06,185.24,21.97,263.55
279,1715532334180,-0.17,-0.42,1.06,185.24,21.97,263.55
280,1715532334190,-0.17,-0.42,1.06,185.24,21.97,263.55
281,1715532334200,-0.17,-0.42,1.06,185.24,21.97,263.55
282,1715532334210,-0.17,-0.42,1.06,185.24,21.97,263.55
283,1715532334220,-0.17,-0.42,1.06,185.24,21.97,263.55
284,1715532334230,-0.17,-0.42,1.06,185.24,21.97,263.55
285,1715532334240,-0.17,-0.42,1.06,185.24,21.97,263.55
286,1715532334250,0.1225,-0.7375,0.91,263.4875,94.9075,304.49
287,1715532334260,0.12,-0.71,0.75,305.66,96.98,321.96
288,1715532334270,-0.0050000000000000044,-0.43,0.7175,305.66,96.98,321.96
289,1715532334280,-0.38,0.41,0.62,272.16,32.78,254.39
290,1715532334290,-0.38,0.41,0.62,272.16,32.78,254.39
291,1715532334300,-0.38000000000000006,0.41,0.62,272.16,32.78,254.39
292,1715532334310,-0.32,-0.24000000000000002,1.4000000000000001,201.39000000000001,-35.125,110.89999999999999
293,1715532334320,-0.26,-0.89,2.18,130.62,-103.03,-32.59
294,1715532334330,-0.26,-0.89,2.18,130.62,-103.03,-32.59
295,1715532334340,-0.26,-0.89,2.18,130.62,-103.03,-32.59
296,1715532334350,-0.1925,-0.8075,1.0775000000000001,82.89,-16.725,16.604999999999997
297,1715532334360,-0.17,-0.7799999999999999,0.71,35.16,69.58,65.8
298,1715532334370,-0.17,-0.78,0.71,35.16,69.58,65.8
299,1715532334380,-0.17,-0.78,0.71,35.16,69.58,65.8
300,1715532334390,-0.17,-0.78,0.71,35.16,69.58,65.8
301,1715532334400,-0.17,-0.78,0.71,35.16,69.58,65.8
302,1715532334410,-0.17,-0.78,0.71,35.16,69.58,65.8
303,1715532334420,-0.17,-0.7799999999999999,0.71,35.16,69.58,65.8
304,1715532334430,-0.17,-0.78,0.71,35.16,69.58,65.8
305,1715532334440,0.10750000000000001,-0.63,0.605,-104.91750000000002,-56.3525,-47.36
306,1715532334450,0.20000000000000004,-0.58,0.57,-151.61,-98.33,-85.08
307,1715532334460,0.2,-0.58,0.57,-151.61,-98.33,-85.08
308,1715532334470,0.20000000000000004,-0.58,0.57,-151.61,-98.33,-85.08
309,1715532334480,0.23,-0.34,0.66,-180.11,-48.28,-72.39
310,1715532334490,0.23,-0.34,0.66,-180.11,-48.28,-72.39
311,1715532334500,0.225,-0.2725,0.6950000000000001,-154.75,-49.5925,-81.91
312,1715532334510,0.21,-0.07,0.8,-78.67,-53.53,-110.47
313,1715532334520,0.21,-0.07,0.8,-78.67,-53.53,-110.47
314,1715532334530,0.21,-0.07,0.8,-78.67,-53.53,-110.47
315,1715532334540,0.235,0.05249999999999999,0.8775000000000001,-84.195,-41.5525,-117.49000000000001
316,1715532334550,0.31,0.42,1.11,-100.77,-5.62,-138.55
317,1715532334560,0.31,0.42,1.11,-100.77,-5.62,-138.55
318,1715532334570,0.31,0.42,1.11,-100.77,-5.62,-138.55
319,1715532334580,-0.12000000000000002,0.44499999999999995,0.775,-90.945,18.064999999999998,-170.26
320,1715532334590,-0.55,0.47,0.44,-81.12,41.75,-201.97
321,1715532334600,-0.55,0.47,0.44,-81.12,41.75,-201.97
322,1715532334610,-0.55,0.4699999999999999,0.44000000000000006,-81.12,41.75,-201.97
323,1715532334620,-0.41,0.91,2.47,-128.44,-44.43,-227.15666666666667
324,1715532334630,-0.41,0.9099999999999999,2.47,-152.1,-87.52,-239.75
325,1715532334640,-0.41,0.91,2.47,-152.1,-87.52,-239.75
326,1715532334650,-0.41,0.91,2.47,-152.1,-87.52,-239.75
327,1715532334660,-1.08,-0.47,3.09,-155.49,73.33250000000001,-189.9425
328,1715532334670,-1.08,-0.47,3.09,-156.62,126.95,-173.34
329,1715532334680,-1.08,-0.47,3.09,-156.62,126.95,-173.34
330,1715532334690,-1.08,-0.47,3.09,-156.62,126.95,-173.34
331,1715532334700,-1.08,-0.47,3.09,-156.62,126.95,-173.34
332,1715532334710,-1.08,-0.47,3.09,-156.62,126.95,-173.34
333,1715532334720,-1.08,-0.47,3.09,-156.62,126.95,-173.34
334,1715532334730,-1.08,-0.47,3.09,-156.62,126.95,-173.34
335,1715532334740,-1.08,-0.47,3.09,-156.62,126.95,-173.34
336,1715532334750,-1.08,-0.47,3.09,-156.62,126.95,-173.34
337,1715532334760,-1.08,-0.47,3.09,-156.62,126.95,-173.34
338,1715532334770,-1.0150000000000001,-0.1425,2.6999999999999997,-132.525,98.935,-97.6575
339,1715532334780,-0.82,0.84,1.53,-60.24,14.89,129.39
340,1715532334790,-0.82,0.84,1.53,-60.24,14.89,129.39
341,1715532334800,-0.82,0.84,1.53,-60.24,14.89,129.39
342,1715532334810,-0.5549999999999999,0.7,1.3,-60.24,14.89,129.39
343,1715532334820,-0.29,0.56,1.07,164.43,-46.75,202.09
344,1715532334830,-0.29,0.56,1.07,164.43,-46.75,202.09
345,1715532334840,-0.29,0.56,1.07,164.43,-46.75,202.09
346,1715532334850,0.002500000000000009,0.027500000000000017,0.995,191.865,-63.26,217.135
347,1715532334860,0.1,-0.15,0.97,219.3,-79.77,232.18
348,1715532334870,0.1,-0.15,0.97,219.3,-79.77,232.18
349,1715532334880,0.10000000000000002,-0.15,0.9700000000000001,219.30000000000004,-79.77,232.17999999999998
350,1715532334890,0.1,-0.15,0.97,219.3,-79.77,232.18
351,1715532334900,0.1,-0.15,0.97,219.3,-79.77,232.18
352,1715532334910,0.1,-0.15,0.97,219.3,-79.77,232.18
353,1715532334920,0.10000000000000002,-0.15,0.9700000000000001,219.30000000000004,-79.77,232.17999999999998
354,1715532334930,0.1,-0.15,0.97,219.3,-79.77,232.18
355,1715532334940,0.1,-0.15,0.97,219.3,-79.77,232.18
356,1715532334950,0.10000000000000002,-0.15,0.9700000000000001,219.30000000000004,-79.77,232.17999999999998
357,1715532334960,0.1475,0.0325,0.9425,225.41750000000002,-53.265,218.69
358,1715532334970,0.29,0.58,0.86,243.77,26.25,178.22
359,1715532334980,0.29,0.58,0.86,264.34,-98.45,82.52
360,1715532334990,0.29,0.58,0.86,264.34,-98.45,82.52
361,1715532335000,0.29,0.58,0.86,264.34,-98.45,82.52
362,1715532335010,0.3825,0.3075,1.2000000000000002,213.55999999999997,-102.89,42.2675
363,1715532335020,0.66,-0.51,2.22,61.22,-116.21,-78.49
364,1715532335030,0.66,-0.51,2.22,61.22,-116.21,-78.49
365,1715532335040,0.39,-0.47,1.73,18.799999999999997,-25.754999999999995,-50.019999999999996
366,1715532335050,0.12,-0.43,1.24,-23.62,64.7,-21.55
367,1715532335060,0.12,-0.43,1.24,-23.62,64.7,-21.55
368,1715532335070,0.12,-0.43,1.24,-23.62,64.7,-21.55
369,1715532335080,0.075,-0.4375,0.7150000000000001,-150.6475,30.8675,-33.7675
370,1715532335090,0.06,-0.44,0.54,-192.99,19.59,-37.84
371,1715532335100,0.06,-0.44000000000000006,0.54,-192.99,19.59,-37.84
372,1715532335110,0.06,-0.44,0.54,-192.99,19.59,-37.84
373,1715532335120,0.156,-0.43600000000000005,0.72,-219.09,-0.8419999999999994,-38.648
374,1715532335130,0.3,-0.43,0.9899999999999999,-258.24,-31.49,-39.86
375,1715532335140,0.3,-0.43,0.99,-258.24,-31.49,-39.86
376,1715532335150,0.3,-0.43,0.99,-258.24,-31.49,-39.86
377,1715532335160,0.37,-0.14,0.74,-258.12,-33.51,-55.91
378,1715532335170,0.37,-0.14,0.74,-258.12,-33.51,-55.91
379,1715532335180,0.37,-0.14,0.74,-258.12,-33.51,-55.91
380,1715532335190,0.3525,-0.12250000000000001,0.7875,-249.88,-30.0,-65.7825
381,1715532335200,0.3,-0.07,0.93,-225.16,-19.47,-95.40000000000002
382,1715532335210,0.3,-0.07,0.93,-225.16,-19.47,-95.4
383,1715532335220,0.3,-0.07,0.93,-225.16,-19.47,-95.4
384,1715532335230,0.3,-0.07,0.93,-225.16,-19.47,-95.40000000000002
385,1715532335240,0.3,-0.07,0.93,-225.16,-19.47,-95.4
386,1715532335250,0.3,-0.07,0.93,-225.16,-19.47,-95.4
387,1715532335260,0.3,-0.07,0.93,-225.16,-19.47,-95.4
388,1715532335270,0.3,-0.07,0.93,-225.16,-19.47,-95.4
389,1715532335280,0.3,-0.07,0.93,-225.16,-19.47,-95.40000000000002
390,1715532335290,0.3,-0.07,0.93,-225.16,-19.47,-95.4
391,1715532335300,-0.01,0.53,0.63,-163.09,-34.73,-120.0
392,1715532335310,-0.004,0.446,1.8719999999999999,-187.038,-53.114,-131.66799999999998
393,1715532335320,0.0,0.38999999999999996,2.7000000000000006,-222.96,-80.69,-149.17
394,1715532335330,0.0,0.39,2.7,-222.96,-80.69,-149.17
395,1715532335340,0.0,0.39,2.7,-222.96,-80.69,-149.17
396,1715532335350,0.052500000000000005,0.5175000000000001,3.435,-163.695,-39.795,-132.295
397,1715532335360,0.07,0.56,3.68,-104.43,1.1,-115.42
398,1715532335370,0.07,0.56,3.68,-104.43,1.1,-115.42
399,1715532335380,0.07,0.56,3.68,-104.43,1.1,-115.42
400,1715532335390,-0.30500000000000005,0.775,2.935,-89.445,19.165,-89.265
401,1715532335400,-0.68,0.99,2.19,-74.46,37.23,-63.11
402,1715532335410,-0.68,0.99,2.19,-74.46,37.23,-63.11
403,1715532335420,-0.68,0.99,2.19,-74.46,37.23,-63.11
404,1715532335430,-0.68,0.99,2.19,-74.46,37.23,-63.11
405,1715532335440,-0.68,0.99,2.19,-74.46,37.23,-63.11
406,1715532335450,-0.68,0.9899999999999999,2.19,-74.46,37.23,-63.10999999999999
407,1715532335460,-0.68,0.99,2.19,-74.46,37.23,-63.11
408,1715532335470,-0.68,0.99,2.19,-74.46,37.23,-63.11
409,1715532335480,-0.68,0.9899999999999999,2.19,-74.46,37.23,-63.10999999999999
410,1715532335490,-0.365,0.72,1.9575,54.2175,11.0025,53.2075
411,1715532335500,-0.20500000000000002,0.325,1.39,115.205,11.965,103.19500000000001
412,1715532335510,-0.15,0.02,0.9,169.49,41.08,136.84
413,1715532335520,-0.15,0.02,0.9,169.49,41.08,136.84
414,1715532335530,-0.15,0.02,0.9,169.49,41.08,136.84
415,1715532335540,0.045,-0.11499999999999999,0.8400000000000001,230.16,33.54,152.22
416,1715532335550,0.24,-0.25,0.78,290.83,26.0,167.6
417,1715532335560,0.24,-0.25,0.78,290.83,26.0,167.6
418,1715532335570,0.24,-0.25,0.78,290.83,26.0,167.6
419,1715532335580,0.3225,-0.16,0.6675,293.46999999999997,36.1475,163.14499999999998
420,1715532335590,0.35,-0.13,0.63,301.39,66.59,149.78
421,1715532335600,0.35,-0.13,0.63,301.39,66.59,149.78
422,1715532335610,0.35,-0.13,0.63,301.39,66.59,149.78
423,1715532335620,0.06,-0.01,0.93,330.51,-12.76,121.21999999999998
424,1715532335630,0.06,-0.01,0.93,330.51,-12.76,121.22
425,1715532335640,0.06,-0.01,0.93,330.51,-12.76,121.22
426,1715532335650,0.06,-0.01,0.93,330.51,-12.76,121.22
427,1715532335660,0.4,1.1,1.54,245.36,-151.67,27.4
428,1715532335670,0.4,1.1,1.54,245.36,-151.67,27.4
429,1715532335680,0.4000000000000001,1.1,1.54,245.36,-151.67,27.399999999999995
430,1715532335690,0.4,1.1,1.54,245.36,-151.67,27.4
431,1715532335700,0.84,-0.94,2.53,127.135,-74.585,-48.22
432,1715532335710,0.84,-0.94,2.53,8.91,2.5,-123.84
433,1715532335720,0.84,-0.94,2.53,8.91,2.5,-123.84
434,1715532335730,0.84,-0.94,2.53,8.91,2.5,-123.84
435,1715532335740,0.84,-0.94,2.53,8.91,2.5,-123.84
436,1715532335750,0.84,-0.94,2.53,8.91,2.5,-123.83999999999999
437,1715532335760,0.84,-0.94,2.53,8.91,2.5,-123.84
438,1715532335770,0.84,-0.94,2.53,8.91,2.5,-123.83999999999999
439,1715532335780,0.84,-0.94,2.53,8.91,2.5,-123.84
440,1715532335790,0.84,-0.94,2.53,8.91,2.5,-123.84
441,1715532335800,0.84,-0.94,2.53,8.91,2.5,-123.84
442,1715532335810,0.84,-0.94,2.53,8.91,2.5,-123.84
443,1715532335820,0.48666666666666664,-0.7733333333333333,1.2566666666666666,-149.73666666666668,-16.38,-60.81333333333333
444,1715532335830,0.31,-0.69,0.62,-229.06,-25.82,-29.3
445,1715532335840,0.31,-0.69,0.62,-229.06,-25.82,-29.3
446,1715532335850,0.25,-0.5175,0.3875,-248.79250000000002,-42.2525,-39.6875
447,1715532335860,0.23,-0.46,0.31,-255.37,-47.73,-43.15
448,1715532335870,0.23,-0.46,0.31,-255.37,-47.73,-43.15
449,1715532335880,0.23,-0.46,0.31,-255.37,-47.73,-43.15
450,1715532335890,0.5,-0.11,0.82,-226.5,-56.94499999999999,-33.295
451,1715532335900,0.5,-0.11,0.82,-197.63,-66.16,-23.44
452,1715532335910,0.5,-0.11,0.82,-197.63,-66.16,-23.44
453,1715532335920,0.5,-0.11,0.82,-197.63,-66.16,-23.44
454,1715532335930,0.62,0.4,0.64,-200.38,15.44,-66.47
455,1715532335940,0.62,0.4,0.64,-200.38,15.44,-66.47
456,1715532335950,0.62,0.4,0.64,-200.38,15.44,-66.47
457,1715532335960,0.62,0.4,0.64,-200.38,15.44,-66.47
458,1715532335970,0.62,0.4,0.64,-200.38,15.44,-66.47
459,1715532335980,0.62,0.4,0.64,-200.38,15.44,-66.47
460,1715532335990,0.62,0.4,0.64,-200.38,15.44,-66.47
461,1715532336000,0.62,0.4,0.64,-200.38,15.44,-66.47
462,1715532336010,0.62,0.4,0.64,-200.38,15.44,-66.47
463,1715532336020,0.23,0.02,3.34,-272.22,-44.31,-198.67
464,1715532336030,0.23,0.02,3.34,-272.22,-44.31,-198.67
465,1715532336040,0.23,0.02,3.34,-272.22,-44.31,-198.67
466,1715532336050,-0.52,0.41,2.83,-106.2,23.070000000000004,-104.68
467,1715532336060,-0.52,0.41,2.83,-106.2,23.07,-104.68
468,1715532336070,-0.52,0.41,2.83,-106.2,23.07,-104.68
469,1715532336080,-0.655,0.605,2.7925,-102.2175,-37.7625,-59.86
470,1715532336090,-0.7,0.67,2.78,-100.89,-58.04,-44.92
471,1715532336100,-0.7,0.67,2.78,-100.89,-58.04,-44.92
472,1715532336110,-0.7,0.67,2.78,-100.89,-58.04,-44.92
473,1715532336120,-0.4000000000000001,0.69,2.7900000000000005,-100.89,-58.04,-44.919999999999995
474,1715532336130,-0.4,0.69,2.79,-5.219999999999999,-9.7925,26.585
475,1715532336140,-0.4,0.69,2.79,26.67,6.29,50.42
476,1715532336150,-0.4,0.69,2.79,26.67,6.29,50.42
477,1715532336160,-0.31,0.49,1.61,113.89,34.24,103.94
478,1715532336170,-0.31,0.49,1.61,113.89,34.24,103.94
479,1715532336180,-0.31,0.49,1.61,113.89,34.24,103.94
480,1715532336190,-0.31,0.49,1.61,113.89,34.24,103.94
481,1715532336200,0.15,0.15,1.12,241.94,47.18,163.51
482,1715532336210,0.15,0.15,1.12,241.94,47.18,163.51
483,1715532336220,0.15,0.15,1.12,241.94,47.18,163.51
484,1715532336230,0.19666666666666666,0.04333333333333333,0.9433333333333334,263.3233333333333,59.38666666666666,167.31666666666666
485,1715532336240,0.29,-0.17,0.59,306.09,83.8,174.93
486,1715532336250,0.29,-0.17,0.59,306.09,83.8,174.93
487,1715532336260,0.29,-0.17,0.59,306.09,83.8,174.93
488,1715532336270,0.29,-0.17,0.59,306.09,83.8,174.93
489,1715532336280,0.29,-0.17,0.59,306.09,83.8,174.93
490,1715532336290,0.29,-0.17,0.59,306.09,83.8,174.93
491,1715532336300,0.29,-0.17,0.59,306.09,83.8,174.93
492,1715532336310,0.29,-0.17,0.59,306.09,83.8,174.93
493,1715532336320,0.29,-0.17,0.59,306.09,83.8,174.93
494,1715532336330,0.29,-0.17,0.59,306.09,83.8,174.93
495,1715532336340,0.29,-0.17,0.59,306.09,83.8,174.93
496,1715532336350,0.20000000000000004,0.14,1.53,179.87,-75.13,23.44
497,1715532336360,0.2,0.14,1.53,179.87,-75.13,23.44
498,1715532336370,0.2,0.14,1.53,179.87,-75.13,23.44
499,1715532336380,0.2725,-0.13249999999999998,1.74,179.87,-75.13,23.44
500,1715532336390,0.49,-0.95,2.37,132.69,-7.57,-3.23
501,1715532336400,0.49,-0.9499999999999998,2.37,132.69,-7.57,-3.23
502,1715532336410,0.49,-0.95,2.37,132.69,-7.57,-3.23
503,1715532336420,0.38,-0.825,1.495,94.7875,9.4275,-2.1625
504,1715532336430,0.27,-0.7,0.62,-18.92,60.42,1.04
505,1715532336440,0.27,-0.7,0.62,-18.92,60.42,1.04
506,1715532336450,0.27,-0.7,0.62,-18.92,60.42,1.04
507,1715532336460,0.27,-0.6999999999999998,0.62,-18.92,60.419999999999995,1.04
508,1715532336470,0.27,-0.7,0.62,-18.92,60.42,1.04
509,1715532336480,0.27,-0.7,0.62,-18.92,60.42,1.04
510,1715532336490,0.27,-0.7,0.62,-18.92,60.42,1.04
511,1715532336500,0.27,-0.7,0.62,-18.92,60.42,1.04
512,1715532336510,0.27,-0.7,0.62,-18.92,60.42,1.04
513,1715532336520,0.27,-0.7,0.62,-18.92,60.42,1.04
514,1715532336530,0.27,-0.7,0.62,-18.92,60.42,1.04
515,1715532336540,0.43,-0.59,0.11,-232.3425,14.01,-49.9875
516,1715532336550,0.43,-0.59,0.11,-241.93999999999997,10.99,-61.28
517,1715532336560,0.43,-0.59,0.11,-241.94,10.99,-61.28
518,1715532336570,0.43,-0.59,0.11,-241.94,10.99,-61.28
519,1715532336580,0.57,-0.25,0.11,-223.31,-21.1475,-90.575
520,1715532336590,0.57,-0.25,0.11,-217.1,-31.86,-100.34
521,1715532336600,0.57,-0.25,0.11,-217.1,-31.86,-100.34
522,1715532336610,0.57,-0.25,0.11,-217.1,-31.86,-100.33999999999999
523,1715532336620,0.58,-0.29500000000000004,0.295,-250.305,-38.94,-117.735
524,1715532336630,0.59,-0.34,0.48,-283.51,-46.02,-135.13
525,1715532336640,0.59,-0.34,0.48,-283.51,-46.02,-135.13
526,1715532336650,0.5775,-0.20500000000000002,0.6599999999999999,-283.51,-46.02,-135.13
527,1715532336660,0.54,0.2,1.2,-302.4625,-85.66499999999999,-157.51749999999998
528,1715532336670,0.54,0.2,1.2,-308.78,-98.88,-164.98
529,1715532336680,0.54,0.2,1.2,-308.78,-98.88,-164.98
530,1715532336690,0.5700000000000001,0.0,1.9249999999999998,-306.125,-149.8125,-171.76999999999998
531,1715532336700,0.66,-0.6,4.1,-298.16,-302.61,-192.14
532,1715532336710,0.66,-0.6,4.1,-298.16,-302.61,-192.14
533,1715532336720,0.66,-0.6,4.1,-298.16,-302.61,-192.14
534,1715532336730,0.34500000000000003,0.135,4.09,-226.44,-142.51500000000001,-134.005
535,1715532336740,0.03,0.87,4.08,-154.72,17.58,-75.87
536,1715532336750,0.03,0.87,4.08,-154.72,17.58,-75.87
537,1715532336760,0.03,0.87,4.08,-154.72,17.58,-75.87
538,1715532336770,-0.6074999999999999,0.615,3.5775,-103.6825,19.41,-13.38
539,1715532336780,-0.82,0.53,3.41,-86.67,20.02,7.45
540,1715532336790,-0.82,0.53,3.41,-86.67,20.02,7.45
541,1715532336800,-0.82,0.53,3.41,-86.67,20.02,7.45
542,1715532336810,-0.82,0.53,3.41,-86.67,20.02,7.45
543,1715532336820,-0.82,0.53,3.41,-86.67,20.02,7.45
544,1715532336830,-0.82,0.53,3.41,-86.67,20.02,7.45
545,1715532336840,-0.82,0.53,3.41,-86.67,20.02,7.45
546,1715532336850,-0.82,0.53,3.41,-86.67,20.02,7.45
547,1715532336860,-0.82,0.53,3.41,-86.67,20.02,7.45
548,1715532336870,-0.2425,0.155,1.97,168.3075,63.7375,115.3
549,1715532336880,0.06666666666666667,-0.06,1.2233333333333334,253.30000000000004,78.31,151.25
550,1715532336890,0.3,-0.24,0.69,372.62,49.26,197.75
551,1715532336900,0.3,-0.24,0.69,372.62,49.26,197.75
552,1715532336910,0.3,-0.24,0.69,372.62,49.26,197.75
553,1715532336920,0.3,-0.24,0.69,372.62,49.26,197.75
554,1715532336930,0.435,-0.4275,0.32999999999999996,386.63,51.457499999999996,172.805
555,1715532336940,0.48,-0.49,0.21,391.3,52.19,164.49
556,1715532336950,0.48,-0.49,0.21,391.3,52.19,164.49
557,1715532336960,0.5700000000000001,-0.215,0.38,391.3,52.19,164.49
558,1715532336970,0.66,0.06,0.55,315.25,0.55,119.38
559,1715532336980,0.66,0.06,0.55,315.25,0.55,119.38
560,1715532336990,0.66,0.06,0.55,315.25,0.55,119.38
561,1715532337000,0.66,0.06,0.55,315.25,0.55,119.38
562,1715532337010,0.66,0.06,0.55,315.25,0.55,119.38
563,1715532337020,0.66,0.06,0.55,315.25,0.55,119.38
564,1715532337030,0.66,0.06,0.55,315.25,0.55,119.38
565,1715532337040,0.66,0.06,0.55,315.25,0.55,119.38
566,1715532337050,0.66,0.06,0.55,315.25,0.55,119.38
567,1715532337060,0.8000000000000002,0.09666666666666668,0.9833333333333334,264.34666666666664,-0.4666666666666666,56.98333333333333
568,1715532337070,1.08,0.17,1.85,162.54,-2.5,-67.81
569,1715532337080,0.21,-1.17,1.41,67.6425,87.49249999999999,-98.89
570,1715532337090,0.21,-1.17,1.41,36.01,117.49,-109.25
571,1715532337100,0.21,-1.17,1.41,36.01,117.49,-109.25
572,1715532337110,0.185,-0.9824999999999999,1.1475,36.01,117.49,-109.25
573,1715532337120,0.11,-0.42,0.36000000000000004,-84.9,46.26,5.62
574,1715532337130,0.11000000000000001,-0.42000000000000004,0.36,-84.9,46.26,5.62
575,1715532337140,0.11,-0.42,0.36000000000000004,-84.9,46.26,5.62
576,1715532337150,0.14500000000000002,-0.515,0.45999999999999996,-126.48,27.1425,0.7350000000000003
577,1715532337160,0.25,-0.8,0.76,-251.22,-30.21,-13.92
578,1715532337170,0.25,-0.8,0.76,-251.22,-30.21,-13.92
579,1715532337180,0.25,-0.8,0.76,-251.22,-30.21,-13.92
580,1715532337190,0.38,-0.815,0.71,-241.12,-29.355,-2.535
581,1715532337200,0.51,-0.83,0.66,-231.02,-28.5,8.85
582,1715532337210,0.51,-0.83,0.66,-231.02,-28.5,8.85
583,1715532337220,0.51,-0.83,0.66,-231.02,-28.5,8.85
584,1715532337230,0.5025,-0.8225,0.5225000000000001,-242.4625,-38.2975,-1.2675
585,1715532337240,0.48,-0.8,0.11,-276.79,-67.69,-31.62
586,1715532337250,0.48,-0.8000000000000002,0.11,-276.79,-67.69,-31.62
587,1715532337260,0.48,-0.8,0.11,-276.79,-67.69,-31.62
588,1715532337270,0.6225,-0.38,0.45499999999999996,-263.55,-73.975,-38.15
589,1715532337280,0.67,-0.24,0.57,-250.31,-80.26,-44.68
590,1715532337290,0.67,-0.24,0.57,-250.31000000000003,-80.26,-44.68
591,1715532337300,0.67,-0.24,0.57,-250.31,-80.26,-44.68
592,1715532337310,0.67,-0.24,0.57,-250.31,-80.26,-44.68
593,1715532337320,0.67,-0.24,0.57,-250.31,-80.26,-44.68
594,1715532337330,0.67,-0.24,0.57,-250.31,-80.26,-44.68
595,1715532337340,0.67,-0.24,0.57,-250.31000000000003,-80.26,-44.68
596,1715532337350,0.67,-0.24,0.57,-250.31,-80.26,-44.68
597,1715532337360,0.67,-0.24,0.57,-250.31,-80.26,-44.68
598,1715532337370,0.67,-0.24,0.57,-250.31,-80.26,-44.68
599,1715532337380,0.67,-0.24,0.57,-250.31,-80.26,-44.68
600,1715532337390,0.67,-0.0725,1.0975000000000001,-282.4275,-98.16000000000001,-71.55
601,1715532337400,0.67,0.43,2.68,-378.78,-151.86,-152.16
602,1715532337410,0.67,0.43,2.68,-378.78,-151.86,-152.16
603,1715532337420,0.37000000000000005,0.15666666666666665,3.9133333333333336,-317.3,-108.01333333333334,-140.70666666666668
604,1715532337430,0.22,0.02,4.53,-194.34,-20.32,-117.8
605,1715532337440,0.22,0.02,4.53,-194.34,-20.32,-117.8
606,1715532337450,0.22,0.02,4.53,-194.34,-20.32,-117.8
607,1715532337460,-0.3666666666666667,0.41333333333333333,3.6233333333333335,-112.83333333333333,-0.793333333333333,-60.18
608,1715532337470,-0.66,0.61,3.17,-72.08,8.97,-31.37
609,1715532337480,-0.66,0.61,3.17,-72.08,8.97,-31.37
610,1715532337490,-0.66,0.61,3.17,-72.08,8.97,-31.37
611,1715532337500,-0.144,0.556,3.2,-72.08,8.97,-31.369999999999997
612,1715532337510,0.20000000000000004,0.52,3.22,-72.08,8.97,-31.37
613,1715532337520,0.2,0.52,3.22,-72.08,8.97,-31.37
614,1715532337530,0.2,0.52,3.22,-72.08,8.97,-31.37
615,1715532337540,0.2,0.52,3.22,-72.08,8.97,-31.37
616,1715532337550,0.20000000000000004,0.52,3.22,-72.08,8.97,-31.37
617,1715532337560,0.2,0.52,3.22,-72.08,8.97,-31.37
618,1715532337570,0.2,0.52,3.22,-72.08,8.97,-31.37
619,1715532337580,0.2,0.52,3.22,-14.9525,3.0500000000000003,0.9024999999999999
620,1715532337590,0.34,-0.21,1.22,256.53,108.64,136.29
621,1715532337600,0.34,-0.21,1.22,256.53,108.64,136.29
622,1715532337610,0.34,-0.21,1.22,256.53,108.64,136.29
623,1715532337620,0.57,-0.29,0.9,348.02,122.38,141.66
624,1715532337630,0.57,-0.29,0.9,348.02,122.38,141.66
625,1715532337640,0.57,-0.29,0.9,348.02,122.38,141.66
626,1715532337650,0.6033333333333334,-0.3666666666666667,1.0033333333333332,352.3966666666667,113.04,125.73
627,1715532337660,0.67,-0.52,1.21,361.15,94.36,93.87
628,1715532337670,0.67,-0.52,1.21,361.15,94.36,93.87
629,1715532337680,0.67,-0.52,1.21,361.15,94.36,93.87
630,1715532337690,0.615,-0.395,1.255,370.21,94.45,66.345
631,1715532337700,0.56,-0.27,1.3,379.27,94.54,38.82
632,1715532337710,0.56,-0.27,1.3,379.27,94.54,38.82
633,1715532337720,0.56,-0.27,1.3,379.27,94.54,38.82
634,1715532337730,0.55,-0.26,1.295,379.27,94.54,38.82
635,1715532337740,0.54,-0.25,1.29,333.265,11.05,-16.845
636,1715532337750,0.54,-0.25,1.29,317.93,-16.78,-35.4
637,1715532337760,0.54,-0.25,1.29,317.93,-16.78,-35.4
638,1715532337770,0.61,-1.52,2.04,112.61,5.74,-93.81
639,1715532337780,0.61,-1.52,2.04,112.61,5.74,-93.81
640,1715532337790,0.61,-1.52,2.04,112.61,5.74,-93.81
641,1715532337800,0.61,-1.52,2.04,112.61,5.74,-93.81
642,1715532337810,0.18,-1.4,0.22,77.39,0.43,6.29
643,1715532337820,0.18,-1.4,0.22,77.39,0.43,6.29
644,1715532337830,0.18,-1.4,0.22,77.39,0.43,6.29
645,1715532337840,0.18,-1.4,0.22,77.39,0.43,6.29
646,1715532337850,0.18,-1.4,0.22,77.39,0.43,6.29
647,1715532337860,0.18,-1.4,0.22,77.39,0.43,6.29
648,1715532337870,0.18,-1.4,0.22,77.39,0.43,6.29
649,1715532337880,0.18,-1.4,0.22,77.39,0.43,6.29
650,1715532337890,0.18000000000000002,-1.3999999999999997,0.22,77.39,0.43,6.29
651,1715532337900,0.18,-1.4,0.22,77.39,0.43,6.29
652,1715532337910,0.18,-1.4,0.22,77.39,0.43,6.29
653,1715532337920,0.5966666666666667,-0.83,0.38000000000000006,-173.64666666666668,-31.450000000000003,73.14
654,1715532337930,0.81,-0.44,0.54,-409.67,59.33,73.79
655,1715532337940,0.81,-0.44,0.54,-409.67,59.33,73.79
656,1715532337950,0.81,-0.44,0.54,-409.67,59.33,73.79
657,1715532337960,0.7366666666666667,-0.35333333333333333,0.7000000000000001,-398.9466666666667,61.626666666666665,58.06333333333333
658,1715532337970,0.7,-0.31,0.78,-377.5,66.22,26.61
659,1715532337980,0.7,-0.31,0.78,-377.5,66.22,26.61
660,1715532337990,0.7,-0.31,0.78,-377.5,66.22,26.61
661,1715532338000,0.65,-0.04,0.67,-321.3325,28.502499999999998,-19.8975
662,1715532338010,0.65,-0.04,0.67,-302.61,15.93,-35.4
663,1715532338020,0.65,-0.04,0.67,-302.61,15.93,-35.4
664,1715532338030,0.65,-0.04,0.67,-302.61,15.93,-35.4
665,1715532338040,0.65,-0.04,0.67,-302.61,15.93,-35.4
666,1715532338050,0.65,-0.04,0.67,-302.61,15.93,-35.4
667,1715532338060,0.65,-0.04,0.67,-302.61,15.93,-35.4
668,1715532338070,0.65,-0.04,0.67,-302.61,15.93,-35.4
669,1715532338080,0.65,-0.04,0.67,-302.61,15.93,-35.4
670,1715532338090,0.65,-0.04,0.67,-302.61,15.93,-35.4
671,1715532338100,0.65,-0.04,0.67,-302.61,15.93,-35.4
672,1715532338110,0.9966666666666666,0.04666666666666666,2.8633333333333333,-338.50333333333333,-128.47666666666666,-89.67999999999999
673,1715532338120,0.43,0.39,3.96,-186.4,91.25,-82.21
674,1715532338130,0.43,0.39,3.96,-186.4,91.25,-82.21
675,1715532338140,0.43,0.38999999999999996,3.9599999999999995,-186.4,91.25,-82.21
676,1715532338150,0.43,0.39,3.96,-186.4,91.25,-82.21
677,1715532338160,-0.36,0.43,2.97,-106.45,161.38,-19.1
678,1715532338170,-0.36,0.43,2.97,-106.45,161.38,-19.1
679,1715532338180,-0.36000000000000004,0.43,2.97,-106.45,161.38,-19.1
680,1715532338190,-0.13999999999999999,0.485,2.88,-55.21,131.715,1.3924999999999983
681,1715532338200,0.08,0.54,2.79,98.51,42.72,62.87
682,1715532338210,0.08,0.54,2.79,98.51,42.72,62.87
683,1715532338220,0.08,0.54,2.79,98.51,42.72,62.87
684,1715532338230,0.29,0.39749999999999996,2.4,157.835,59.57,79.99
685,1715532338240,0.36,0.35,2.27,217.16,76.42,97.11
686,1715532338250,0.36,0.35,2.27,217.16,76.42,97.11
687,1715532338260,0.36000000000000004,0.3499999999999999,2.27,217.16,76.42,97.11
688,1715532338270,0.39749999999999996,-0.06250000000000001,1.5575,272.69,125.44,125.1225
689,1715532338280,0.41,-0.2,1.32,291.2,141.78,134.46
690,1715532338290,0.41,-0.2,1.32,291.2,141.78,134.46
691,1715532338300,0.4633333333333333,-0.27,1.1166666666666667,291.2,141.78,134.46
692,1715532338310,0.57,-0.41,0.71,381.65,96.01,138.31
693,1715532338320,0.57,-0.41,0.71,381.65,96.01,138.31
694,1715532338330,0.57,-0.41,0.71,381.6499999999999,96.01,138.31
695,1715532338340,0.5925,-0.425,0.7849999999999999,381.65,96.01,138.31
696,1715532338350,0.66,-0.47,1.01,381.65,96.01,138.31
697,1715532338360,0.66,-0.47,1.01,381.65,96.01,138.31
698,1715532338370,0.66,-0.47,1.01,381.6499999999999,96.01,138.31
699,1715532338380,0.66,-0.47,1.01,381.65,96.01,138.31
700,1715532338390,0.66,-0.47,1.01,381.65,96.01,138.31
701,1715532338400,0.66,-0.47,1.01,381.65,96.01,138.31
702,1715532338410,0.66,-0.47,1.01,381.6499999999999,96.01,138.31
703,1715532338420,0.66,-0.47,1.01,381.65,96.01,138.31
704,1715532338430,0.66,-0.47,1.01,381.65,96.01,138.31
705,1715532338440,0.66,-0.4699999999999999,1.01,381.65,96.01,138.31
706,1715532338450,0.47,-0.38000000000000006,1.47,247.5,-90.21,6.349999999999999
707,1715532338460,0.41000000000000003,-1.1749999999999998,1.7550000000000001,217.73,-76.2175,-5.415000000000001
708,1715532338470,0.39,-1.44,1.85,128.42,-34.24,-40.71
709,1715532338480,0.39,-1.44,1.85,128.42,-34.24,-40.71
710,1715532338490,0.39,-1.44,1.85,128.42,-34.24,-40.71
711,1715532338500,-0.03,-0.81,-0.04,4.33,65.12,22.28
712,1715532338510,-0.03,-0.81,-0.04,4.33,65.12,22.28
713,1715532338520,-0.03,-0.81,-0.04,4.33,65.12,22.28
714,1715532338530,0.010000000000000002,-0.7975000000000001,0.0,4.33,65.12,22.28
715,1715532338540,0.13,-0.76,0.12,-273.13,-46.33,26.49
716,1715532338550,0.13,-0.7600000000000001,0.12,-273.13,-46.330000000000005,26.49
717,1715532338560,0.13,-0.76,0.12,-273.13,-46.33,26.49
718,1715532338570,0.13,-0.76,0.12,-273.13,-46.33,26.49
719,1715532338580,0.13,-0.76,0.12,-273.13,-46.33,26.49
720,1715532338590,0.13,-0.76,0.12,-273.13,-46.33,26.49
721,1715532338600,0.13,-0.76,0.12,-273.13,-46.33,26.49
722,1715532338610,0.13,-0.76,0.12,-273.13,-46.33,26.49
723,1715532338620,0.13,-0.7600000000000001,0.12,-273.13,-46.330000000000005,26.49
724,1715532338630,0.27249999999999996,-0.75,0.19,-291.15,-52.4625,24.627499999999998
725,1715532338640,0.7,-0.72,0.4,-345.21,-70.86,19.04
726,1715532338650,0.895,-0.645,0.605,-346.89,-88.59,19.68
727,1715532338660,1.09,-0.57,0.81,-348.57,-106.32,20.32
728,1715532338670,1.09,-0.57,0.81,-348.57,-106.32,20.32
729,1715532338680,1.09,-0.57,0.81,-348.57,-106.32,20.32
730,1715532338690,1.0525,-0.40499999999999997,1.0050000000000001,-345.5475,-88.7475,-34.519999999999996
731,1715532338700,1.04,-0.35,1.07,-344.54,-82.89,-52.8
732,1715532338710,1.04,-0.35,1.07,-344.54,-82.89,-52.8
733,1715532338720,1.04,-0.3499999999999999,1.07,-344.54,-82.89,-52.79999999999999
734,1715532338730,1.008,-0.34199999999999997,1.4540000000000002,-367.788,-194.21800000000002,-79.312
735,1715532338740,1.0,-0.34,1.55,-373.6,-222.05,-85.94
736,1715532338750,1.0,-0.34,1.55,-373.6000000000001,-222.05000000000004,-85.94
737,1715532338760,1.0,-0.34,1.55,-373.6,-222.05,-85.94
738,1715532338770,1.0,-0.34,1.55,-373.6,-222.05,-85.94
739,1715532338780,1.73,-0.39,5.11,-267.82,-200.44,-100.59
740,1715532338790,1.7299999999999998,-0.38999999999999996,5.11,-267.82,-200.43999999999997,-100.58999999999999
741,1715532338800,1.73,-0.39,5.11,-267.82,-200.44,-100.59
742,1715532338810,0.22,0.65,3.09,-224.975,-103.0275,-87.925
743,1715532338820,0.22,0.65,3.09,-96.44,189.21,-49.93
744,1715532338830,0.22,0.65,3.09,-96.44,189.21,-49.93
745,1715532338840,0.0625,0.65,3.0,-73.78,158.6475,-36.395
746,1715532338850,-0.41,0.65,2.73,-5.8,66.96,4.21
747,1715532338860,-0.41,0.65,2.73,-5.8,66.96,4.21
748,1715532338870,-0.41,0.65,2.73,-5.8,66.96,4.21
749,1715532338880,-0.41,0.65,2.73,-5.8,66.96,4.21
750,1715532338890,-0.41,0.65,2.73,-5.8,66.96,4.21
751,1715532338900,-0.41,0.65,2.73,-5.8,66.96,4.21
752,1715532338910,-0.41,0.65,2.73,-5.8,66.96,4.21
753,1715532338920,-0.41,0.65,2.73,-5.8,66.96,4.21
754,1715532338930,-0.41,0.65,2.73,-5.8,66.96,4.21
755,1715532338940,-0.41,0.65,2.73,-5.8,66.96,4.21
756,1715532338950,-0.41,0.65,2.73,-5.8,66.96,4.21
757,1715532338960,-0.41,0.65,2.73,-5.8,66.96,4.21
758,1715532338970,0.49,-0.057499999999999996,2.1325,212.55499999999998,152.5125,47.515
759,1715532338980,0.85,-0.74,1.24,394.59,185.85,89.48
760,1715532338990,0.85,-0.74,1.24,394.59,185.85,89.48
761,1715532339000,1.01,-1.02,0.89,430.2366666666667,133.44333333333333,81.86666666666667
762,1715532339010,1.01,-1.02,0.89,448.06,107.24,78.06
763,1715532339020,1.01,-1.02,0.89,448.06,107.24,78.06
764,1715532339030,0.9725,-1.0150000000000001,0.795,448.06,107.24,78.06
765,1715532339040,0.86,-1.0,0.51,463.87,95.83,42.79
766,1715532339050,0.86,-1.0,0.51,463.87,95.83,42.79
767,1715532339060,0.86,-1.0,0.51,463.87000000000006,95.83,42.79
768,1715532339070,0.86,-1.0,0.51,463.87,95.83,42.79
769,1715532339080,0.86,-1.0,0.51,463.87000000000006,95.83,42.79
770,1715532339090,0.86,-1.0,0.51,463.87,95.83,42.79
771,1715532339100,0.86,-1.0,0.51,463.87,95.83,42.79
772,1715532339110,0.86,-1.0,0.51,463.87,95.83,42.79
773,1715532339120,0.86,-1.0,0.51,463.87000000000006,95.83,42.79
774,1715532339130,0.86,-1.0,0.51,463.87,95.83,42.79
775,1715532339140,0.86,-1.0,0.51,463.87,95.83,42.79
776,1715532339150,0.86,-1.0,0.51,463.87,95.83,42.79
777,1715532339160,0.21,-0.76,0.7925,39.9325,25.0275,-64.72749999999999
778,1715532339170,0.09000000000000001,-0.85,0.9899999999999999,-79.53,28.69,-88.99
779,1715532339180,0.09,-0.85,0.99,-79.53,28.69,-88.99
780,1715532339190,0.009999999999999995,-0.8300000000000001,0.715,-119.2,43.185,-10.07
781,1715532339200,-0.07,-0.81,0.44,-158.87,57.68,68.85
782,1715532339210,-0.07,-0.81,0.44,-158.87,57.68,68.85
783,1715532339220,-0.07,-0.81,0.44,-158.87,57.68,68.85
784,1715532339230,0.51,-0.51,0.12,-355.77,-24.290000000000003,43.70000000000001
785,1715532339240,0.51,-0.51,0.12,-355.77,-24.29,43.7
786,1715532339250,0.51,-0.51,0.12,-355.77,-24.29,43.7
787,1715532339260,0.51,-0.51,0.12,-355.77,-24.29,43.7
788,1715532339270,0.8325,-1.4024999999999999,0.6675,-446.82,-106.13749999999999,14.9075
789,1715532339280,0.94,-1.7,0.85,-477.17,-133.42,5.31
790,1715532339290,0.94,-1.7,0.85,-477.17,-133.42,5.31
791,1715532339300,1.06,-1.5574999999999999,0.8775,-474.79,-134.32,-0.2450000000000001
792,1715532339310,1.42,-1.13,0.96,-467.65,-137.02,-16.91
793,1715532339320,1.42,-1.13,0.96,-467.65,-137.02,-16.91
794,1715532339330,1.42,-1.13,0.96,-467.65,-137.02,-16.91
795,1715532339340,1.42,-1.1466666666666665,1.2766666666666666,-465.1066666666666,-125.36333333333334,-35.85
796,1715532339350,1.42,-1.18,1.91,-460.02,-102.05,-73.73
797,1715532339360,1.42,-1.18,1.91,-460.02,-102.05,-73.73
798,1715532339370,1.42,-1.18,1.91,-460.02,-102.05,-73.73
799,1715532339380,1.42,-1.18,1.91,-460.02,-102.05,-73.73
800,1715532339390,0.9700000000000001,-0.41,1.7700000000000002,-299.07,-51.45000000000001,-91.86
801,1715532339400,0.97,-0.41,1.77,-299.07,-51.45,-91.86
802,1715532339410,0.97,-0.41,1.77,-299.07,-51.45,-91.86
803,1715532339420,0.97,-0.41,1.77,-299.07,-51.45,-91.86
804,1715532339430,0.97,-0.41,1.77,-299.07,-51.45,-91.86
805,1715532339440,0.9700000000000001,-0.41,1.7700000000000002,-299.07,-51.45000000000001,-91.86
806,1715532339450,0.97,-0.41,1.77,-299.07,-51.45,-91.86
807,1715532339460,0.97,-0.41,1.77,-299.07,-51.45,-91.86
808,1715532339470,0.9700000000000001,-0.41,1.7700000000000002,-299.07,-51.45000000000001,-91.86
809,1715532339480,0.97,-0.41,1.77,-299.07,-51.45,-91.86
810,1715532339490,0.7366666666666667,-0.12333333333333334,3.3833333333333333,-268.75666666666666,-80.26333333333334,-124.57333333333334
811,1715532339500,-0.15,-0.01,3.3,-28.705,-45.275,-88.655
812,1715532339510,-0.15,-0.01,3.3,46.26,-28.81,-71.23
813,1715532339520,-0.15,-0.01,3.3,46.26,-28.81,-71.23
814,1715532339530,-0.15,-0.01,3.2999999999999994,46.26,-28.81,-71.23
815,1715532339540,-0.12,0.74,2.2,77.03,-75.5,8.24
816,1715532339550,-0.12,0.74,2.2,77.03,-75.5,8.24
817,1715532339560,-0.12,0.74,2.2,77.03,-75.5,8.24
818,1715532339570,-0.12,0.74,2.2,77.03,-75.5,8.24
819,1715532339580,0.7275,0.725,2.7925000000000004,176.09,-70.6925,20.2775
820,1715532339590,1.01,0.7200000000000001,2.99,209.11,-69.09,24.290000000000003
821,1715532339600,1.01,0.72,2.99,209.11,-69.09,24.29
822,1715532339610,1.01,0.72,2.99,209.11,-69.09,24.29
823,1715532339620,1.01,0.72,2.99,209.11,-69.09,24.29
824,1715532339630,1.01,0.72,2.99,209.11,-69.09,24.29
825,1715532339640,1.01,0.72,2.99,209.11,-69.09,24.29
826,1715532339650,1.01,0.7200000000000001,2.99,209.11,-69.09,24.290000000000003
827,1715532339660,1.01,0.72,2.99,209.11,-69.09,24.29
828,1715532339670,1.01,0.72,2.99,209.11,-69.09,24.29
829,1715532339680,0.9700000000000001,0.2333333333333333,2.4233333333333333,249.23000000000002,24.456666666666667,24.616666666666664
830,1715532339690,0.89,-0.74,1.29,329.47,211.55,25.27
831,1715532339700,0.89,-1.11,0.86,438.35,154.6,61.83
832,1715532339710,0.89,-1.11,0.86,438.3500000000001,154.6,61.830000000000005
833,1715532339720,0.89,-1.11,0.86,438.35,154.6,61.83
834,1715532339730,1.01,-1.16,0.52,460.73,136.78,53.69
835,1715532339740,1.01,-1.16,0.52,471.91999999999996,127.87,49.62
836,1715532339750,1.01,-1.16,0.52,471.92,127.87,49.62
837,1715532339760,0.9675,-1.0625,0.5075000000000001,471.92,127.87,49.62
838,1715532339770,0.84,-0.77,0.47,421.87000000000006,82.4,34.42
839,1715532339780,0.84,-0.77,0.47,421.87,82.4,34.42
840,1715532339790,0.84,-0.77,0.47,421.87,82.4,34.42
841,1715532339800,0.77,-0.635,0.45499999999999996,397.5025,79.85000000000001,36.9375
842,1715532339810,0.56,-0.23,0.41,324.4,72.2,44.49
843,1715532339820,0.56,-0.23,0.41,324.4,72.2,44.49
844,1715532339830,0.56,-0.23,0.41,324.4,72.2,44.49
845,1715532339840,0.7350000000000001,-0.05,0.58,217.83499999999998,-10.165,45.865
846,1715532339850,0.91,0.13,0.75,111.27,-92.53,47.24
847,1715532339860,0.91,0.13,0.75,111.27,-92.53,47.24
848,1715532339870,0.91,0.13,0.75,111.27,-92.53000000000002,47.24
849,1715532339880,0.885,-0.2,1.145,56.0,-39.855000000000004,-6.349999999999998
850,1715532339890,0.86,-0.53,1.54,0.73,12.82,-59.94
851,1715532339900,0.86,-0.53,1.54,0.73,12.82,-59.94
852,1715532339910,0.86,-0.53,1.54,0.73,12.82,-59.94
853,1715532339920,0.19000000000000003,-0.79,0.42,-202.39,170.17,-18.01
854,1715532339930,0.19,-0.79,0.42,-202.39,170.17,-18.01
855,1715532339940,0.19,-0.79,0.42,-202.39,170.17,-18.01
856,1715532339950,0.19,-0.79,0.42,-202.39,170.17,-18.01
857,1715532339960,0.19,-0.79,0.42,-202.39,170.17,-18.01
858,1715532339970,0.19,-0.79,0.42,-202.39,170.17,-18.01
859,1715532339980,0.19,-0.79,0.42,-202.39,170.17,-18.01
860,1715532339990,0.19,-0.79,0.42,-202.39,170.17,-18.01
861,1715532340000,0.19,-0.79,0.42,-202.39,170.17,-18.01
862,1715532340010,0.19,-0.79,0.42,-202.39,170.17,-18.01
863,1715532340020,0.78,-1.18,0.64,-365.3,-98.57,51.94
864,1715532340030,0.905,-1.01,0.88,-365.3,-98.57,51.94
865,1715532340040,1.28,-0.5,1.6,-455.38,-76.42,31.86
866,1715532340050,1.28,-0.5,1.6,-455.38,-76.42,31.86
867,1715532340060,1.28,-0.5,1.6000000000000003,-455.37999999999994,-76.42,31.86
868,1715532340070,1.28,-0.5,1.6,-455.38,-76.42,31.86
869,1715532340080,1.28,-0.5,1.6000000000000003,-455.37999999999994,-76.42,31.86
870,1715532340090,1.28,-0.5,1.6,-455.38,-76.42,31.86
871,1715532340100,1.1675,-0.4275,1.4500000000000002,-433.0725,-46.055,12.375
872,1715532340110,0.7749999999999999,-0.13,0.97,-329.5,-18.315,-57.92
873,1715532340120,0.7200000000000001,-0.05000000000000001,0.94,-292.85,-81.67,-69.76
874,1715532340130,0.72,-0.05,0.94,-292.85,-81.67,-69.76
875,1715532340140,0.72,-0.05,0.94,-292.85,-81.67,-69.76
876,1715532340150,0.72,-0.05,0.94,-292.85,-81.67,-69.76
877,1715532340160,0.72,-0.05,0.94,-292.85,-81.67,-69.76
878,1715532340170,0.7200000000000001,-0.05000000000000001,0.94,-292.85,-81.67,-69.76
879,1715532340180,0.72,-0.05,0.94,-292.85,-81.67,-69.76
880,1715532340190,0.72,-0.05,0.94,-292.85,-81.67,-69.76
881,1715532340200,0.72,-0.05,0.94,-292.85,-81.67,-69.76
882,1715532340210,1.03,-0.03,3.19,-303.1,-117.43,-179.5
883,1715532340220,0.895,-0.0225,3.2875,-303.1,-117.43,-179.5
884,1715532340230,0.49,0.0,3.58,-29.17,-76.17,-106.2
885,1715532340240,0.49,0.0,3.58,-29.17,-76.17,-106.2
886,1715532340250,0.49,0.0,3.58,-29.17,-76.17,-106.2
887,1715532340260,0.45999999999999996,0.045,3.5275,-29.17,-76.17,-106.2
888,1715532340270,0.37,0.18,3.37,19.17,-50.84,-65.37
889,1715532340280,0.37,0.18,3.37,19.17,-50.84,-65.37
890,1715532340290,0.37,0.18,3.37,19.17,-50.84,-65.37
891,1715532340300,0.37,0.18,3.37,19.17,-50.84,-65.37
892,1715532340310,0.6633333333333334,0.15333333333333335,3.0500000000000003,129.51666666666668,37.29333333333333,-18.003333333333334
893,1715532340320,0.8100000000000002,0.14,2.89,184.69,81.36,5.68
894,1715532340330,0.81,0.14,2.89,184.69,81.36,5.68
895,1715532340340,0.85,0.006666666666666672,2.1966666666666668,184.68999999999997,81.36,5.68
896,1715532340350,0.87,-0.06,1.85,245.73,196.47,36.32
897,1715532340360,0.87,-0.06,1.85,245.73,196.47,36.32
898,1715532340370,0.87,-0.06,1.85,245.73,196.47,36.32
899,1715532340380,0.9750000000000001,-0.3375,1.4075,316.9575,209.475,53.21
900,1715532340390,1.01,-0.43,1.26,340.7,213.81000000000003,58.84
901,1715532340400,1.01,-0.43,1.26,340.7,213.81,58.84
902,1715532340410,1.01,-0.43,1.26,340.7,213.81,58.84
903,1715532340420,1.15,-0.9499999999999998,0.69,417.54,239.75,53.89000000000001
904,1715532340430,1.15,-0.95,0.69,417.54,239.75,53.89
905,1715532340440,1.15,-0.95,0.69,417.54,239.75,53.89
906,1715532340450,1.15,-0.95,0.69,417.54,239.75,53.89
907,1715532340460,1.15,-0.9499999999999998,0.69,417.54,239.75,53.89000000000001
908,1715532340470,1.15,-0.95,0.69,417.54,239.75,53.89
909,1715532340480,1.15,-0.95,0.69,417.54,239.75,53.89
910,1715532340490,1.15,-0.95,0.69,417.54,239.75,53.89
911,1715532340500,1.15,-0.95,0.69,417.54,239.75,53.89
912,1715532340510,1.15,-0.95,0.69,417.54,239.75,53.89
913,1715532340520,1.15,-0.9499999999999998,0.69,417.54,239.75,53.89000000000001
914,1715532340530,1.15,-0.95,0.69,417.54,239.75,53.89
915,1715532340540,0.73,-0.3875,0.2425,383.405,128.48,57.97
916,1715532340550,0.51,0.08,0.03,338.01,84.35,68.12
917,1715532340560,0.51,0.08,0.03,338.01,84.35,68.12
918,1715532340570,0.47,0.05,0.20500000000000002,256.255,65.0325,55.6075
919,1715532340580,0.43,0.02,0.38,10.99,7.08,18.07
920,1715532340590,0.43,0.02,0.38000000000000006,10.99,7.080000000000001,18.07
921,1715532340600,0.43,0.02,0.38,10.99,7.08,18.07
922,1715532340610,0.43,0.02,0.38,10.99,7.08,18.07
923,1715532340620,0.265,-0.375,0.9199999999999999,-58.285,23.925,17.915
924,1715532340630,0.1,-0.77,1.46,-127.56,40.77,17.76
925,1715532340640,0.1,-0.77,1.46,-127.56,40.77,17.76
926,1715532340650,0.1,-0.77,1.46,-127.56,40.77,17.76
927,1715532340660,0.10000000000000002,-0.77,1.46,-127.56,40.77,17.76
928,1715532340670,0.1,-0.77,1.46,-127.56,40.77,17.76
929,1715532340680,0.1,-0.77,1.46,-127.56,40.77,17.76
930,1715532340690,0.1,-0.77,1.46,-127.56,40.77,17.76
931,1715532340700,0.10000000000000002,-0.77,1.46,-127.56,40.77,17.76
932,1715532340710,0.1,-0.77,1.46,-127.56,40.77,17.76
933,1715532340720,0.10000000000000002,-0.77,1.46,-127.56,40.77,17.76
934,1715532340730,0.38999999999999996,-0.5133333333333333,1.2666666666666666,-192.50333333333333,38.67333333333334,15.38
935,1715532340740,0.97,0.0,0.88,-322.39,34.48,10.62
936,1715532340750,0.9700000000000001,0.0,0.88,-322.39,34.48,10.62
937,1715532340760,0.9733333333333333,0.04,0.7866666666666666,-323.06,9.6,-20.243333333333336
938,1715532340770,0.98,0.12,0.6,-324.4,-40.16,-81.97
939,1715532340780,0.98,0.12,0.6,-324.4,-40.16,-81.97
940,1715532340790,0.98,0.12,0.6,-324.4,-40.16,-81.97
941,1715532340800,0.8999999999999999,0.034999999999999996,0.5549999999999999,-324.4,-40.16,-81.97
942,1715532340810,0.82,-0.05,0.51,-323.06,-56.09,-157.1
943,1715532340820,0.82,-0.05000000000000001,0.51,-323.06,-56.09,-157.1
944,1715532340830,0.82,-0.05,0.51,-323.06,-56.09,-157.1
945,1715532340840,0.5875,-0.155,0.5475000000000001,-317.015,-85.34,-183.8825
946,1715532340850,0.51,-0.19,0.56,-315.0,-95.09,-192.81
947,1715532340860,0.51,-0.19000000000000003,0.56,-315.0,-95.08999999999999,-192.81000000000003
948,1715532340870,0.51,-0.19,0.56,-315.0,-95.09,-192.81
949,1715532340880,0.63,-0.16,1.22,-319.77750000000003,-125.105,-191.4975
950,1715532340890,0.75,-0.13,1.88,-334.11,-215.15,-187.56
951,1715532340900,0.75,-0.13,1.88,-334.11,-215.15,-187.56
952,1715532340910,0.75,-0.13,1.88,-334.11,-215.15,-187.56
953,1715532340920,0.63,-0.2125,3.425,-289.615,-213.8675,-183.76
954,1715532340930,0.59,-0.24,3.94,-156.13,-210.02,-172.36
955,1715532340940,0.59,-0.24,3.94,-156.13,-210.02,-172.36
956,1715532340950,0.45249999999999996,-0.0625,3.8275,-156.13,-210.02,-172.36
957,1715532340960,0.04,0.47,3.49,-71.485,-30.0725,-119.995
958,1715532340970,0.04,0.47,3.49,-43.27,29.91,-102.54
959,1715532340980,0.04,0.47,3.49,-43.27,29.91,-102.54
960,1715532340990,0.04,0.47,3.49,-43.27,29.91,-102.54
961,1715532341000,0.04,0.47,3.49,-43.27,29.91,-102.54
962,1715532341010,0.04,0.47,3.49,-43.27,29.91,-102.54
963,1715532341020,0.04,0.47,3.49,-43.27,29.91,-102.54
964,1715532341030,0.04,0.47,3.49,-43.27,29.91,-102.54
965,1715532341040,0.04,0.47,3.49,-43.27,29.91,-102.54
966,1715532341050,0.04,0.47,3.49,-43.27,29.91,-102.54
967,1715532341060,0.24,0.305,2.9050000000000002,67.96499999999999,89.935,-0.365000000000002
968,1715532341070,0.64,0.07333333333333335,1.82,207.56000000000003,162.37333333333333,123.08999999999999
969,1715532341080,0.74,0.04,1.57,221.74,168.58,133.73
970,1715532341090,0.74,0.04,1.57,221.74,168.58,133.73
971,1715532341100,0.7399999999999999,0.04,1.57,221.74,168.58,133.73
972,1715532341110,0.7825,-0.07,1.4125,242.31,177.0625,133.2575
973,1715532341120,0.91,-0.4000000000000001,0.94,304.02,202.51,131.84
974,1715532341130,0.91,-0.4,0.94,304.02,202.51,131.84
975,1715532341140,0.91,-0.4,0.94,304.02,202.51,131.84
976,1715532341150,0.88,-0.5575,0.6775,364.34999999999997,163.42,126.66499999999999
977,1715532341160,0.87,-0.61,0.59,384.46,150.39,124.94
978,1715532341170,0.87,-0.61,0.59,384.46,150.39,124.94
979,1715532341180,0.87,-0.61,0.59,384.46,150.39,124.94
980,1715532341190,0.87,-0.61,0.59,384.46,150.39,124.94
981,1715532341200,0.87,-0.61,0.59,384.46,150.39,124.94
982,1715532341210,0.87,-0.61,0.59,384.46,150.39,124.94
983,1715532341220,0.87,-0.61,0.59,384.46,150.39,124.94
984,1715532341230,0.87,-0.61,0.59,384.46,150.39,124.94
985,1715532341240,0.87,-0.61,0.59,384.46,150.39,124.94
986,1715532341250,0.8625,-0.5175,0.655,401.79499999999996,129.89749999999998,106.675
987,1715532341260,0.5399999999999999,0.0,0.4766666666666666,453.8,68.42,51.88
988,1715532341270,-0.06,0.48,-0.27,342.83750000000003,45.394999999999996,37.2325
989,1715532341280,-0.06,0.48,-0.27,305.85,37.72,32.35
990,1715532341290,-0.06,0.48,-0.27,305.85,37.72,32.35
991,1715532341300,-0.06,0.48,-0.27,305.85,37.72,32.35
992,1715532341310,-0.009999999999999998,0.06,0.345,155.70000000000002,-1.6500000000000021,-4.544999999999998
993,1715532341320,0.04,-0.36000000000000004,0.96,5.55,-41.02,-41.44
994,1715532341330,0.04,-0.36,0.96,5.55,-41.02,-41.44
995,1715532341340,-0.16999999999999998,-0.66,0.825,-53.99,-2.3850000000000016,29.97
996,1715532341350,-0.24,-0.76,0.78,-113.53,36.25,101.38
997,1715532341360,-0.24,-0.76,0.78,-113.53,36.25,101.38
998,1715532341370,-0.24,-0.76,0.78,-113.53,36.25,101.38
999,1715532341380,0.56,-0.54,0.18000000000000002,-269.1,-28.08,118.16000000000001
1000,1715532341390,0.56,-0.54,0.18,-269.1,-28.08,118.16
1001,1715532341400,0.56,-0.54,0.18,-269.1,-28.08,118.16
1002,1715532341410,0.7450000000000001,-0.7225,0.465,-269.1,-28.08,118.16
1003,1715532341420,1.3,-1.27,1.32,-269.1,-28.08,118.16000000000001
1004,1715532341430,1.3,-1.27,1.32,-405.76,-102.97,95.09
1005,1715532341440,1.3,-1.27,1.32,-405.76,-102.97,95.09
1006,1715532341450,1.3275000000000001,-1.1325,1.3175000000000001,-393.4475,-73.9325,74.53750000000001
1007,1715532341460,1.41,-0.72,1.31,-356.51,13.18,12.88
1008,1715532341470,1.41,-0.72,1.31,-356.51,13.18,12.88
1009,1715532341480,1.41,-0.72,1.31,-356.51,13.18,12.88
1010,1715532341490,1.2566666666666666,-0.7200000000000001,1.1633333333333333,-356.51,13.18,12.88
1011,1715532341500,0.95,-0.72,0.87,-320.86,27.1,-39.0
1012,1715532341510,0.95,-0.72,0.8699999999999999,-320.86,27.1,-39.0
1013,1715532341520,0.95,-0.72,0.87,-320.86,27.1,-39.0
1014,1715532341530,0.9499999999999998,-0.7200000000000001,0.87,-320.86,27.100000000000005,-39.0
1015,1715532341540,0.95,-0.72,0.87,-320.86,27.1,-39.0
1016,1715532341550,0.95,-0.72,0.87,-320.86,27.1,-39.0
1017,1715532341560,0.95,-0.72,0.87,-320.86,27.1,-39.0
1018,1715532341570,0.95,-0.72,0.87,-320.86,27.1,-39.0
1019,1715532341580,0.95,-0.72,0.87,-320.86,27.1,-39.0
1020,1715532341590,0.56,0.1,1.1,-346.8,-129.64,-108.76
1021,1715532341600,0.56,0.1,1.1,-346.8,-129.64,-108.76
1022,1715532341610,1.055,0.1675,2.705,-246.3675,-317.7325,-90.91
1023,1715532341620,1.22,0.19,3.24,-212.89,-380.43,-84.96
1024,1715532341630,1.22,0.19000000000000003,3.24,-212.89,-380.43,-84.96
1025,1715532341640,1.22,0.19,3.24,-212.89,-380.43,-84.96
1026,1715532341650,0.875,0.8049999999999999,3.9525000000000006,-95.155,-191.925,-113.07
1027,1715532341660,0.76,1.01,4.19,-55.91,-129.09,-122.44
1028,1715532341670,0.76,1.01,4.19,-55.91,-129.09,-122.44
1029,1715532341680,0.62,1.1133333333333333,3.7933333333333334,-55.91,-129.09,-122.44
1030,1715532341690,0.34,1.32,3.0,-141.3,127.5,-131.35
1031,1715532341700,0.34,1.32,3.0,-141.3,127.5,-131.35
1032,1715532341710,0.34,1.32,3.0,-141.3,127.5,-131.35
1033,1715532341720,0.34,1.32,3.0,-141.3,127.5,-131.35
1034,1715532341730,0.34,1.32,3.0,-141.3,127.5,-131.35
1035,1715532341740,0.34,1.32,3.0,-141.3,127.5,-131.35
1036,1715532341750,0.34,1.32,3.0,-141.3,127.5,-131.35
1037,1715532341760,0.34,1.32,3.0,-141.3,127.5,-131.35
1038,1715532341770,0.34,1.32,3.0,-141.3,127.5,-131.35
1039,1715532341780,0.51,0.8500000000000001,2.32,26.394999999999996,178.76999999999998,-97.38499999999999
1040,1715532341790,0.68,0.38000000000000006,1.64,194.09,230.04,-63.419999999999995
1041,1715532341800,0.65,0.0050000000000000044,1.4,237.45499999999998,231.29,-38.425
1042,1715532341810,0.62,-0.37,1.16,280.82,232.54,-13.43
1043,1715532341820,0.62,-0.37,1.16,280.82,232.54,-13.43
1044,1715532341830,0.62,-0.37,1.16,280.82,232.54,-13.43
1045,1715532341840,0.62,-0.36999999999999994,1.16,280.82,232.54,-13.43
1046,1715532341850,0.815,-1.0525,1.0325,395.3975,205.63,29.740000000000002
1047,1715532341860,0.88,-1.28,0.9899999999999999,433.59,196.66,44.13
1048,1715532341870,0.88,-1.28,0.99,433.59,196.66,44.13
1049,1715532341880,1.04,-1.5,0.46,462.615,202.06,64.24
1050,1715532341890,1.04,-1.5,0.46,491.64,207.46,84.35
1051,1715532341900,1.04,-1.5,0.46,491.64,207.46,84.35
1052,1715532341910,0.9675,-1.375,0.325,491.64,207.46,84.35
1053,1715532341920,0.75,-1.0,-0.08,426.57,166.75,91.31
1054,1715532341930,0.75,-1.0,-0.08,426.57,166.75,91.31
1055,1715532341940,0.75,-1.0,-0.08,426.57,166.75,91.31
1056,1715532341950,0.75,-1.0,-0.08,426.57,166.75,91.31
1057,1715532341960,0.27,-0.27,-0.92,294.49,79.53,223.69
1058,1715532341970,0.27,-0.27,-0.92,294.49,79.53,223.69
1059,1715532341980,0.27,-0.27,-0.92,294.49,79.53,223.69
1060,1715532341990,0.65,-0.2366666666666667,-0.28,179.66333333333333,25.25,233.04999999999998
1061,1715532342000,1.41,-0.17,1.0,-49.99,-83.31,251.77
1062,1715532342010,1.41,-0.17,1.0,-49.99,-83.31,251.77
1063,1715532342020,1.41,-0.17,1.0,-49.99,-83.31,251.77
1064,1715532342030,1.41,-0.17,1.0,-49.99,-83.31,251.77
1065,1715532342040,1.41,-0.17,1.0,-49.99,-83.31,251.77
1066,1715532342050,1.41,-0.17,1.0,-49.99,-83.31,251.77
1067,1715532342060,1.41,-0.17,1.0,-49.99,-83.31,251.77
1068,1715532342070,1.41,-0.17,1.0,-49.99,-83.31,251.77
1069,1715532342080,1.41,-0.17,1.0,-49.99,-83.31,251.77
1070,1715532342090,1.41,-0.17,1.0,-49.99,-83.31,251.77
1071,1715532342100,1.41,-0.17,1.0,-49.99,-83.31,251.77
1072,1715532342110,1.3624999999999998,-0.3775,1.13,-151.965,-72.4925,213.60750000000002
1073,1715532342120,1.22,-1.0,1.5200000000000002,-457.89000000000004,-40.04,99.12
1074,1715532342130,1.22,-1.0,1.52,-457.89,-40.04,99.12
1075,1715532342140,1.22,-1.0,1.52,-457.89,-40.04,99.12
1076,1715532342150,1.05,-0.83,1.11,-465.455,-23.56,64.14500000000001
1077,1715532342160,1.05,-0.83,1.11,-473.02,-7.08,29.17
1078,1715532342170,1.05,-0.83,1.11,-473.02,-7.08,29.17
1079,1715532342180,1.0433333333333332,-0.75,1.1600000000000001,-473.02,-7.080000000000001,29.17
1080,1715532342190,1.03,-0.59,1.26,-463.87,-20.174999999999997,11.8675
1081,1715532342200,1.03,-0.59,1.26,-460.82,-24.540000000000003,6.099999999999999
1082,1715532342210,1.03,-0.59,1.26,-460.82,-24.54,6.1
1083,1715532342220,1.03,-0.59,1.26,-460.82,-24.54,6.1
1084,1715532342230,1.03,-0.59,1.26,-460.82,-24.54,6.1
1085,1715532342240,1.03,-0.59,1.26,-460.82,-24.54,6.1
1086,1715532342250,1.03,-0.59,1.26,-460.82,-24.54,6.1
1087,1715532342260,1.03,-0.59,1.26,-460.82,-24.540000000000003,6.099999999999999
1088,1715532342270,1.03,-0.59,1.26,-460.82,-24.54,6.1
1089,1715532342280,1.03,-0.59,1.26,-460.82,-24.54,6.1
1090,1715532342290,1.03,-0.59,1.26,-460.82,-24.54,6.1
1091,1715532342300,1.195,-0.21749999999999997,1.3275000000000001,-423.5425,-48.8775,-33.129999999999995
1092,1715532342310,1.69,0.9,1.53,-311.71,-121.89,-150.82
1093,1715532342320,1.6900000000000002,0.9,1.53,-311.71,-121.89,-150.82
1094,1715532342330,1.69,0.9,1.53,-311.71,-121.89,-150.82
1095,1715532342340,1.92,0.34,3.11,-311.71,-121.89,-150.82
1096,1715532342350,1.92,0.34,3.11,-389.83,46.14000000000001,-398.85999999999996
1097,1715532342360,1.92,0.34,3.11,-389.83,46.14,-398.86
1098,1715532342370,1.92,0.34,3.11,-389.83,46.14000000000001,-398.85999999999996
1099,1715532342380,0.33,-0.01,2.15,-51.27,188.29,-361.33
1100,1715532342390,0.33,-0.01,2.15,-51.27,188.29,-361.33
1101,1715532342400,0.33,-0.01,2.15,-51.27,188.29,-361.33
1102,1715532342410,0.04250000000000004,-0.125,2.3899999999999997,-51.27,188.29,-361.33
1103,1715532342420,-0.82,-0.47,3.11,-148.74,67.32,-301.76
1104,1715532342430,-0.82,-0.47,3.11,-148.74,67.32,-301.76
1105,1715532342440,-0.82,-0.47,3.11,-148.74,67.32,-301.76
1106,1715532342450,-0.82,-0.47,3.11,-148.74,67.32,-301.76
1107,1715532342460,0.41,-0.5975,3.95,51.7575,245.715,35.28999999999999
1108,1715532342470,0.82,-0.64,4.23,118.59,305.18,147.64
1109,1715532342480,0.82,-0.64,4.23,118.59,305.18,147.64
1110,1715532342490,1.385,-1.58,3.6050000000000004,187.4075,311.5425,182.2925
1111,1715532342500,1.95,-2.52,2.98,393.86,330.63,286.25
1112,1715532342510,1.95,-2.52,2.98,393.85999999999996,330.63,286.25
1113,1715532342520,1.95,-2.52,2.98,393.86,330.63,286.25
1114,1715532342530,2.27,-2.606666666666667,1.68,486.57,336.64,318.05
1115,1715532342540,2.43,-2.65,1.03,579.28,342.65,349.85
1116,1715532342550,2.43,-2.65,1.03,579.28,342.6499999999999,349.8500000000001
1117,1715532342560,2.43,-2.65,1.03,579.28,342.65,349.85
1118,1715532342570,2.43,-2.65,1.03,579.28,342.6499999999999,349.8500000000001
1119,1715532342580,2.43,-2.65,1.03,579.28,342.65,349.85
1120,1715532342590,2.43,-2.65,1.03,579.28,342.6499999999999,349.8500000000001
1121,1715532342600,2.43,-2.65,1.03,579.28,342.65,349.85
1122,1715532342610,2.43,-2.65,1.03,579.28,342.65,349.85
1123,1715532342620,2.43,-2.65,1.03,579.28,342.65,349.85
1124,1715532342630,2.43,-2.65,1.03,579.28,342.6499999999999,349.8500000000001
1125,1715532342640,1.62,-1.62,-0.26,553.65,158.69,175.9
1126,1715532342650,1.47,-0.32,-0.9,553.65,158.69,175.9
1127,1715532342660,1.47,-0.32,-0.9,455.75,58.17,96.01
1128,1715532342670,1.47,-0.32,-0.9,455.75,58.17,96.01
1129,1715532342680,1.3539999999999999,-0.11200000000000002,-0.64,319.54200000000003,44.642,41.370000000000005
1130,1715532342690,1.18,0.2,-0.25,115.22999999999999,24.35,-40.59
1131,1715532342700,1.18,0.2,-0.25,115.23,24.35,-40.59
1132,1715532342710,1.18,0.2,-0.25,115.22999999999999,24.35,-40.59
1133,1715532342720,0.7,-0.29500000000000004,0.135,-29.695,91.675,-92.99
1134,1715532342730,0.22,-0.79,0.52,-174.62,159.0,-145.39
1135,1715532342740,0.22000000000000003,-0.79,0.52,-174.62,159.0,-145.39
1136,1715532342750,0.22,-0.79,0.52,-174.62,159.0,-145.39
1137,1715532342760,0.22000000000000003,-0.79,0.52,-174.62,159.0,-145.39
1138,1715532342770,0.22,-0.79,0.52,-174.62,159.0,-145.39
1139,1715532342780,0.22,-0.79,0.52,-174.62,159.0,-145.39
1140,1715532342790,0.22,-0.79,0.52,-174.62,159.0,-145.39
1141,1715532342800,0.22,-0.79,0.52,-174.62,159.0,-145.39
1142,1715532342810,0.22,-0.79,0.52,-174.62,159.0,-145.39
1143,1715532342820,0.22,-0.79,0.52,-174.62,159.0,-145.39
1144,1715532342830,0.6174999999999999,-1.1800000000000002,1.0225,-375.395,-22.83,-31.539999999999996
1145,1715532342840,1.08,-0.95,1.38,-395.63,-112.73,35.1
1146,1715532342850,1.08,-0.9499999999999998,1.38,-395.62999999999994,-112.73,35.1
1147,1715532342860,1.08,-0.95,1.38,-395.63,-112.73,35.1
1148,1715532342870,1.08,-0.95,1.38,-395.63,-112.73,35.1
1149,1715532342880,1.03,-0.5,1.5,-349.0,-100.28000000000002,20.26
1150,1715532342890,1.03,-0.5,1.5,-349.0,-100.28,20.26
1151,1715532342900,1.03,-0.5,1.5,-349.0,-100.28,20.26
1152,1715532342910,0.9199999999999999,-0.42333333333333334,1.3333333333333333,-333.68,-86.24333333333334,15.97
1153,1715532342920,0.7,-0.27,1.0,-303.04,-58.17,7.39
1154,1715532342930,0.7,-0.27,1.0,-303.04,-58.17,7.39
1155,1715532342940,0.7,-0.27,1.0,-303.04,-58.17,7.39
1156,1715532342950,0.725,-0.14500000000000002,1.03,-303.04,-58.17,7.39
1157,1715532342960,0.75,-0.02,1.06,-302.73,-125.0,19.59
1158,1715532342970,0.75,-0.02,1.06,-302.73,-125.0,19.59
1159,1715532342980,0.75,-0.02,1.06,-302.73,-125.0,19.59
1160,1715532342990,1.02,0.3625,1.9899999999999998,-287.49,-211.565,-5.632499999999999
1161,1715532343000,1.11,0.49,2.3,-282.41,-240.42,-14.04
1162,1715532343010,1.11,0.49,2.3,-282.41,-240.42,-14.04
1163,1715532343020,1.11,0.49,2.3,-282.41,-240.42,-14.04
1164,1715532343030,1.465,0.785,3.195,-222.26000000000002,-202.545,-44.83
1165,1715532343040,1.82,1.08,4.09,-162.11,-164.67,-75.62
1166,1715532343050,1.82,1.08,4.09,-162.11,-164.67,-75.62
1167,1715532343060,1.82,1.08,4.09,-162.11,-164.67,-75.62
1168,1715532343070,1.82,1.08,4.09,-162.11,-164.67,-75.62
1169,1715532343080,1.82,1.08,4.09,-162.11,-164.67,-75.62
1170,1715532343090,1.82,1.08,4.09,-162.11,-164.67,-75.62
1171,1715532343100,1.82,1.08,4.09,-162.11,-164.67,-75.62
1172,1715532343110,1.82,1.08,4.09,-162.11,-164.67,-75.62
1173,1715532343120,1.82,1.08,4.09,-162.11,-164.67,-75.62
1174,1715532343130,1.82,1.08,4.09,-162.11,-164.67,-75.62
1175,1715532343140,1.82,1.08,4.09,-162.11,-164.67,-75.62
1176,1715532343150,1.82,1.08,4.09,-162.11,-164.67,-75.62
1177,1715532343160,1.21,0.63,3.205,6.469999999999999,-1.25,-89.72
1178,1715532343170,0.6,0.18,2.32,175.05,162.17,-103.82
1179,1715532343180,0.6224999999999999,0.06,2.2125,195.2975,176.08499999999998,-85.41749999999999
1180,1715532343190,0.69,-0.3,1.89,256.04,217.83,-30.209999999999997
1181,1715532343200,0.69,-0.3,1.89,256.04,217.83,-30.21
1182,1715532343210,0.69,-0.3,1.89,256.04,217.83,-30.21
1183,1715532343220,0.75,-0.64,1.705,322.385,208.09500000000003,-1.8000000000000007
1184,1715532343230,0.81,-0.98,1.52,388.73,198.36,26.61
1185,1715532343240,0.81,-0.98,1.52,388.73,198.36,26.61
1186,1715532343250,0.81,-0.98,1.5200000000000002,388.73,198.36,26.61
1187,1715532343260,0.98,-1.15,1.3050000000000002,388.73,198.36,26.61
1188,1715532343270,1.15,-1.32,1.09,388.73,198.36,26.61
1189,1715532343280,1.15,-1.32,1.09,388.73,198.36,26.61
1190,1715532343290,1.15,-1.32,1.09,388.73,198.36,26.61
1191,1715532343300,1.15,-1.32,1.09,388.73,198.36,26.61
1192,1715532343310,1.15,-1.32,1.09,388.73,198.36,26.61
1193,1715532343320,1.15,-1.32,1.09,388.73,198.36,26.61
1194,1715532343330,1.15,-1.32,1.09,388.73,198.36,26.61
1195,1715532343340,1.15,-1.32,1.09,388.73,198.36,26.61
1196,1715532343350,0.9949999999999999,-1.09,0.7875000000000001,416.39750000000004,171.38500000000002,51.4225
1197,1715532343360,0.53,-0.4,-0.12,401.98,108.52,78.74
1198,1715532343370,0.53,-0.4000000000000001,-0.12,401.98,108.52,78.74
1199,1715532343380,0.5800000000000001,-0.21500000000000002,0.22000000000000003,243.745,70.345,68.33
1200,1715532343390,0.63,-0.03,0.56,85.51,32.17,57.92
1201,1715532343400,0.63,-0.03,0.56,85.51,32.17,57.92
1202,1715532343410,0.45999999999999996,-0.09333333333333334,0.61,39.87666666666667,55.38333333333333,61.01333333333334
1203,1715532343420,0.12,-0.22,0.71,-51.39,101.81,67.2
1204,1715532343430,0.12,-0.22,0.71,-51.39,101.81,67.2
1205,1715532343440,0.12,-0.22,0.71,-51.39000000000001,101.81,67.2
1206,1715532343450,0.215,-0.265,0.62,-149.015,102.725,82.46000000000001
1207,1715532343460,0.31,-0.31,0.53,-246.64,103.64,97.72
1208,1715532343470,0.31,-0.31,0.53,-246.64,103.64,97.72
1209,1715532343480,0.31,-0.31,0.53,-246.64,103.64,97.71999999999998
1210,1715532343490,0.31,-0.31,0.53,-246.64,103.64,97.72
1211,1715532343500,0.52,-0.95,0.7,-328.67,47.3,68.05
1212,1715532343510,0.52,-0.95,0.7,-328.67,47.3,68.05
1213,1715532343520,0.52,-0.9499999999999998,0.6999999999999998,-328.67,47.29999999999999,68.05
1214,1715532343530,0.7825,-1.0325,0.6775,-314.345,-2.3200000000000003,75.055
1215,1715532343540,0.87,-1.06,0.67,-309.57,-18.86,77.39
1216,1715532343550,0.87,-1.06,0.67,-309.57,-18.86,77.39
1217,1715532343560,0.87,-1.06,0.67,-309.57,-18.86,77.39
1218,1715532343570,1.09,-0.74,1.07,-305.05,-24.17,32.71
1219,1715532343580,1.09,-0.7399999999999999,1.07,-305.05,-24.17,32.71
1220,1715532343590,1.09,-0.74,1.07,-305.05,-24.17,32.71
1221,1715532343600,1.09,-0.74,1.07,-305.05,-24.17,32.71
1222,1715532343610,1.09,-0.7399999999999999,1.07,-305.05,-24.17,32.71
1223,1715532343620,1.09,-0.74,1.07,-305.05,-24.17,32.71
1224,1715532343630,1.09,-0.74,1.07,-305.05,-24.17,32.71
1225,1715532343640,1.09,-0.74,1.07,-305.05,-24.17,32.71
1226,1715532343650,1.09,-0.7399999999999999,1.07,-305.05,-24.17,32.71
1227,1715532343660,1.09,-0.74,1.07,-305.05,-24.17,32.71
1228,1715532343670,1.09,-0.74,1.07,-305.05,-24.17,32.71
1229,1715532343680,1.09,-0.74,1.07,-305.05,-24.17,32.71
1230,1715532343690,1.71,0.08,1.48,-357.91,-239.26,-124.45
1231,1715532343700,1.71,0.08,1.4799999999999998,-357.91,-239.26,-124.45
1232,1715532343710,1.71,0.08,1.48,-357.91,-239.26,-124.45
1233,1715532343720,2.085,0.0049999999999999975,2.6550000000000002,-363.1275,-236.1925,-152.0675
1234,1715532343730,2.46,-0.07,3.83,-378.78,-226.99,-234.92
1235,1715532343740,2.46,-0.07,3.83,-378.78,-226.99,-234.92
1236,1715532343750,2.46,-0.07,3.83,-378.78,-226.99,-234.92
1237,1715532343760,0.54,0.0049999999999999975,3.1025,-312.315,-4.795000000000005,-206.9075
1238,1715532343770,-0.1,0.03,2.86,-290.16,69.27,-197.57
1239,1715532343780,-0.1,0.03,2.86,-290.16,69.27,-197.57
1240,1715532343790,-0.10000000000000002,0.03,2.86,-290.16,69.27,-197.57000000000002
1241,1715532343800,-0.1,0.03,2.86,-290.16,69.27,-197.57
1242,1715532343810,-0.1,0.03,2.86,-290.16,69.27,-197.57
1243,1715532343820,-0.1,0.03,2.86,-290.16,69.27,-197.57
1244,1715532343830,-0.10000000000000002,0.03,2.86,-290.16,69.27,-197.57000000000002
1245,1715532343840,-0.1,0.03,2.86,-290.16,69.27,-197.57
1246,1715532343850,-0.10000000000000002,0.03,2.86,-290.16,69.27,-197.57000000000002
1247,1715532343860,-0.1,0.03,2.86,-290.16,69.27,-197.57
1248,1715532343870,-0.1,0.03,2.86,-290.16,69.27,-197.57
1249,1715532343880,1.12,-0.27,1.8099999999999998,437.32,224.0,190.67
1250,1715532343890,1.12,-0.27,1.8099999999999998,437.32,224.0,190.67
1251,1715532343900,1.12,-0.27,1.81,437.32,224.0,190.67
1252,1715532343910,1.32,-0.485,1.205,513.61,191.315,156.58499999999998
1253,1715532343920,1.5200000000000002,-0.6999999999999998,0.6,589.9,158.63,122.5
1254,1715532343930,1.52,-0.7,0.6,589.9,158.63,122.5
1255,1715532343940,1.52,-0.7,0.6,589.9,158.63,122.5
1256,1715532343950,1.3066666666666666,-0.7466666666666667,0.6066666666666666,602.4733333333334,59.10333333333333,46.20666666666667
1257,1715532343960,1.2,-0.77,0.61,608.76,9.34,8.06
1258,1715532343970,1.2,-0.77,0.61,608.76,9.34,8.06
1259,1715532343980,1.2,-0.77,0.61,608.76,9.34,8.06
1260,1715532343990,1.0725,-0.7525,0.6725,589.0775,-4.027500000000001,-19.1625
1261,1715532344000,0.69,-0.7,0.86,530.03,-44.13,-100.83
1262,1715532344010,0.69,-0.7,0.86,530.03,-44.13,-100.83
1263,1715532344020,0.69,-0.7,0.86,530.03,-44.13,-100.83
1264,1715532344030,0.24,-0.32,0.61,411.19,-34.36,-80.26
1265,1715532344040,0.24,-0.32,0.61,411.19,-34.36,-80.26
1266,1715532344050,0.24,-0.32,0.61,411.19,-34.36,-80.26
1267,1715532344060,0.4275,-0.415,0.8075,411.19,-34.36,-80.26
1268,1715532344070,0.9899999999999999,-0.6999999999999998,1.3999999999999997,-6.650000000000001,-13.24,-62.26
1269,1715532344080,0.99,-0.7,1.4,-6.65,-13.24,-62.26
1270,1715532344090,0.99,-0.7,1.4,-6.65,-13.24,-62.26
1271,1715532344100,0.9125,-0.875,1.4249999999999998,-10.3575,13.43,-70.4975
1272,1715532344110,0.68,-1.3999999999999997,1.5,-21.48,93.44,-95.21
1273,1715532344120,0.68,-1.3999999999999997,1.5,-21.48,93.44,-95.21
1274,1715532344130,0.68,-1.4,1.5,-21.48,93.44,-95.21
1275,1715532344140,0.68,-1.3999999999999997,1.5,-21.48,93.44,-95.21
1276,1715532344150,0.68,-1.4,1.5,-21.48,93.44,-95.21
1277,1715532344160,0.68,-1.4,1.5,-21.48,93.44,-95.21
1278,1715532344170,0.68,-1.3999999999999997,1.5,-21.48,93.44,-95.21
1279,1715532344180,0.68,-1.4,1.5,-21.48,93.44,-95.21
1280,1715532344190,0.68,-1.3999999999999997,1.5,-21.48,93.44,-95.21
1281,1715532344200,0.68,-1.4,1.5,-21.48,93.44,-95.21
1282,1715532344210,0.585,-1.305,1.0150000000000001,-255.005,10.314999999999998,25.634999999999998
1283,1715532344220,1.3,-1.1949999999999998,1.4525000000000001,-539.7025,-98.04,195.1925
1284,1715532344230,1.57,-1.19,1.76,-556.76,-106.45,211.43
1285,1715532344240,1.57,-1.19,1.76,-556.76,-106.45,211.43
1286,1715532344250,1.57,-1.19,1.76,-556.76,-106.45,211.43
1287,1715532344260,1.88,-0.22,1.91,-535.03,-11.47,105.04
1288,1715532344270,1.88,-0.22,1.91,-535.03,-11.47,105.04
1289,1715532344280,1.88,-0.22,1.91,-535.03,-11.47,105.04
1290,1715532344290,1.88,-0.22,1.91,-535.03,-11.47,105.04
1291,1715532344300,1.755,-0.14250000000000002,1.9075,-526.6075,16.909999999999997,76.49000000000001
1292,1715532344310,1.38,0.09,1.9,-501.34,102.05,-9.16
1293,1715532344320,1.38,0.09000000000000001,1.8999999999999997,-501.34,102.05,-9.16
1294,1715532344330,1.38,0.09,1.9,-501.34,102.05,-9.16
1295,1715532344340,1.38,0.09,1.9,-501.34,102.05,-9.16
1296,1715532344350,1.38,0.09,1.9,-501.34,102.05,-9.16
1297,1715532344360,1.38,0.09000000000000001,1.8999999999999997,-501.34,102.05,-9.16
1298,1715532344370,1.38,0.09,1.9,-501.34,102.05,-9.16
1299,1715532344380,1.38,0.09,1.9,-501.34,102.05,-9.16
1300,1715532344390,1.38,0.09,1.9,-501.34,102.05,-9.16
1301,1715532344400,1.1233333333333333,0.25333333333333335,2.1333333333333333,-386.71666666666664,-74.89,-25.820000000000004
1302,1715532344410,0.585,0.745,3.7300000000000004,-176.42000000000002,-204.70999999999998,-100.495
1303,1715532344420,0.56,0.91,4.86,-195.37,19.35,-141.85
1304,1715532344430,0.56,0.91,4.86,-195.37,19.35,-141.85
1305,1715532344440,0.56,0.91,4.86,-195.37,19.35,-141.85
1306,1715532344450,-0.15333333333333332,0.7966666666666667,3.3533333333333335,-1.7299999999999993,150.85666666666668,-88.91000000000001
1307,1715532344460,-0.51,0.74,2.6,95.09,216.61,-62.44
1308,1715532344470,-0.51,0.7399999999999999,2.6,95.08999999999999,216.61,-62.44
1309,1715532344480,-0.51,0.74,2.6,95.09,216.61,-62.44
1310,1715532344490,0.23,0.21,3.09,189.29,125.99666666666667,-32.77333333333333
1311,1715532344500,0.23,0.21,3.09,236.39,80.69,-17.94
1312,1715532344510,0.23,0.21,3.09,236.39,80.69,-17.94
1313,1715532344520,0.23,0.21,3.09,236.39,80.69,-17.94
1314,1715532344530,1.12,-0.42,3.19,297.455,183.275,23.437499999999996
1315,1715532344540,1.12,-0.42,3.19,317.81,217.47,37.23
1316,1715532344550,1.12,-0.42,3.19,317.81,217.47,37.23
1317,1715532344560,1.11,-0.5700000000000001,2.9225,317.81,217.47,37.23
1318,1715532344570,1.08,-1.02,2.12,419.98,218.51,86.06
1319,1715532344580,1.08,-1.02,2.12,419.98,218.51,86.06
1320,1715532344590,1.08,-1.02,2.12,419.98,218.51,86.06
1321,1715532344600,1.08,-1.02,2.12,419.98,218.51,86.06
1322,1715532344610,1.1800000000000002,-1.095,1.81,462.675,198.64,85.45
1323,1715532344620,1.28,-1.17,1.5,505.37,178.77,84.84
1324,1715532344630,1.28,-1.17,1.5,505.37,178.77,84.84
1325,1715532344640,1.28,-1.17,1.5,505.37000000000006,178.77,84.84
1326,1715532344650,1.28,-1.17,1.5,505.37,178.77,84.84
1327,1715532344660,1.28,-1.17,1.5,505.37,178.77,84.84
1328,1715532344670,1.28,-1.17,1.5,505.37,178.77,84.84
1329,1715532344680,1.28,-1.17,1.5,505.37,178.77,84.84
1330,1715532344690,1.28,-1.17,1.5,505.37,178.77,84.84
1331,1715532344700,1.28,-1.17,1.5,505.37000000000006,178.77,84.84
1332,1715532344710,1.28,-1.17,1.5,505.37,178.77,84.84
1333,1715532344720,1.28,-1.17,1.5,505.37,178.77,84.84
1334,1715532344730,1.28,-1.17,1.5,505.37000000000006,178.77,84.84
1335,1715532344740,0.39,-0.45,0.18,363.22,-9.28,16.72
1336,1715532344750,0.38999999999999996,-0.45,0.18000000000000002,363.22,-9.28,16.72
1337,1715532344760,0.6,-0.39,0.61,79.16,-70.13,9.64
1338,1715532344770,0.6,-0.39,0.61,79.16,-70.13,9.64
1339,1715532344780,0.6,-0.38999999999999996,0.61,79.16,-70.13,9.64
1340,1715532344790,0.5974999999999999,-0.48750000000000004,0.7075,34.177499999999995,-41.9475,4.0875
1341,1715532344800,0.59,-0.7799999999999999,1.0,-100.77,42.6,-12.57
1342,1715532344810,0.59,-0.78,1.0,-100.77,42.6,-12.57
1343,1715532344820,0.59,-0.7799999999999999,1.0,-100.77,42.6,-12.57
1344,1715532344830,0.43999999999999995,-0.785,0.645,-131.8225,52.167500000000004,0.16999999999999993
1345,1715532344840,0.29,-0.79,0.29,-224.98,80.87,38.39
1346,1715532344850,0.29,-0.79,0.29,-224.98,80.87,38.39
1347,1715532344860,0.29,-0.79,0.29,-224.98,80.87,38.39
1348,1715532344870,0.29,-0.79,0.29,-224.98,80.87,38.39
1349,1715532344880,0.29,-0.79,0.29,-224.98,80.87,38.39
1350,1715532344890,0.29,-0.79,0.29,-224.98,80.87,38.39
1351,1715532344900,0.29,-0.79,0.29,-224.98,80.87,38.39
1352,1715532344910,0.29,-0.79,0.29,-224.98,80.87,38.39
1353,1715532344920,0.29,-0.79,0.29,-224.98,80.87,38.39
1354,1715532344930,1.18,-1.27,1.44,-562.68,-106.08,96.8
1355,1715532344940,1.18,-1.27,1.44,-562.68,-106.08,96.8
1356,1715532344950,1.3375,-0.745,1.8674999999999997,-565.7925,-2.4449999999999985,55.925
1357,1715532344960,1.39,-0.57,2.01,-566.83,32.1,42.3
1358,1715532344970,1.39,-0.57,2.01,-566.83,32.1,42.3
1359,1715532344980,1.39,-0.57,2.01,-566.83,32.1,42.3
1360,1715532344990,0.72,-0.44,1.33,-570.5,287.78,-121.89
1361,1715532345000,0.72,-0.44000000000000006,1.33,-570.5,287.78,-121.89000000000001
1362,1715532345010,0.72,-0.44,1.33,-570.5,287.78,-121.89
1363,1715532345020,0.72,-0.44,1.33,-570.5,287.78,-121.89
1364,1715532345030,0.05000000000000001,-0.59,0.52,-399.29,-23.13,-190.49
1365,1715532345040,0.05,-0.59,0.52,-399.29,-23.13,-190.49
1366,1715532345050,0.05,-0.59,0.52,-399.29,-23.13,-190.49
1367,1715532345060,0.35,-0.605,1.675,-367.98,-130.9175,-176.375
1368,1715532345070,0.65,-0.62,2.83,-274.05,-454.28,-134.03
1369,1715532345080,0.65,-0.62,2.83,-274.05,-454.28,-134.03
1370,1715532345090,0.65,-0.62,2.83,-274.05,-454.28,-134.03
1371,1715532345100,0.54,-0.3,3.86,-274.05,-454.28,-134.03
1372,1715532345110,0.43,0.02,4.89,-287.37666666666667,-327.3066666666667,-117.59333333333332
1373,1715532345120,0.43,0.02,4.89,-314.03,-73.36,-84.72
1374,1715532345130,0.43,0.02,4.89,-314.03,-73.36,-84.72
1375,1715532345140,0.06,0.25,4.595,-140.565,-37.595,-68.025
1376,1715532345150,-0.31,0.48,4.3,32.9,-1.83,-51.33
1377,1715532345160,-0.31,0.48,4.3,32.9,-1.83,-51.33
1378,1715532345170,-0.31,0.48,4.3,32.9,-1.83,-51.33
1379,1715532345180,-0.31,0.48,4.3,32.9,-1.83,-51.330000000000005
1380,1715532345190,-0.31,0.48,4.3,32.9,-1.83,-51.33
1381,1715532345200,-0.31,0.48,4.3,32.9,-1.83,-51.33
1382,1715532345210,-0.31,0.48,4.3,32.9,-1.83,-51.33
1383,1715532345220,-0.31,0.48,4.3,32.9,-1.83,-51.33
1384,1715532345230,-0.31,0.48,4.3,32.9,-1.83,-51.330000000000005
1385,1715532345240,-0.31,0.48,4.3,32.9,-1.83,-51.33
1386,1715532345250,-0.31,0.48,4.3,32.9,-1.83,-51.33
1387,1715532345260,1.01,-0.92,2.39,436.26,180.19666666666663,77.05
1388,1715532345270,1.01,-0.92,2.39,468.75,176.82,85.94
1389,1715532345280,1.01,-0.92,2.39,468.75,176.82000000000002,85.94
1390,1715532345290,1.0625,-1.0350000000000001,2.14,484.315,185.685,88.67
1391,1715532345300,1.22,-1.38,1.39,531.01,212.28,96.86
1392,1715532345310,1.22,-1.38,1.39,531.01,212.28,96.86
1393,1715532345320,1.22,-1.38,1.39,531.01,212.28,96.86
1394,1715532345330,1.22,-1.38,1.39,531.01,212.28,96.86
1395,1715532345340,1.17,-1.24,0.91,555.48,121.58,50.29
1396,1715532345350,1.17,-1.24,0.91,555.48,121.58,50.29
1397,1715532345360,1.17,-1.24,0.91,555.48,121.58,50.29
1398,1715532345370,1.17,-1.24,0.91,555.48,121.58,50.29
1399,1715532345380,1.17,-1.24,0.91,555.48,121.58,50.29
1400,1715532345390,1.17,-1.24,0.91,555.48,121.58,50.29
1401,1715532345400,1.17,-1.24,0.91,555.48,121.58,50.29
1402,1715532345410,1.17,-1.24,0.91,555.48,121.58,50.29
1403,1715532345420,1.17,-1.24,0.91,555.48,121.58,50.29
1404,1715532345430,1.17,-1.24,0.91,555.48,121.58,50.29
1405,1715532345440,1.17,-1.24,0.91,555.48,121.58,50.29
1406,1715532345450,0.76,-0.935,0.96,280.425,90.545,19.105
1407,1715532345460,0.35,-0.63,1.01,5.37,59.51,-12.08
1408,1715532345470,0.3499999999999999,-0.63,1.01,5.37,59.51,-12.08
1409,1715532345480,0.35,-0.63,1.01,5.37,59.51,-12.08
1410,1715532345490,0.32,-1.05,0.48,-29.97,97.72,39.79
1411,1715532345500,0.32,-1.05,0.48,-29.97,97.72,39.79
1412,1715532345510,0.32,-1.05,0.48,-29.97,97.71999999999998,39.79
1413,1715532345520,0.32,-1.05,0.48,-29.97,97.72,39.79
1414,1715532345530,0.24,-1.0350000000000001,0.10499999999999998,-118.285,46.97,60.269999999999996
1415,1715532345540,0.16,-1.02,-0.27,-206.6,-3.78,80.75
1416,1715532345550,0.16,-1.02,-0.27,-206.6,-3.78,80.75
1417,1715532345560,0.16,-1.02,-0.27,-206.6,-3.78,80.75
1418,1715532345570,0.55,-1.17,0.18,-374.2325,-68.28,102.4475
1419,1715532345580,0.68,-1.22,0.33,-430.11,-89.78,109.68
1420,1715532345590,0.68,-1.22,0.33,-430.11,-89.78,109.68
1421,1715532345600,1.0133333333333334,-1.4133333333333333,0.7633333333333333,-473.12000000000006,-115.84333333333332,104.69666666666667
1422,1715532345610,1.18,-1.51,0.98,-559.14,-167.97,94.73
1423,1715532345620,1.18,-1.51,0.98,-559.14,-167.97,94.73
1424,1715532345630,1.18,-1.51,0.98,-559.14,-167.97,94.73
1425,1715532345640,1.5299999999999998,-1.195,1.575,-483.735,-209.14,87.345
1426,1715532345650,1.88,-0.88,2.17,-408.33,-250.31000000000003,79.96
1427,1715532345660,1.88,-0.88,2.17,-408.33,-250.31,79.96
1428,1715532345670,1.88,-0.88,2.17,-408.33,-250.31000000000003,79.96
1429,1715532345680,1.5875,-0.3325,1.8625,-362.1825,-106.565,26.627499999999998
1430,1715532345690,1.49,-0.15,1.76,-346.8,-58.65,8.85
1431,1715532345700,1.49,-0.15,1.76,-346.8,-58.65,8.85
1432,1715532345710,1.49,-0.15,1.76,-346.8,-58.65,8.85
1433,1715532345720,1.49,-0.15,1.76,-346.8,-58.65,8.85
1434,1715532345730,1.49,-0.15,1.76,-346.8,-58.65,8.85
1435,1715532345740,1.49,-0.15,1.76,-346.8,-58.65,8.85
1436,1715532345750,1.49,-0.15,1.76,-346.8,-58.65,8.85
1437,1715532345760,1.49,-0.15,1.76,-346.8,-58.65,8.85
1438,1715532345770,1.49,-0.15,1.76,-346.8,-58.65,8.85
1439,1715532345780,1.49,-0.039999999999999994,2.23,-351.775,-123.99000000000001,-30.639999999999997
1440,1715532345790,1.49,0.07,2.7000000000000006,-356.75,-189.33,-70.13
1441,1715532345800,1.52,0.3,4.52,-297.36,-31.07,-142.21
1442,1715532345810,1.52,0.3,4.52,-297.36,-31.07,-142.21
1443,1715532345820,1.5200000000000002,0.3,4.52,-297.36,-31.070000000000004,-142.21
1444,1715532345830,1.52,0.3,4.52,-297.36,-31.07,-142.21
1445,1715532345840,0.29333333333333333,0.5066666666666667,3.7066666666666666,-196.69333333333336,137.47,-142.41666666666666
1446,1715532345850,-0.32,0.61,3.3,-146.36,221.74,-142.52
1447,1715532345860,-0.32,0.61,3.2999999999999994,-146.36,221.74,-142.52
1448,1715532345870,-0.395,0.395,3.455,-105.80250000000001,213.8825,-115.51
1449,1715532345880,-0.47,0.18,3.61,15.87,190.31,-34.48
1450,1715532345890,-0.47,0.18000000000000002,3.61,15.87,190.31000000000003,-34.48
1451,1715532345900,-0.47,0.18,3.61,15.87,190.31,-34.48
1452,1715532345910,-0.47,0.18000000000000002,3.61,15.87,190.31000000000003,-34.48
1453,1715532345920,-0.47,0.18,3.61,15.87,190.31,-34.48
1454,1715532345930,-0.47,0.18,3.61,15.87,190.31,-34.48
1455,1715532345940,-0.47,0.18000000000000002,3.61,15.87,190.31000000000003,-34.48
1456,1715532345950,-0.47,0.18000000000000002,3.61,15.87,190.31000000000003,-34.48
1457,1715532345960,-0.47,0.18,3.61,15.87,190.31,-34.48
1458,1715532345970,-0.09999999999999998,-0.09500000000000003,3.1425,131.105,185.96,27.560000000000002
1459,1715532345980,1.1125,-0.9550000000000001,1.5025,476.81,172.91,213.68
1460,1715532345990,1.42,-1.06,0.79,563.72,182.42999999999998,190.49
1461,1715532346000,1.42,-1.06,0.79,563.72,182.43,190.49
1462,1715532346010,1.42,-1.06,0.79,563.72,182.42999999999998,190.49
1463,1715532346020,1.42,-1.06,0.79,563.72,182.43,190.49
1464,1715532346030,1.09,-0.89,0.42,563.2175,152.6,168.32
1465,1715532346040,1.09,-0.89,0.42,561.71,63.11,101.81
1466,1715532346050,1.09,-0.89,0.42,561.71,63.10999999999999,101.81
1467,1715532346060,0.9625,-0.7525000000000001,0.4075,544.4825000000001,42.175,81.83500000000001
1468,1715532346070,0.58,-0.34,0.36999999999999994,492.8,-20.63,21.91
1469,1715532346080,0.58,-0.34,0.37,492.8,-20.63,21.91
1470,1715532346090,0.58,-0.34,0.36999999999999994,492.8,-20.63,21.91
1471,1715532346100,0.27999999999999997,-0.11200000000000002,0.304,401.10200000000003,-63.145999999999994,9.424
1472,1715532346110,0.08,0.04,0.26,339.97,-91.49,1.1
1473,1715532346120,0.08,0.04,0.26,339.97,-91.49,1.1
1474,1715532346130,0.08,0.04,0.26,339.97,-91.49,1.1
1475,1715532346140,0.375,-0.08,0.905,162.875,-93.015,6.99
1476,1715532346150,0.67,-0.20000000000000004,1.55,-14.22,-94.54,12.88
1477,1715532346160,0.67,-0.2,1.55,-14.22,-94.54,12.88
1478,1715532346170,0.67,-0.20000000000000004,1.55,-14.22,-94.54,12.88
1479,1715532346180,0.4375,-0.7549999999999999,1.4675,-26.9775,-40.86,2.182500000000001
1480,1715532346190,0.36,-0.94,1.44,-65.25,120.18,-29.91
1481,1715532346200,0.36000000000000004,-0.94,1.4400000000000002,-65.25,120.18,-29.91
1482,1715532346210,0.36,-0.94,1.44,-65.25,120.18,-29.91
1483,1715532346220,0.36,-0.94,1.44,-65.25,120.18,-29.91
1484,1715532346230,0.36,-0.94,1.44,-65.25,120.18,-29.91
1485,1715532346240,0.36,-0.94,1.44,-65.25,120.18,-29.91
1486,1715532346250,0.36000000000000004,-0.94,1.4400000000000002,-65.25,120.18,-29.91
1487,1715532346260,0.36,-0.94,1.44,-65.25,120.18,-29.91
1488,1715532346270,0.36,-0.94,1.44,-65.25,120.18,-29.91
1489,1715532346280,0.36000000000000004,-0.94,1.4400000000000002,-65.25,120.18,-29.91
1490,1715532346290,0.36,-0.94,1.44,-65.25,120.18,-29.91
1491,1715532346300,0.36000000000000004,-0.94,1.4400000000000002,-65.25,120.18,-29.91
1492,1715532346310,0.625,-0.745,0.5275,-301.7725,-28.474999999999998,95.69
1493,1715532346320,0.51,-0.72,0.32,-368.65,-93.08,107.06
1494,1715532346330,0.9433333333333334,-0.24,1.0200000000000002,-288.12333333333333,-43.72,80.73333333333333
1495,1715532346340,1.16,0.0,1.37,-247.86,-19.04,67.57
1496,1715532346350,1.16,0.0,1.37,-247.86,-19.04,67.57
1497,1715532346360,1.16,0.0,1.37,-247.86,-19.04,67.57
1498,1715532346370,1.0025,0.09,0.7925,-221.5875,56.852500000000006,25.592499999999998
1499,1715532346380,0.95,0.12,0.6,-212.83,82.15,11.6
1500,1715532346390,0.9499999999999998,0.12,0.6,-212.83,82.15,11.6
1501,1715532346400,0.95,0.12,0.6,-212.83,82.15,11.6
1502,1715532346410,0.95,0.3225,0.45749999999999996,-226.3825,14.725000000000001,-53.2675
1503,1715532346420,0.95,0.39,0.41,-230.9,-7.75,-74.89
1504,1715532346430,0.9499999999999998,0.38999999999999996,0.41,-230.9,-7.75,-74.89
1505,1715532346440,0.95,0.39,0.41,-230.9,-7.75,-74.89
1506,1715532346450,0.9499999999999998,0.38999999999999996,0.41,-230.9,-7.75,-74.89
1507,1715532346460,0.95,0.39,0.41,-230.9,-7.75,-74.89
1508,1715532346470,0.95,0.39,0.41,-230.9,-7.75,-74.89
1509,1715532346480,0.95,0.39,0.41,-230.9,-7.75,-74.89
1510,1715532346490,0.95,0.39,0.41,-230.9,-7.75,-74.89
1511,1715532346500,1.49,0.79,3.54,-521.79,-138.31,-151.92
1512,1715532346510,1.49,0.79,3.5400000000000005,-521.79,-138.31,-151.92
1513,1715532346520,1.1625,0.765,3.5525,-476.98999999999995,-84.0175,-151.415
1514,1715532346530,0.18,0.69,3.59,-342.59,78.86,-149.9
1515,1715532346540,0.18,0.69,3.59,-342.59,78.86,-149.9
1516,1715532346550,0.18,0.69,3.59,-342.59,78.86,-149.9
1517,1715532346560,0.0049999999999999906,0.575,3.6550000000000002,-200.58999999999997,82.85499999999999,-95.185
1518,1715532346570,-0.17,0.46,3.72,-58.59,86.84999999999998,-40.47
1519,1715532346580,-0.17,0.46,3.72,-58.59,86.85,-40.47
1520,1715532346590,-0.17,0.46,3.72,-58.59,86.85,-40.47
1521,1715532346600,-0.01,0.14,3.16,104.25,105.28333333333335,35.050000000000004
1522,1715532346610,0.07,-0.02,2.88,185.67,114.5,72.81
1523,1715532346620,0.07,-0.02,2.8800000000000003,185.67,114.5,72.81
1524,1715532346630,0.07,-0.02,2.88,185.67,114.5,72.81
1525,1715532346640,0.37000000000000005,-0.20666666666666667,2.2133333333333334,185.67,114.5,72.81
1526,1715532346650,0.52,-0.3,1.88,327.8025,131.165,97.44
1527,1715532346660,0.52,-0.3,1.88,375.18,136.72,105.65
1528,1715532346670,0.52,-0.3,1.88,375.18,136.72,105.65
1529,1715532346680,1.02,-0.69,1.13,506.8999999999999,145.26,99.73
1530,1715532346690,1.02,-0.69,1.13,506.9,145.26,99.73
1531,1715532346700,1.02,-0.69,1.13,506.9,145.26,99.73
1532,1715532346710,1.0125,-0.7274999999999999,0.9824999999999999,506.9,145.26,99.73
1533,1715532346720,0.9899999999999999,-0.84,0.54,540.59,105.65000000000002,35.1
1534,1715532346730,0.99,-0.84,0.54,540.59,105.65,35.1
1535,1715532346740,0.99,-0.84,0.54,540.59,105.65,35.1
1536,1715532346750,0.99,-0.84,0.54,540.59,105.65,35.1
1537,1715532346760,0.9899999999999999,-0.84,0.54,540.59,105.65000000000002,35.1
1538,1715532346770,0.99,-0.84,0.54,540.59,105.65,35.1
1539,1715532346780,0.99,-0.84,0.54,540.59,105.65,35.1
1540,1715532346790,0.99,-0.84,0.54,540.59,105.65,35.1
1541,1715532346800,0.99,-0.84,0.54,540.59,105.65,35.1
1542,1715532346810,0.99,-0.84,0.54,540.59,105.65,35.1
1543,1715532346820,0.99,-0.84,0.54,540.59,105.65,35.1
1544,1715532346830,0.8700000000000001,-0.45999999999999996,0.38000000000000006,395.63000000000005,19.143333333333334,11.72
1545,1715532346840,0.81,-0.27,0.3,183.65,-46.08,33.57
1546,1715532346850,0.81,-0.27,0.3,183.65,-46.08,33.57
1547,1715532346860,0.81,-0.27,0.3,183.65,-46.080000000000005,33.57
1548,1715532346870,0.5925,-0.945,1.0575,-74.3425,99.99000000000001,-22.229999999999997
1549,1715532346880,0.52,-1.17,1.31,-160.34,148.68,-40.83
1550,1715532346890,0.52,-1.17,1.31,-160.34,148.68,-40.83
1551,1715532346900,0.52,-1.17,1.31,-160.34,148.68,-40.83
1552,1715532346910,0.19,-1.14,0.41,-255.13,98.39,121.15
1553,1715532346920,0.19000000000000003,-1.14,0.41,-255.13,98.39,121.15000000000002
1554,1715532346930,0.19,-1.14,0.41,-255.13,98.39,121.15
1555,1715532346940,0.19,-1.14,0.41,-255.13,98.39,121.15
1556,1715532346950,0.19000000000000003,-1.14,0.41,-255.13,98.39,121.15000000000002
1557,1715532346960,0.19,-1.14,0.41,-255.13,98.39,121.15
1558,1715532346970,0.19000000000000003,-1.14,0.41,-255.13,98.39,121.15000000000002
1559,1715532346980,0.19,-1.14,0.41,-255.13,98.39,121.15
1560,1715532346990,0.19000000000000003,-1.14,0.41,-255.13,98.39,121.15000000000002
1561,1715532347000,0.19,-1.14,0.41,-255.13,98.39,121.15
1562,1715532347010,0.19,-1.14,0.41,-255.13,98.39,121.15
1563,1715532347020,0.65,-0.825,0.6749999999999999,-346.4525,90.27250000000001,101.545
1564,1715532347030,1.11,-0.51,0.94,-513.0,27.16,-9.83
1565,1715532347040,1.11,-0.51,0.94,-513.0,27.16,-9.83
1566,1715532347050,1.11,-0.51,0.94,-513.0,27.16,-9.83
1567,1715532347060,1.11,-0.51,0.94,-513.0,27.16,-9.83
1568,1715532347070,1.24,-0.32,1.32,-413.64000000000004,-3.72,-49.62
1569,1715532347080,1.24,-0.32,1.32,-413.64,-3.72,-49.62
1570,1715532347090,1.24,-0.32,1.32,-413.64000000000004,-3.72,-49.62
1571,1715532347100,1.51,0.145,1.6875,-406.7725,-30.8825,-77.97
1572,1715532347110,1.6000000000000003,0.3,1.8099999999999998,-386.17,-112.37,-163.02
1573,1715532347120,1.6,0.3,1.81,-386.17,-112.37,-163.02
1574,1715532347130,1.6000000000000003,0.3,1.8099999999999998,-386.17,-112.37,-163.02
1575,1715532347140,0.9266666666666667,-0.62,1.7766666666666666,-332.74333333333334,-111.19,-210.63333333333333
1576,1715532347150,0.59,-1.08,1.76,-306.03,-110.6,-234.44
1577,1715532347160,0.59,-1.08,1.76,-306.03,-110.59999999999998,-234.43999999999997
1578,1715532347170,0.59,-1.08,1.76,-306.03,-110.6,-234.44
1579,1715532347180,1.24,0.53,3.7000000000000006,-61.52,-358.58,-144.65
1580,1715532347190,1.24,0.53,3.7,-61.52,-358.58,-144.65
1581,1715532347200,1.24,0.53,3.7,-61.52,-358.58,-144.65
1582,1715532347210,1.24,0.53,3.7000000000000006,-61.52,-358.58,-144.65
1583,1715532347220,0.2575,0.9275,3.1675000000000004,-140.6225,-50.5025,-120.20750000000001
1584,1715532347230,-0.07,1.06,2.99,-166.99,52.19,-112.06
1585,1715532347240,-0.07,1.06,2.99,-166.99,52.19,-112.06
1586,1715532347250,-0.07,1.06,2.99,-166.99,52.19,-112.06
1587,1715532347260,0.2075,0.3925,3.4175,-38.1775,79.01,-22.427500000000002
1588,1715532347270,0.3,0.17,3.56,4.76,87.95,7.45
1589,1715532347280,0.3,0.17,3.56,4.76,87.95,7.45
1590,1715532347290,0.3,0.17,3.56,4.76,87.95,7.45
1591,1715532347300,0.3,0.17,3.56,4.76,87.95,7.45
1592,1715532347310,0.3,0.17,3.56,4.76,87.95,7.45
1593,1715532347320,0.3,0.17,3.56,4.76,87.95,7.45
1594,1715532347330,0.3,0.17,3.56,4.76,87.95,7.45
1595,1715532347340,0.3,0.17,3.56,4.76,87.95,7.45
1596,1715532347350,0.3,0.17,3.56,4.76,87.95,7.45
1597,1715532347360,1.23,-0.27,1.83,378.11,245.06,43.52
1598,1715532347370,1.27,-0.44333333333333336,1.51,406.1666666666667,246.70666666666668,38.02666666666667
1599,1715532347380,1.35,-0.79,0.87,462.28,250.0,27.04
1600,1715532347390,1.35,-0.79,0.87,462.28,250.0,27.04
1601,1715532347400,1.3500000000000003,-0.79,0.87,462.28,250.0,27.040000000000003
1602,1715532347410,1.4,-0.88,0.57,477.23,188.54,-28.99
1603,1715532347420,1.4,-0.88,0.57,477.23,188.54,-28.99
1604,1715532347430,1.3999999999999997,-0.88,0.57,477.23,188.54,-28.99
1605,1715532347440,1.292,-0.836,0.488,471.00600000000003,177.664,-33.152
1606,1715532347450,0.86,-0.66,0.16,446.11,134.16,-49.8
1607,1715532347460,0.86,-0.66,0.16,446.10999999999996,134.16,-49.79999999999999
1608,1715532347470,0.86,-0.66,0.16,446.11,134.16,-49.8
1609,1715532347480,0.86,-0.66,0.16,446.11,134.16,-49.8
1610,1715532347490,0.86,-0.66,0.16,446.11,134.16,-49.8
1611,1715532347500,0.86,-0.66,0.16,446.10999999999996,134.16,-49.79999999999999
1612,1715532347510,0.86,-0.66,0.16,446.11,134.16,-49.8
1613,1715532347520,0.86,-0.66,0.16,446.11,134.16,-49.8
1614,1715532347530,0.86,-0.66,0.16,446.10999999999996,134.16,-49.79999999999999
1615,1715532347540,0.86,-0.66,0.16,446.11,134.16,-49.8
1616,1715532347550,0.89,-0.24,0.81,87.95,-44.85999999999999,-45.169999999999995
1617,1715532347560,0.5675,-1.1324999999999998,1.2225000000000001,87.95,-44.86,-45.17
1618,1715532347570,0.46,-1.43,1.36,-93.24333333333334,78.55333333333333,-68.15666666666668
1619,1715532347580,0.46,-1.43,1.36,-183.84,140.26,-79.65
1620,1715532347590,0.46,-1.43,1.36,-183.84,140.26,-79.65
1621,1715532347600,0.20000000000000004,-1.49,0.5733333333333334,-218.38666666666666,55.906666666666666,16.50333333333333
1622,1715532347610,0.07,-1.52,0.18,-235.66,13.73,64.58
1623,1715532347620,0.07,-1.5200000000000002,0.18000000000000002,-235.66,13.729999999999999,64.58
1624,1715532347630,0.07,-1.52,0.18,-235.66,13.73,64.58
1625,1715532347640,1.2,-1.28,1.25,-369.38,-211.06,165.53
1626,1715532347650,1.2,-1.28,1.25,-369.37999999999994,-211.06000000000003,165.53
1627,1715532347660,1.2,-1.28,1.25,-369.38,-211.06,165.53
1628,1715532347670,1.2,-1.28,1.25,-369.38,-211.06,165.53
1629,1715532347680,1.335,-1.01,1.23,-375.305,-178.95499999999998,157.23000000000002
1630,1715532347690,1.47,-0.7399999999999999,1.21,-381.23,-146.85,148.93
1631,1715532347700,1.47,-0.74,1.21,-381.23,-146.85,148.93
1632,1715532347710,1.5325,-0.6275,1.265,-381.23,-146.85,148.93
1633,1715532347720,1.72,-0.29,1.43,-429.08,-165.41,86.43
1634,1715532347730,1.72,-0.29,1.43,-429.08,-165.41,86.43
1635,1715532347740,1.72,-0.29,1.43,-429.08,-165.41,86.43
1636,1715532347750,1.6466666666666665,-0.15666666666666665,1.42,-417.84999999999997,-121.76666666666667,59.28666666666667
1637,1715532347760,1.5,0.11,1.4,-395.39,-34.48,5.0
1638,1715532347770,1.5,0.11,1.4,-395.39,-34.48,5.0
1639,1715532347780,1.5,0.11,1.4,-395.39,-34.48,5.0
1640,1715532347790,1.5,0.11,1.3999999999999997,-395.39000000000004,-34.48,5.0
1641,1715532347800,1.5,0.11,1.4,-395.39,-34.48,5.0
1642,1715532347810,1.5,0.11,1.4,-395.39,-34.48,5.0
1643,1715532347820,1.5,0.11,1.3999999999999997,-395.39000000000004,-34.48,5.0
1644,1715532347830,1.5,0.11,1.4,-395.39,-34.48,5.0
1645,1715532347840,1.5,0.11,1.3999999999999997,-395.39000000000004,-34.48,5.0
1646,1715532347850,1.5,0.11,1.4,-395.39,-34.48,5.0
1647,1715532347860,1.5,0.11,1.3999999999999997,-395.39000000000004,-34.48,5.0
1648,1715532347870,1.5,0.11,1.4,-395.39,-34.48,5.0
1649,1715532347880,1.2133333333333334,0.5833333333333334,3.1466666666666665,-290.12333333333333,3.846666666666669,-54.32
1650,1715532347890,1.07,0.82,4.02,-237.49,23.01,-83.98
1651,1715532347900,1.07,0.82,4.02,-237.49,23.01,-83.98
1652,1715532347910,-0.36999999999999994,1.06,2.49,-148.17333333333335,9.500000000000002,-80.70666666666666
1653,1715532347920,-0.36999999999999994,1.06,2.49,30.459999999999997,-17.52,-74.16
1654,1715532347930,-0.37,1.06,2.49,30.46,-17.52,-74.16
1655,1715532347940,-0.36999999999999994,1.06,2.49,30.459999999999997,-17.52,-74.16
1656,1715532347950,0.14,0.41,3.45,39.655,125.67,-48.1575
1657,1715532347960,0.14,0.41,3.4500000000000006,42.72,173.4,-39.49
1658,1715532347970,0.14,0.41,3.45,42.72,173.4,-39.49
1659,1715532347980,0.14,0.41,3.45,42.72,173.4,-39.49
1660,1715532347990,0.14,0.41,3.4500000000000006,42.72,173.4,-39.49
1661,1715532348000,0.14,0.41,3.4500000000000006,42.72,173.4,-39.49
1662,1715532348010,0.14,0.41,3.4500000000000006,42.72,173.4,-39.49
1663,1715532348020,0.14,0.41,3.45,42.72,173.4,-39.49
1664,1715532348030,0.14,0.41,3.4500000000000006,42.72,173.4,-39.49
1665,1715532348040,0.14,0.41,3.45,42.72,173.4,-39.49
1666,1715532348050,0.14,0.41,3.4500000000000006,42.72,173.4,-39.49
1667,1715532348060,0.14,0.41,3.45,42.72,173.4,-39.49
1668,1715532348070,1.1033333333333333,-0.35333333333333333,2.4933333333333336,280.41333333333336,258.48333333333335,67.71
1669,1715532348080,2.0,-1.18,1.08,538.88,317.32,149.54
1670,1715532348090,2.0,-1.18,1.08,538.88,317.32,149.54
1671,1715532348100,1.7533333333333332,-1.0,0.7133333333333334,568.38,193.74666666666667,97.94
1672,1715532348110,1.63,-0.91,0.53,583.13,131.96,72.14
1673,1715532348120,1.63,-0.91,0.53,583.13,131.96,72.14
1674,1715532348130,1.63,-0.91,0.53,583.13,131.96,72.14
1675,1715532348140,1.16,-0.58,0.4000000000000001,501.3999999999999,32.41,-25.63
1676,1715532348150,1.16,-0.58,0.4,501.4,32.41,-25.63
1677,1715532348160,1.16,-0.58,0.4000000000000001,501.3999999999999,32.41,-25.63
1678,1715532348170,1.1124999999999998,-0.48,0.33,501.4,32.41,-25.63
1679,1715532348180,0.9700000000000001,-0.18000000000000002,0.12,343.69,-73.36,-56.70000000000001
1680,1715532348190,0.9700000000000001,-0.18000000000000002,0.12,343.69,-73.36,-56.70000000000001
1681,1715532348200,0.9700000000000001,-0.18000000000000002,0.12,343.69,-73.36,-56.70000000000001
1682,1715532348210,0.895,-0.355,0.4225,343.69,-73.36,-56.7
1683,1715532348220,0.67,-0.88,1.33,343.69,-73.36,-56.70000000000001
1684,1715532348230,0.67,-0.88,1.33,-81.91,-61.580000000000005,-148.44
1685,1715532348240,0.67,-0.88,1.33,-81.91,-61.58,-148.44
1686,1715532348250,0.3766666666666667,-1.08,1.1933333333333334,-81.91,-61.580000000000005,-148.44
1687,1715532348260,-0.21,-1.4799999999999998,0.92,-100.83,53.89000000000001,-33.45
1688,1715532348270,-0.21,-1.48,0.92,-100.83,53.89,-33.45
1689,1715532348280,-0.21,-1.4799999999999998,0.92,-100.83,53.89000000000001,-33.45
1690,1715532348290,-0.21,-1.48,0.92,-100.83,53.89,-33.45
1691,1715532348300,0.16,-1.13,0.2,-225.46,-107.97,105.22
1692,1715532348310,0.16,-1.13,0.20000000000000004,-225.46,-107.96999999999998,105.21999999999998
1693,1715532348320,0.16,-1.13,0.2,-225.46,-107.97,105.22
1694,1715532348330,0.16,-1.13,0.20000000000000004,-225.46,-107.96999999999998,105.21999999999998
1695,1715532348340,0.16,-1.13,0.20000000000000004,-225.46,-107.96999999999998,105.21999999999998
1696,1715532348350,0.16,-1.13,0.2,-225.46,-107.97,105.22
1697,1715532348360,0.16,-1.13,0.20000000000000004,-225.46,-107.96999999999998,105.21999999999998
1698,1715532348370,0.16,-1.13,0.2,-225.46,-107.97,105.22
1699,1715532348380,0.16,-1.13,0.20000000000000004,-225.46,-107.96999999999998,105.21999999999998
1700,1715532348390,0.16,-1.13,0.2,-225.46,-107.97,105.22
1701,1715532348400,0.6566666666666666,-1.0633333333333332,0.37666666666666665,-280.29,-90.27,101.23333333333333
1702,1715532348410,1.62,-1.3,0.63,-419.8,-121.95,21.12
1703,1715532348420,1.62,-1.3,0.63,-419.8,-121.95,21.12
1704,1715532348430,1.62,-1.3,0.63,-419.8,-121.95,21.12
1705,1715532348440,1.5333333333333334,-1.2,0.6066666666666667,-446.39000000000004,-108.33999999999999,-8.850000000000001
1706,1715532348450,1.36,-1.0,0.56,-499.57,-81.12,-68.79
1707,1715532348460,1.36,-1.0,0.56,-499.57,-81.12,-68.79
1708,1715532348470,1.36,-1.0,0.56,-499.57,-81.12,-68.79
1709,1715532348480,1.445,-1.1775,0.9550000000000001,-499.57,-81.12,-68.79
1710,1715532348490,1.7,-1.71,2.14,-500.09000000000003,-258.06,-82.185
1711,1715532348500,1.7,-1.71,2.14,-500.60999999999996,-435.0,-95.58
1712,1715532348510,1.7,-1.71,2.14,-500.60999999999996,-435.0,-95.58
1713,1715532348520,1.7,-1.71,2.14,-500.61,-435.0,-95.58
1714,1715532348530,1.7,-1.71,2.14,-500.61,-435.0,-95.58
1715,1715532348540,1.7,-1.71,2.14,-500.60999999999996,-435.0,-95.58
1716,1715532348550,1.7,-1.71,2.14,-500.60999999999996,-435.0,-95.58
1717,1715532348560,1.7,-1.71,2.14,-500.61,-435.0,-95.58
1718,1715532348570,1.7,-1.71,2.14,-500.60999999999996,-435.0,-95.58
1719,1715532348580,1.7,-1.71,2.14,-500.61,-435.0,-95.58
1720,1715532348590,1.7,-1.71,2.14,-500.60999999999996,-435.0,-95.58
1721,1715532348600,-0.010000000000000002,1.1124999999999998,3.4425,34.375,95.26,-48.2025
1722,1715532348610,0.09000000000000001,1.15,3.0,227.23,85.51,33.87
1723,1715532348620,0.09,1.15,3.0,227.23,85.51,33.87
1724,1715532348630,0.09000000000000001,1.15,3.0,227.23,85.51,33.87
1725,1715532348640,0.38999999999999996,0.9066666666666666,2.8800000000000003,248.00333333333333,122.23333333333335,22.173333333333332
1726,1715532348650,0.99,0.42,2.64,289.55,195.68,-1.22
1727,1715532348660,0.9899999999999999,0.42,2.64,289.55,195.67999999999998,-1.22
1728,1715532348670,1.1099999999999999,0.2375,2.545,308.1975,203.23250000000002,-1.9975
1729,1715532348680,1.47,-0.31,2.26,364.14000000000004,225.89,-4.33
1730,1715532348690,1.47,-0.31,2.26,364.14,225.89,-4.33
1731,1715532348700,1.47,-0.31,2.26,364.14000000000004,225.89,-4.33
1732,1715532348710,1.685,-0.65,2.165,392.735,254.48499999999999,-10.59
1733,1715532348720,1.8999999999999997,-0.9899999999999999,2.07,421.33,283.08,-16.85
1734,1715532348730,1.8999999999999997,-0.9899999999999999,2.07,421.33,283.08,-16.85
1735,1715532348740,1.9,-0.99,2.07,421.33,283.08,-16.85
1736,1715532348750,1.765,-1.8075,1.305,484.495,321.765,-7.460000000000001
1737,1715532348760,1.72,-2.08,1.05,505.55,334.66,-4.33
1738,1715532348770,1.72,-2.08,1.05,505.55,334.66,-4.33
1739,1715532348780,1.72,-2.08,1.05,505.55,334.66,-4.33
1740,1715532348790,1.3399999999999999,-2.12,0.5966666666666667,505.55,334.66,-4.33
1741,1715532348800,1.15,-2.14,0.37,505.55,334.66,-4.33
1742,1715532348810,1.15,-2.14,0.37,563.96,189.45,3.91
1743,1715532348820,1.15,-2.14,0.36999999999999994,563.96,189.44999999999996,3.91
1744,1715532348830,0.6699999999999999,-1.7275,-0.1925,544.145,128.70749999999998,0.52
1745,1715532348840,0.51,-1.59,-0.38000000000000006,537.54,108.46,-0.61
1746,1715532348850,0.51,-1.59,-0.38000000000000006,537.54,108.46,-0.61
1747,1715532348860,0.51,-1.59,-0.38,537.54,108.46,-0.61
1748,1715532348870,0.51,-1.59,-0.38000000000000006,537.54,108.46,-0.61
1749,1715532348880,0.51,-1.59,-0.38000000000000006,537.54,108.46,-0.61
1750,1715532348890,0.51,-1.59,-0.38,537.54,108.46,-0.61
1751,1715532348900,0.51,-1.59,-0.38,537.54,108.46,-0.61
1752,1715532348910,0.51,-1.59,-0.38000000000000006,537.54,108.46,-0.61
1753,1715532348920,0.51,-1.59,-0.38,537.54,108.46,-0.61
1754,1715532348930,1.11,-1.8166666666666667,0.8133333333333334,-133.11333333333334,-7.059999999999998,89.35666666666667
1755,1715532348940,1.3766666666666667,-1.9000000000000001,1.3266666666666664,-468.44,-64.82,134.34
1756,1715532348950,1.31,-1.84,1.16,-615.78,39.12,108.58
1757,1715532348960,1.31,-1.84,1.16,-615.78,39.12,108.58
1758,1715532348970,1.31,-1.84,1.16,-615.78,39.12,108.58
1759,1715532348980,2.49,-1.72,2.4533333333333336,-637.6933333333333,-36.90666666666667,124.04333333333334
1760,1715532348990,3.08,-1.66,3.1,-681.52,-188.96,154.97
1761,1715532349000,3.08,-1.66,3.1,-681.52,-188.96,154.97
1762,1715532349010,3.08,-1.66,3.1,-681.52,-188.96,154.97
1763,1715532349020,2.7875,-1.0150000000000001,3.385,-618.135,-148.375,120.545
1764,1715532349030,2.69,-0.8000000000000002,3.48,-554.75,-107.79,86.12
1765,1715532349040,2.69,-0.8000000000000002,3.48,-554.75,-107.79,86.12
1766,1715532349050,2.69,-0.8000000000000002,3.48,-554.75,-107.79,86.12
1767,1715532349060,2.69,-0.8,3.48,-554.75,-107.79,86.12
1768,1715532349070,2.69,-0.8000000000000002,3.48,-554.75,-107.79,86.12
1769,1715532349080,2.69,-0.8,3.48,-554.75,-107.79,86.12
1770,1715532349090,2.69,-0.8000000000000002,3.48,-554.75,-107.79,86.12
1771,1715532349100,2.69,-0.8,3.48,-554.75,-107.79,86.12
1772,1715532349110,2.69,-0.8000000000000002,3.48,-554.75,-107.79,86.12
1773,1715532349120,2.0566666666666666,-0.54,2.643333333333333,-440.96000000000004,-148.48000000000002,58.06333333333333
1774,1715532349130,0.7575000000000001,-0.007500000000000001,0.9575,-229.07999999999998,-208.5575,-1.9100000000000001
1775,1715532349140,0.66,0.03,0.92,-276.18,-144.65,-13.49
1776,1715532349150,0.66,0.03,0.92,-276.18,-144.65,-13.49
1777,1715532349160,0.66,0.03,0.92,-276.18,-144.65,-13.49
1778,1715532349170,0.66,0.03,0.92,-276.18,-144.65,-13.49
1779,1715532349180,0.35,0.06,1.24,-269.04,-214.37,-23.060000000000002
1780,1715532349190,0.3499999999999999,0.06,1.24,-266.66,-237.61,-26.25
1781,1715532349200,0.3499999999999999,0.06,1.24,-266.66,-237.61,-26.25
1782,1715532349210,0.59,0.76,2.7600000000000002,-266.66,-237.61,-26.25
1783,1715532349220,0.83,1.46,4.28,-295.35,-163.33,-36.56
1784,1715532349230,0.83,1.46,4.28,-295.35,-163.33,-36.56
1785,1715532349240,0.83,1.46,4.28,-295.35,-163.33,-36.56
1786,1715532349250,0.47333333333333333,1.0999999999999999,4.14,-170.10666666666668,-75.48,-41.85
1787,1715532349260,-0.24,0.38,3.86,80.38,100.22,-52.43
1788,1715532349270,-0.24,0.38000000000000006,3.86,80.38,100.21999999999998,-52.43
1789,1715532349280,-0.24,0.38000000000000006,3.86,80.38,100.21999999999998,-52.43
1790,1715532349290,0.3375,0.2375,3.4325,161.315,152.1,-17.855
1791,1715532349300,0.53,0.19000000000000003,3.2900000000000005,242.25,203.98,16.72
1792,1715532349310,0.53,0.19000000000000003,3.2900000000000005,242.25,203.98,16.72
1793,1715532349320,0.53,0.19,3.29,242.25,203.98,16.72
1794,1715532349330,2.55,-0.44,2.77,322.14,388.24,57.68
1795,1715532349340,2.55,-0.44,2.77,322.14,388.24,57.68
1796,1715532349350,2.55,-0.44,2.77,322.14,388.24,57.68
1797,1715532349360,2.55,-0.44,2.77,322.14,388.24,57.68
1798,1715532349370,2.55,-0.44,2.77,322.14,388.24,57.68
1799,1715532349380,2.55,-0.44,2.77,322.14,388.24,57.68
1800,1715532349390,2.55,-0.44,2.77,322.14,388.24,57.68
1801,1715532349400,2.55,-0.44,2.77,322.14,388.24,57.68
1802,1715532349410,2.55,-0.44,2.77,322.14,388.24,57.68
1803,1715532349420,2.55,-0.44,2.77,322.14,388.24,57.68
1804,1715532349430,2.55,-0.44,2.77,322.14,388.24,57.68
1805,1715532349440,2.55,-0.44,2.77,322.14,388.24,57.68
1806,1715532349450,2.6199999999999997,-0.4666666666666666,2.5566666666666666,386.69666666666666,330.0133333333333,43.620000000000005
1807,1715532349460,2.1,-0.92,1.3,506.41,135.19,-127.14
1808,1715532349470,2.1,-0.92,1.3,506.41,135.19,-127.14
1809,1715532349480,1.9666666666666668,-1.0866666666666667,1.42,495.67,96.57666666666667,-151.83333333333334
1810,1715532349490,1.9,-1.17,1.48,490.3,77.27,-164.18
1811,1715532349500,1.8999999999999997,-1.17,1.4799999999999998,490.3,77.27,-164.18
1812,1715532349510,1.9,-1.17,1.48,490.3,77.27,-164.18
1813,1715532349520,1.3666666666666665,-0.9766666666666666,1.0266666666666666,432.15333333333336,21.81,-147.78666666666666
1814,1715532349530,1.1,-0.88,0.8,403.08,-5.92,-139.59
1815,1715532349540,1.1,-0.88,0.8000000000000002,403.08,-5.919999999999999,-139.59
1816,1715532349550,1.1,-0.88,0.8,403.08,-5.92,-139.59
1817,1715532349560,0.9499999999999998,-1.03,1.11,403.08,-5.919999999999999,-139.59
1818,1715532349570,0.95,-1.03,1.11,403.08,-5.92,-139.59
1819,1715532349580,0.9499999999999998,-1.03,1.11,403.08,-5.919999999999999,-139.59
1820,1715532349590,0.9499999999999998,-1.03,1.11,403.08,-5.919999999999999,-139.59
1821,1715532349600,0.9499999999999998,-1.03,1.11,403.08,-5.919999999999999,-139.59
1822,1715532349610,0.95,-1.03,1.11,403.08,-5.92,-139.59
1823,1715532349620,0.9499999999999998,-1.03,1.11,403.08,-5.919999999999999,-139.59
1824,1715532349630,0.9499999999999998,-1.03,1.11,403.08,-5.919999999999999,-139.59
1825,1715532349640,0.58,-1.1775,0.7525000000000001,259.0675,21.0875,-85.83250000000001
1826,1715532349650,-0.53,-1.62,-0.32,-172.97,102.11,75.44
1827,1715532349660,-0.53,-1.62,-0.32,-172.97,102.11,75.44
1828,1715532349670,-0.165,-1.495,0.08499999999999999,-270.66,14.920000000000002,163.91
1829,1715532349680,0.20000000000000004,-1.37,0.49,-368.3500000000001,-72.27,252.38
1830,1715532349690,0.20000000000000004,-1.37,0.49,-368.3500000000001,-72.27,252.38
1831,1715532349700,0.2,-1.37,0.49,-368.35,-72.27,252.38
1832,1715532349710,0.6833333333333332,-1.1633333333333333,0.8133333333333334,-368.3500000000001,-72.27,252.38
1833,1715532349720,1.65,-0.75,1.46,-430.545,-27.195,249.48000000000002
1834,1715532349730,1.6499999999999997,-0.75,1.46,-492.74,17.88,246.58
1835,1715532349740,1.65,-0.75,1.46,-492.74,17.88,246.58
1836,1715532349750,1.6233333333333333,-0.5299999999999999,1.2733333333333332,-493.4266666666667,35.666666666666664,156.9
1837,1715532349760,1.61,-0.42,1.18,-493.77,44.56,112.06
1838,1715532349770,1.61,-0.42,1.18,-493.77,44.56,112.06
1839,1715532349780,1.61,-0.42,1.18,-493.77,44.56,112.06
1840,1715532349790,1.6233333333333333,-0.09333333333333332,0.96,-450.07,19.326666666666668,45.693333333333335
1841,1715532349800,1.63,0.07,0.85,-428.22,6.71,12.51
1842,1715532349810,1.63,0.07,0.85,-428.22,6.71,12.51
1843,1715532349820,1.63,0.07,0.85,-428.22,6.71,12.51
1844,1715532349830,1.505,-0.035,0.7050000000000001,-394.135,-68.66499999999999,-52.675
1845,1715532349840,1.38,-0.14,0.56,-360.05,-144.04,-117.86
1846,1715532349850,1.38,-0.14,0.56,-360.05,-144.04,-117.86
1847,1715532349860,1.38,-0.14,0.56,-360.05,-144.04,-117.86
1848,1715532349870,1.6533333333333333,-0.14666666666666667,1.0666666666666667,-361.34999999999997,-336.6666666666667,-107.84666666666668
1849,1715532349880,1.79,-0.15,1.32,-362.0,-432.98,-102.84
1850,1715532349890,1.79,-0.15,1.32,-362.0,-432.98,-102.83999999999999
1851,1715532349900,1.79,-0.15,1.32,-362.0,-432.98,-102.84
1852,1715532349910,1.79,-0.15,1.32,-362.0,-432.98,-102.83999999999999
1853,1715532349920,1.79,-0.15,1.32,-362.0,-432.98,-102.84
1854,1715532349930,1.79,-0.15,1.32,-362.0,-432.98,-102.83999999999999
1855,1715532349940,1.79,-0.15,1.32,-362.0,-432.98,-102.83999999999999
1856,1715532349950,1.79,-0.15,1.32,-362.0,-432.98,-102.83999999999999
1857,1715532349960,1.79,-0.15,1.32,-362.0,-432.98,-102.83999999999999
1858,1715532349970,1.335,-0.0675,1.9825000000000002,-312.9875,-310.39250000000004,-96.035
1859,1715532349980,0.7566666666666665,0.28,4.136666666666667,38.88333333333335,117.47000000000001,23.906666666666666
1860,1715532349990,1.15,0.33,4.22,141.3,147.52,73.67
1861,1715532350000,1.15,0.33,4.22,141.3,147.52,73.67
1862,1715532350010,1.15,0.33,4.22,141.3,147.52,73.67
1863,1715532350020,1.15,0.33,4.22,141.3,147.52,73.67
1864,1715532350030,1.6225,3.469446951953614e-18,2.8175,335.48249999999996,210.97,66.98750000000001
1865,1715532350040,1.78,-0.11,2.35,400.21,232.12,64.76
1866,1715532350050,1.78,-0.11,2.35,400.21,232.12,64.76
1867,1715532350060,2.08,-0.33,1.3500000000000003,499.94,250.42999999999998,23.25
1868,1715532350070,2.08,-0.33,1.35,499.94,250.43,23.25
1869,1715532350080,2.08,-0.33,1.3500000000000003,499.94,250.42999999999998,23.25
1870,1715532350090,2.08,-0.33,1.35,499.94,250.43,23.25
1871,1715532350100,2.08,-0.33,1.3500000000000003,499.94,250.42999999999998,23.25
1872,1715532350110,2.08,-0.33,1.3500000000000003,499.94,250.42999999999998,23.25
1873,1715532350120,2.08,-0.33,1.35,499.94,250.43,23.25
1874,1715532350130,2.08,-0.33,1.35,499.94,250.43,23.25
1875,1715532350140,2.08,-0.33,1.3500000000000003,499.94,250.42999999999998,23.25
1876,1715532350150,2.08,-0.33,1.3500000000000003,499.94,250.42999999999998,23.25
1877,1715532350160,2.08,-0.33,1.3500000000000003,499.94,250.42999999999998,23.25
1878,1715532350170,1.5775,-0.6375,0.795,517.9325,113.285,-97.5075
1879,1715532350180,1.0,-0.75,0.67,432.07,70.31,-183.41
1880,1715532350190,1.0,-0.75,0.67,432.07,70.31,-183.41
1881,1715532350200,1.0,-0.75,0.67,432.07,70.31,-183.41
1882,1715532350210,0.8933333333333334,-0.62,0.51,404.42,50.51666666666667,-169.98333333333332
1883,1715532350220,0.68,-0.36,0.19,349.12,10.93,-143.13
1884,1715532350230,0.68,-0.36000000000000004,0.19000000000000003,349.12000000000006,10.93,-143.13
1885,1715532350240,0.68,-0.36,0.19,349.12,10.93,-143.13
1886,1715532350250,0.83,-0.36000000000000004,0.89,96.37,-111.33,-123.41000000000001
