id,timestamp,acc_x,acc_y,acc_z,gyro_x,gyro_y,gyro_z
0,1715534682860,0.61,-0.75,0.98,-236.39,21.61,-163.94
1,1715534682870,0.96,-0.82,1.6499999999999997,-218.19999999999996,67.26,-174.87
2,1715534682880,0.96,-0.82,1.65,-218.2,67.26,-174.87
3,1715534682890,0.96,-0.82,1.6499999999999997,-218.19999999999996,67.26,-174.87
4,1715534682900,0.9359999999999999,-0.882,1.766,-206.592,93.21200000000002,-186.186
5,1715534682910,0.84,-1.13,2.23,-160.16,197.02,-231.44999999999996
6,1715534682920,0.84,-1.13,2.23,-160.16,197.02,-231.44999999999996
7,1715534682930,0.8400000000000001,-1.13,2.23,-160.16,197.02,-231.45
8,1715534682940,0.84,-1.13,2.23,-160.16,197.02,-231.44999999999996
9,1715534682950,0.9816666666666666,-1.2966666666666666,2.5966666666666667,-23.543333333333333,100.17833333333334,-221.63333333333333
10,1715534682960,1.01,-1.33,2.67,3.78,80.81,-219.67
11,1715534682970,1.01,-1.33,2.67,3.78,80.81,-219.67
12,1715534682980,0.96,-1.375,3.0050000000000003,31.908333333333335,66.955,-219.39499999999998
13,1715534682990,0.91,-1.42,3.34,172.55000000000004,-2.32,-218.02
14,1715534683000,0.9099999999999999,-1.42,3.34,172.55,-2.32,-218.02000000000004
15,1715534683010,0.91,-1.42,3.34,172.55000000000004,-2.32,-218.02
16,1715534683020,1.3820000000000001,-1.6759999999999997,3.596,172.55,-2.32,-218.02000000000004
17,1715534683030,1.5,-1.7399999999999998,3.66,224.51600000000002,20.75,-209.962
18,1715534683040,1.5,-1.74,3.66,259.16,36.13,-204.59
19,1715534683050,1.5,-1.7399999999999998,3.66,259.16,36.13,-204.59
20,1715534683060,1.564,-1.492,3.5480000000000005,309.16,23.434000000000005,-226.85399999999998
21,1715534683070,1.58,-1.43,3.5200000000000005,321.66,20.26,-232.42
22,1715534683080,1.58,-1.43,3.5200000000000005,321.66,20.26,-232.42
23,1715534683090,1.58,-1.43,3.5200000000000005,321.66,20.26,-232.42
24,1715534683100,1.58,-1.43,3.52,321.66,20.26,-232.42
25,1715534683110,1.58,-1.43,3.5200000000000005,321.66,20.26,-232.42
26,1715534683120,1.58,-1.43,3.52,321.66,20.26,-232.42
27,1715534683130,1.58,-1.43,3.5200000000000005,321.66,20.26,-232.42
28,1715534683140,1.58,-1.43,3.5200000000000005,321.66,20.26,-232.42
29,1715534683150,1.58,-1.43,3.5200000000000005,321.66,20.26,-232.42
30,1715534683160,0.12,-1.24,1.52,305.3,66.96,-232.24
31,1715534683170,0.12,-1.24,1.52,305.3,66.96,-232.24
32,1715534683180,0.6675,-1.765,2.1799999999999997,437.225,29.467499999999998,-258.3325
33,1715534683190,0.85,-1.94,2.4,481.2,16.97,-267.03
34,1715534683200,0.85,-1.94,2.4,481.2,16.97,-267.03
35,1715534683210,0.7150000000000001,-1.895,1.365,454.435,86.945,-242.85999999999999
36,1715534683220,0.67,-1.88,1.02,427.67,156.92,-218.69
37,1715534683230,0.67,-1.88,1.02,427.67,156.92,-218.69
38,1715534683240,0.67,-1.88,1.02,427.67,156.92,-218.69
39,1715534683250,0.67,-1.88,1.02,427.67,156.92,-218.68999999999997
40,1715534683260,0.98,-2.16,1.41,378.3,180.79,-247.56000000000003
41,1715534683270,0.98,-2.16,1.41,378.3,180.79,-247.56
42,1715534683280,0.98,-2.16,1.41,378.3,180.79,-247.56000000000003
43,1715534683290,0.86,-1.76,0.65,331.7066666666667,233.5633333333333,-220.42
44,1715534683300,0.86,-1.76,0.65,308.41,259.95,-206.85
45,1715534683310,0.86,-1.76,0.65,308.41,259.95,-206.85
46,1715534683320,0.86,-1.76,0.65,308.41,259.95,-206.85
47,1715534683330,0.46,-1.37,0.13,289.98,153.38,-205.99
48,1715534683340,0.46,-1.37,0.13,289.98,153.38,-205.99
49,1715534683350,0.46,-1.37,0.13,289.98,153.38,-205.99
50,1715534683360,0.445,-1.23,-0.13999999999999999,278.0625,146.88,-193.28
51,1715534683370,0.4,-0.8100000000000002,-0.95,242.31,127.38,-155.15
52,1715534683380,0.4,-0.81,-0.95,242.31,127.38,-155.15
53,1715534683390,0.4,-0.81,-0.95,242.31,127.38,-155.15
54,1715534683400,-0.49999999999999994,-0.925,-2.335,177.615,76.935,-159.24
55,1715534683410,-1.4,-1.04,-3.72,112.92,26.49,-163.33
56,1715534683420,-1.4,-1.04,-3.72,112.92,26.49,-163.33
57,1715534683430,-1.4,-1.04,-3.72,112.92,26.49,-163.33
58,1715534683440,-1.515,-1.175,-3.6,32.78,-31.190000000000005,-33.90500000000001
59,1715534683450,-1.63,-1.31,-3.48,-47.35999999999999,-88.87,95.52
60,1715534683460,-1.6299999999999997,-1.31,-3.4799999999999995,-47.36,-88.87,95.52
61,1715534683470,-1.63,-1.31,-3.48,-47.36,-88.87,95.52
62,1715534683480,-1.01,-1.1500000000000001,-3.0933333333333333,-142.04666666666665,-28.483333333333334,172.99333333333334
63,1715534683490,-0.7,-1.07,-2.9,-189.39,1.7100000000000002,211.72999999999996
64,1715534683500,-0.7,-1.07,-2.9,-189.39,1.71,211.73
65,1715534683510,-0.6999999999999998,-1.07,-2.9,-189.39,1.71,211.73
66,1715534683520,-0.435,-1.0350000000000001,-2.455,-149.655,-52.915000000000006,226.745
67,1715534683530,-0.17,-1.0,-2.01,-109.92,-107.54,241.76
68,1715534683540,-0.17,-1.0,-2.01,-109.92,-107.54,241.76
69,1715534683550,-0.17,-1.0,-2.01,-109.92,-107.54,241.76
70,1715534683560,1.1,-0.95,-0.9,-154.445,-96.3875,258.4075
71,1715534683570,1.1,-0.95,-0.9,-288.02,-62.93,308.35
72,1715534683580,1.1,-0.9499999999999998,-0.9,-288.02,-62.93,308.35
73,1715534683590,1.1,-0.95,-0.9,-288.02,-62.92999999999999,308.35
74,1715534683600,1.1,-0.9499999999999998,-0.9,-288.02,-62.93,308.35
75,1715534683610,1.1,-0.95,-0.9,-288.02,-62.93,308.35
76,1715534683620,1.1,-0.95,-0.9,-288.02,-62.93,308.35
77,1715534683630,1.1,-0.9499999999999998,-0.9,-288.02,-62.93,308.35
78,1715534683640,1.1,-0.95,-0.9,-288.02,-62.93,308.35
79,1715534683650,1.1,-0.9499999999999998,-0.9,-288.02,-62.93,308.35
80,1715534683660,1.1,-0.95,-0.9,-288.02,-62.93,308.35
81,1715534683670,1.1,-0.95,-0.9,-288.02,-62.93,308.35
82,1715534683680,1.1666666666666667,-1.4833333333333334,0.7400000000000001,-392.2733333333333,-72.24333333333334,170.6966666666667
83,1715534683690,1.2,-1.75,1.56,-444.4,-76.9,101.87
84,1715534683700,1.2,-1.75,1.5599999999999998,-444.3999999999999,-76.9,101.87
85,1715534683710,1.2,-1.75,1.56,-444.4,-76.9,101.87
86,1715534683720,0.94,-1.67,1.3,-360.96,-158.51,59.57
87,1715534683730,0.94,-1.67,1.3,-360.96,-158.51,59.57
88,1715534683740,0.94,-1.67,1.3,-360.96,-158.51,59.57
89,1715534683750,0.7866666666666666,-1.5233333333333334,1.0999999999999999,-362.03999999999996,-145.59,66.44666666666667
90,1715534683760,0.71,-1.45,1.0,-364.2,-119.75,80.2
91,1715534683770,0.71,-1.45,1.0,-364.2,-119.75,80.2
92,1715534683780,0.71,-1.45,1.0,-364.2,-119.75,80.2
93,1715534683790,0.785,-1.3975,1.0150000000000001,-385.66499999999996,-120.9425,76.0825
94,1715534683800,0.81,-1.38,1.02,-392.82,-121.33999999999999,74.71
95,1715534683810,0.81,-1.38,1.02,-392.82,-121.33999999999999,74.71
96,1715534683820,0.81,-1.38,1.02,-392.82,-121.34,74.71
97,1715534683830,0.41,-1.2,1.63,-418.03,-80.32,55.66
98,1715534683840,0.41,-1.2,1.63,-418.03,-80.32,55.66
99,1715534683850,0.41,-1.2,1.63,-418.03,-80.32,55.66
100,1715534683860,0.41,-1.2,1.63,-418.03,-80.32,55.66
101,1715534683870,1.29,-0.38999999999999996,3.26,-238.28,-193.24,62.56
102,1715534683880,1.29,-0.39,3.26,-238.28,-193.24,62.56
103,1715534683890,1.29,-0.38999999999999996,3.26,-238.28,-193.24,62.56
104,1715534683900,1.1875,-0.315,3.6425,-244.2625,-150.47,47.697500000000005
105,1715534683910,0.88,-0.09000000000000001,4.79,-262.21,-22.16,3.11
106,1715534683920,0.88,-0.09000000000000001,4.79,-262.21,-22.16,3.11
107,1715534683930,0.88,-0.09,4.79,-262.21,-22.16,3.11
108,1715534683940,0.88,-0.09000000000000001,4.79,-262.21,-22.16,3.11
109,1715534683950,1.4266666666666667,-0.3733333333333333,5.436666666666667,-190.35,-18.169999999999998,21.196666666666665
110,1715534683960,2.52,-0.94,6.73,-46.63,-10.19,57.37
111,1715534683970,2.52,-0.94,6.73,-46.63,-10.19,57.37
112,1715534683980,2.775,-1.345,6.295,84.655,9.524999999999999,-27.13
113,1715534683990,3.03,-1.75,5.86,215.93999999999997,29.24,-111.63
114,1715534684000,3.03,-1.75,5.86,215.94,29.24,-111.63
115,1715534684010,3.03,-1.75,5.86,215.93999999999997,29.24,-111.63
116,1715534684020,3.03,-1.75,5.86,215.93999999999997,29.24,-111.63
117,1715534684030,1.78,-1.93,3.85,231.51,169.31,-73.43
118,1715534684040,1.78,-1.93,3.85,231.51,169.31,-73.43
119,1715534684050,1.78,-1.93,3.85,231.51,169.31,-73.43
120,1715534684060,1.5474999999999999,-1.315,2.8675,335.925,120.605,-32.825
121,1715534684070,1.47,-1.11,2.54,370.73,104.37,-19.29
122,1715534684080,1.47,-1.11,2.54,370.73,104.37,-19.29
123,1715534684090,1.56,-1.085,2.33,390.27500000000003,108.855,-34.365
124,1715534684100,1.83,-1.01,1.7,448.91,122.31,-79.59
125,1715534684110,1.83,-1.01,1.7,448.91,122.31,-79.59
126,1715534684120,1.83,-1.01,1.7,448.91,122.31,-79.59
127,1715534684130,1.83,-1.01,1.7,448.91,122.31,-79.59
128,1715534684140,1.83,-1.01,1.7,448.91,122.31,-79.59
129,1715534684150,1.83,-1.01,1.7,448.91,122.31,-79.59
130,1715534684160,1.83,-1.01,1.7,448.91,122.30999999999999,-79.59
131,1715534684170,1.83,-1.01,1.7,448.91,122.31,-79.59
132,1715534684180,1.83,-1.01,1.7,448.91,122.31,-79.59
133,1715534684190,1.83,-1.01,1.7,448.91,122.31,-79.59
134,1715534684200,1.656666666666667,-1.4000000000000001,1.5,430.6833333333334,127.07333333333334,-133.38333333333333
135,1715534684210,1.3033333333333335,-2.126666666666667,1.1333333333333333,383.4466666666667,152.22333333333333,-237.53
136,1715534684220,1.3,-2.1,1.15,361.87999999999994,183.47,-230.65
137,1715534684230,1.3,-2.1,1.15,361.88,183.47,-230.65
138,1715534684240,1.3,-2.1,1.15,361.88,183.47,-230.65
139,1715534684250,1.3,-2.1,1.15,361.87999999999994,183.47,-230.65
140,1715534684260,1.1949999999999998,-1.9200000000000002,0.9325,321.275,179.945,-226.03
141,1715534684270,1.16,-1.86,0.86,307.74,178.77,-224.49
142,1715534684280,1.16,-1.86,0.86,307.74,178.77,-224.49
143,1715534684290,1.1675,-1.5675,0.71,269.565,186.1875,-201.645
144,1715534684300,1.17,-1.47,0.66,256.84,188.66,-194.03
145,1715534684310,1.17,-1.47,0.66,256.84,188.66,-194.03
146,1715534684320,1.17,-1.47,0.66,256.84,188.66,-194.03
147,1715534684330,1.13,-1.32,-0.01,159.79,250.61,-193.66
148,1715534684340,1.13,-1.32,-0.01,159.79,250.61,-193.66
149,1715534684350,1.13,-1.32,-0.01,159.79,250.61,-193.66
150,1715534684360,0.93,-1.0966666666666667,-0.5633333333333334,117.31,271.6466666666667,-192.43999999999997
151,1715534684370,0.53,-0.65,-1.67,32.35,313.72,-190.0
152,1715534684380,0.53,-0.65,-1.67,32.35,313.72,-190.0
153,1715534684390,0.53,-0.65,-1.67,32.35,313.72,-190.0
154,1715534684400,-0.4766666666666666,-0.24333333333333332,-3.3633333333333333,26.83666666666667,248.49333333333334,-133.68666666666667
155,1715534684410,-0.98,-0.04,-4.21,15.81,118.04,-21.06
156,1715534684420,-0.98,-0.04,-4.21,15.81,118.04,-21.06
157,1715534684430,-0.98,-0.04,-4.21,15.81,118.04,-21.06
158,1715534684440,-0.3666666666666667,0.17999999999999997,-4.123333333333334,-73.46333333333332,15.946666666666667,16.66
159,1715534684450,-0.06,0.29,-4.08,-118.1,-35.1,35.52
160,1715534684460,-0.06,0.29,-4.08,-118.1,-35.1,35.52
161,1715534684470,-0.06,0.29,-4.08,-118.09999999999998,-35.1,35.52
162,1715534684480,-0.23249999999999998,0.2425,-3.895,-103.3925,-51.7,26.152500000000003
163,1715534684490,-0.75,0.1,-3.34,-59.27,-101.5,-1.95
164,1715534684500,-0.75,0.10000000000000002,-3.34,-59.27,-101.5,-1.95
165,1715534684510,-0.75,0.1,-3.34,-59.27,-101.5,-1.95
166,1715534684520,-0.65,-0.88,-2.68,-20.69,-167.13333333333333,81.17666666666666
167,1715534684530,-0.65,-0.88,-2.68,-1.4,-199.95,122.74
168,1715534684540,-0.65,-0.88,-2.68,-1.4,-199.95,122.74
169,1715534684550,-0.65,-0.88,-2.68,-1.3999999999999997,-199.94999999999996,122.74
170,1715534684560,0.78,-1.76,-1.19,-213.07,-231.57,319.52
171,1715534684570,0.7799999999999999,-1.76,-1.19,-213.07000000000002,-231.57000000000002,319.52
172,1715534684580,0.7799999999999999,-1.76,-1.19,-213.07000000000002,-231.57000000000002,319.52
173,1715534684590,1.2933333333333332,-1.9966666666666668,-0.3833333333333333,-254.23000000000002,-263.83666666666664,323.93333333333334
174,1715534684600,2.32,-2.47,1.23,-336.55,-328.37,332.76
175,1715534684610,2.32,-2.47,1.23,-336.55,-328.37,332.76
176,1715534684620,2.32,-2.47,1.23,-336.55,-328.37,332.76
177,1715534684630,2.32,-2.47,1.23,-336.55,-328.37,332.76
178,1715534684640,2.32,-2.47,1.23,-336.55,-328.37,332.76
179,1715534684650,2.32,-2.47,1.23,-336.55,-328.37,332.76
180,1715534684660,2.32,-2.47,1.23,-336.55,-328.37,332.76
181,1715534684670,2.32,-2.47,1.23,-336.55,-328.37,332.76
182,1715534684680,2.32,-2.47,1.23,-336.55,-328.37,332.76
183,1715534684690,2.32,-2.47,1.23,-336.55,-328.37,332.76
184,1715534684700,2.32,-2.47,1.23,-336.55,-328.37,332.76
185,1715534684710,2.32,-2.47,1.23,-336.55,-328.37,332.76
186,1715534684720,2.32,-2.47,1.23,-336.55,-328.37,332.76
187,1715534684730,1.6,-1.39,1.74,-355.65,-93.87,267.58
188,1715534684740,1.6,-1.39,1.74,-355.65,-93.87,267.58
189,1715534684750,1.31,-0.7799999999999999,1.14,-441.53,9.64,209.17
190,1715534684760,1.31,-0.78,1.14,-441.53,9.64,209.17
191,1715534684770,1.31,-0.7799999999999999,1.14,-441.53,9.64,209.17
192,1715534684780,1.31,-0.78,1.14,-441.53,9.64,209.17
193,1715534684790,1.1733333333333333,-0.8366666666666666,1.17,-435.93333333333334,-10.296666666666667,160.17666666666665
194,1715534684800,0.9,-0.9499999999999998,1.23,-424.74,-50.169999999999995,62.19
195,1715534684810,0.9,-0.9499999999999998,1.23,-424.74,-50.169999999999995,62.19
196,1715534684820,0.905,-0.925,1.625,-424.74,-50.17,62.19
197,1715534684830,0.91,-0.9,2.02,-413.39000000000004,-68.42,60.24
198,1715534684840,0.91,-0.9,2.02,-413.39,-68.42,60.24
199,1715534684850,0.91,-0.9,2.02,-413.39000000000004,-68.42,60.24
200,1715534684860,0.91,-0.9,2.02,-413.39,-68.42,60.24
201,1715534684870,1.4725,-0.6525,3.5275,-332.735,-107.24000000000001,44.445
202,1715534684880,1.66,-0.57,4.03,-305.85,-120.18,39.18
203,1715534684890,1.66,-0.57,4.03,-305.85,-120.18,39.18
204,1715534684900,1.9674999999999998,-0.24,4.99,-225.42000000000002,12.615,58.912499999999994
205,1715534684910,2.07,-0.13,5.31,-198.61,56.88,65.49
206,1715534684920,2.07,-0.13,5.31,-198.61,56.88,65.49
207,1715534684930,2.07,-0.13,5.31,-198.61,56.88,65.49
208,1715534684940,2.3633333333333333,-1.1966666666666665,5.803333333333334,-21.69000000000001,-11.759999999999998,40.14333333333333
209,1715534684950,2.51,-1.7299999999999998,6.05,66.77,-46.080000000000005,27.47
210,1715534684960,2.51,-1.73,6.05,66.77,-46.08,27.47
211,1715534684970,2.51,-1.7299999999999998,6.05,66.77,-46.080000000000005,27.47
212,1715534684980,3.0425,-1.9024999999999999,5.105,213.8525,-9.0975,-36.3925
213,1715534684990,3.22,-1.96,4.79,262.88,3.23,-57.68
214,1715534685000,3.22,-1.96,4.79,262.88,3.23,-57.68
215,1715534685010,3.22,-1.96,4.79,262.88,3.23,-57.68
216,1715534685020,2.28,-1.5200000000000002,2.9599999999999995,311.95,96.25,-74.71
217,1715534685030,2.28,-1.52,2.96,311.95,96.25,-74.71
218,1715534685040,2.28,-1.52,2.96,311.95,96.25,-74.71
219,1715534685050,2.28,-1.5200000000000002,2.9599999999999995,311.95,96.25,-74.71
220,1715534685060,1.52,-0.67,1.79,360.9,89.05,-78.67
221,1715534685070,1.52,-0.67,1.79,360.9,89.05,-78.67
222,1715534685080,1.5200000000000002,-0.67,1.79,360.8999999999999,89.05,-78.67
223,1715534685090,1.5200000000000002,-0.67,1.79,360.8999999999999,89.05,-78.67
224,1715534685100,1.7974999999999999,-0.9625,1.4,433.22999999999996,78.43,-134.5675
225,1715534685110,1.89,-1.06,1.27,457.34,74.89,-153.2
226,1715534685120,1.89,-1.06,1.27,457.34,74.89,-153.2
227,1715534685130,1.6966666666666665,-1.68,1.1233333333333333,454.39000000000004,68.54333333333334,-214.04999999999998
228,1715534685140,1.6,-1.99,1.05,448.49,55.85,-335.75
229,1715534685150,1.6,-1.99,1.05,448.49,55.85,-335.75
230,1715534685160,1.6,-1.99,1.05,448.49,55.85,-335.75
231,1715534685170,1.6,-1.99,1.05,448.49,55.85,-335.75
232,1715534685180,1.6,-1.99,1.05,448.49,55.85,-335.75
233,1715534685190,1.6,-1.99,1.05,448.49,55.85,-335.75
234,1715534685200,1.6000000000000003,-1.99,1.05,448.49,55.85,-335.75
235,1715534685210,1.6000000000000003,-1.99,1.05,448.49,55.85,-335.75
236,1715534685220,1.6000000000000003,-1.99,1.05,448.49,55.85,-335.75
237,1715534685230,1.6000000000000003,-1.99,1.05,448.49,55.85,-335.75
238,1715534685240,1.6,-1.99,1.05,448.49,55.85,-335.75
239,1715534685250,1.7466666666666668,-2.08,1.07,368.96000000000004,140.36333333333332,-331.3966666666667
240,1715534685260,2.04,-2.26,1.11,209.9,309.39,-322.69
241,1715534685270,2.04,-2.26,1.11,209.9,309.39,-322.69
242,1715534685280,1.9300000000000002,-2.2525,0.8300000000000001,215.10250000000002,308.49,-321.2725
243,1715534685290,1.6,-2.23,-0.01,230.71,305.79,-317.02
244,1715534685300,1.6000000000000003,-2.23,-0.01,230.71,305.79,-317.02
245,1715534685310,1.6,-2.23,-0.01,230.71,305.79,-317.02
246,1715534685320,1.3233333333333335,-2.0500000000000003,-0.17,213.37666666666667,276.39000000000004,-296.46999999999997
247,1715534685330,0.77,-1.6900000000000002,-0.49,178.71,217.59,-255.37
248,1715534685340,0.77,-1.6900000000000002,-0.49,178.71,217.59,-255.37
249,1715534685350,0.77,-1.69,-0.49,178.71,217.59,-255.37
250,1715534685360,0.31333333333333335,-1.3866666666666667,-1.1833333333333333,140.09666666666666,228.98333333333335,-207.15333333333334
251,1715534685370,-0.6,-0.7799999999999999,-2.57,62.87,251.77,-110.71999999999998
252,1715534685380,-0.6,-0.7799999999999999,-2.57,62.87,251.77,-110.71999999999998
253,1715534685390,-0.6,-0.78,-2.57,62.87,251.77,-110.72
254,1715534685400,-1.7533333333333332,-0.5133333333333333,-4.123333333333334,71.25,168.17333333333335,-98.73666666666666
255,1715534685410,-2.33,-0.38000000000000006,-4.9,88.01,0.98,-74.77
256,1715534685420,-2.33,-0.38000000000000006,-4.9,88.01,0.98,-74.77
257,1715534685430,-2.33,-0.38,-4.9,88.01,0.98,-74.77
258,1715534685440,-2.33,-0.38000000000000006,-4.9,88.01,0.98,-74.77
259,1715534685450,-2.07,-0.7400000000000001,-4.6866666666666665,7.530000000000001,-47.080000000000005,58.29
260,1715534685460,-1.94,-0.92,-4.58,-32.71,-71.11,124.82
261,1715534685470,-1.94,-0.92,-4.58,-32.71,-71.11,124.82
262,1715534685480,-1.36,-0.7799999999999999,-4.08,-26.080000000000002,-101.48333333333333,157.08666666666667
263,1715534685490,-1.07,-0.71,-3.83,-12.82,-162.23,221.62
264,1715534685500,-1.07,-0.71,-3.83,-12.82,-162.23,221.62
265,1715534685510,-0.5825,-0.915,-3.2725,-57.910000000000004,-161.285,256.135
266,1715534685520,0.88,-1.53,-1.6000000000000003,-193.17999999999998,-158.45,359.68
267,1715534685530,0.88,-1.53,-1.6,-193.18,-158.45,359.68
268,1715534685540,0.88,-1.53,-1.6000000000000003,-193.17999999999998,-158.45,359.68
269,1715534685550,0.88,-1.53,-1.6000000000000003,-193.17999999999998,-158.45,359.68
270,1715534685560,0.88,-1.53,-1.6000000000000003,-193.17999999999998,-158.45,359.68
271,1715534685570,2.22,-1.73,0.28,-298.1,-214.29,339.97
272,1715534685580,2.22,-1.73,0.28,-298.1,-214.29,339.97
273,1715534685590,2.4133333333333336,-1.8633333333333333,1.3,-321.5733333333333,-214.78333333333333,311.56333333333333
274,1715534685600,2.51,-1.93,1.81,-333.31,-215.03,297.36
275,1715534685610,2.51,-1.93,1.8099999999999998,-333.31,-215.03,297.36
276,1715534685620,2.51,-1.93,1.81,-333.31,-215.03,297.36
277,1715534685630,2.07,-1.72,1.3,-358.66333333333336,-168.88333333333333,253.9466666666667
278,1715534685640,2.07,-1.72,1.3,-371.34,-145.81,232.24
279,1715534685650,2.07,-1.72,1.3,-371.34,-145.81,232.24
280,1715534685660,1.982,-1.762,1.304,-371.34,-145.81,232.24
281,1715534685670,1.63,-1.93,1.32,-398.01,-168.4,171.63
282,1715534685680,1.63,-1.93,1.32,-398.01,-168.4,171.63
283,1715534685690,1.63,-1.93,1.32,-398.01,-168.4,171.63
284,1715534685700,1.63,-1.93,1.32,-398.01,-168.4,171.63
285,1715534685710,1.63,-1.93,1.32,-398.01,-168.4,171.63
286,1715534685720,1.63,-1.93,1.32,-398.01,-168.4,171.63
287,1715534685730,1.63,-1.93,1.32,-398.01,-168.4,171.63
288,1715534685740,1.63,-1.93,1.32,-398.01,-168.4,171.63
289,1715534685750,1.63,-1.93,1.32,-398.01,-168.4,171.63
290,1715534685760,1.63,-1.93,1.32,-398.01,-168.4,171.63
291,1715534685770,1.63,-1.93,1.32,-398.01,-168.4,171.63
292,1715534685780,1.175,-1.685,1.5025,-451.69,-103.045,150.20749999999998
293,1715534685790,0.95,-1.51,2.07,-381.53,-177.0,96.56
294,1715534685800,0.95,-1.51,2.07,-381.53,-177.0,96.56
295,1715534685810,0.9499999999999998,-1.51,2.07,-381.53,-177.0,96.56
296,1715534685820,1.1633333333333333,-0.6166666666666667,3.123333333333333,-359.23,-109.21333333333332,91.51333333333332
297,1715534685830,1.27,-0.17,3.65,-348.08,-75.32,88.99
298,1715534685840,1.27,-0.17,3.65,-348.08,-75.32,88.99
299,1715534685850,1.27,-0.17,3.65,-348.08,-75.32,88.99
300,1715534685860,1.5633333333333332,-0.10333333333333335,5.25,-276.46666666666664,-106.01999999999998,91.34999999999998
301,1715534685870,1.71,-0.07,6.05,-133.24,-167.42,96.07
302,1715534685880,1.71,-0.07,6.05,-133.24,-167.42,96.07
303,1715534685890,1.71,-0.07,6.05,-133.24,-167.42,96.07
304,1715534685900,3.3225,-0.43000000000000005,6.619999999999999,0.1549999999999958,-20.292499999999997,32.8075
305,1715534685910,3.86,-0.55,6.81,44.62,28.75,11.72
306,1715534685920,3.86,-0.55,6.81,44.62,28.75,11.72
307,1715534685930,3.86,-0.55,6.81,44.62,28.75,11.72
308,1715534685940,3.1,-2.12,5.3,180.07,88.07499999999999,-124.24000000000001
309,1715534685950,3.1,-2.12,5.3,225.22,107.84999999999998,-169.56
310,1715534685960,3.1,-2.12,5.3,225.22,107.84999999999998,-169.56
311,1715534685970,3.1,-2.12,5.3,225.22,107.84999999999998,-169.56
312,1715534685980,1.72,-1.6900000000000002,3.03,271.42,196.11,-93.63
313,1715534685990,1.72,-1.6900000000000002,3.03,271.42,196.11,-93.63
314,1715534686000,1.72,-1.69,3.03,271.42,196.11,-93.63
315,1715534686010,1.72,-1.6900000000000002,3.03,271.42,196.11,-93.63
316,1715534686020,1.5999999999999999,-1.13,2.4166666666666665,365.17333333333335,152.53,-52.29
317,1715534686030,1.54,-0.85,2.11,412.05,130.74,-31.62
318,1715534686040,1.54,-0.85,2.11,412.05,130.74,-31.62
319,1715534686050,1.65,-0.86,1.8599999999999999,422.165,139.865,-49.5475
320,1715534686060,1.9799999999999998,-0.89,1.11,452.51,167.24,-103.33
321,1715534686070,1.9799999999999998,-0.89,1.11,452.51,167.24,-103.33
322,1715534686080,1.9799999999999998,-0.89,1.11,452.51,167.24,-103.33
323,1715534686090,1.685,-1.37,0.91,452.51,167.24,-103.33
324,1715534686100,1.39,-1.85,0.71,419.95,143.925,-172.35999999999999
325,1715534686110,1.39,-1.8500000000000003,0.71,387.39000000000004,120.61,-241.39
326,1715534686120,1.39,-1.85,0.71,387.39,120.61,-241.39
327,1715534686130,1.3233333333333333,-1.8966666666666665,0.9566666666666667,354.75666666666666,108.72333333333334,-229.71666666666667
328,1715534686140,1.29,-1.92,1.08,338.44,102.78,-223.88
329,1715534686150,1.29,-1.92,1.08,338.44,102.78,-223.88
330,1715534686160,1.29,-1.92,1.08,338.44,102.78,-223.88
331,1715534686170,1.385,-1.855,1.1,312.96000000000004,139.92000000000002,-220.34
332,1715534686180,1.48,-1.79,1.12,287.48,177.06,-216.8
333,1715534686190,1.48,-1.79,1.12,287.48,177.06,-216.8
334,1715534686200,1.4799999999999998,-1.79,1.12,287.48,177.06000000000003,-216.80000000000004
335,1715534686210,1.32,-1.78,0.69,255.37,178.77,-232.6
336,1715534686220,1.32,-1.78,0.69,255.37,178.77,-232.6
337,1715534686230,1.32,-1.78,0.69,255.37,178.77,-232.6
338,1715534686240,1.32,-1.78,0.69,255.37,178.77,-232.6
339,1715534686250,1.32,-1.78,0.69,255.37,178.77,-232.6
340,1715534686260,1.32,-1.78,0.69,255.37,178.77,-232.6
341,1715534686270,1.32,-1.78,0.69,255.37,178.77,-232.6
342,1715534686280,1.32,-1.78,0.69,255.37,178.77,-232.6
343,1715534686290,1.32,-1.78,0.69,255.37,178.77,-232.6
344,1715534686300,1.38,-1.54,0.35666666666666663,164.47,237.57000000000002,-204.89333333333332
345,1715534686310,1.41,-1.42,0.19,119.02,266.97,-191.04
346,1715534686320,1.41,-1.42,0.19000000000000003,119.02,266.97,-191.04
347,1715534686330,-0.42,-1.13,-1.85,195.62,106.26,-207.58
348,1715534686340,-0.42,-1.13,-1.85,195.62,106.26,-207.58
349,1715534686350,-0.42,-1.13,-1.85,195.62,106.26,-207.58
350,1715534686360,-0.42,-1.13,-1.8500000000000003,195.62,106.26,-207.58
351,1715534686370,-2.21,-0.84,-3.7000000000000006,111.02,39.98,-111.15000000000002
352,1715534686380,-2.21,-0.84,-3.7000000000000006,111.02,39.98,-111.15000000000002
353,1715534686390,-2.21,-0.84,-3.7,111.02,39.98,-111.15
354,1715534686400,-2.3033333333333332,-0.7799999999999999,-4.273333333333333,50.31333333333333,-12.386666666666668,15.483333333333329
355,1715534686410,-2.35,-0.75,-4.56,19.96,-38.57,78.8
356,1715534686420,-2.35,-0.75,-4.56,19.96,-38.57,78.8
357,1715534686430,-2.35,-0.75,-4.56,19.96,-38.57,78.8
358,1715534686440,-2.4475,-0.9225,-4.432499999999999,-25.865000000000002,-80.82499999999999,112.0775
359,1715534686450,-2.48,-0.98,-4.39,-41.14,-94.91,123.17
360,1715534686460,-2.48,-0.98,-4.39,-41.14,-94.91000000000001,123.17
361,1715534686470,-2.48,-0.98,-4.39,-41.14,-94.91,123.17
362,1715534686480,-0.41,-1.61,-1.89,-157.59,-142.82,283.45
363,1715534686490,-0.41,-1.61,-1.89,-157.59,-142.82,283.45
364,1715534686500,-0.41,-1.61,-1.89,-157.59,-142.82,283.45
365,1715534686510,-0.41,-1.61,-1.89,-157.59,-142.82,283.45
366,1715534686520,1.83,-2.03,-0.09000000000000001,-300.35,-155.03,355.41
367,1715534686530,1.83,-2.03,-0.09000000000000001,-300.35,-155.03,355.41
368,1715534686540,1.83,-2.03,-0.09000000000000001,-300.35,-155.03,355.41
369,1715534686550,2.11,-2.0666666666666664,0.52,-291.03333333333336,-195.70000000000002,332.7666666666667
370,1715534686560,2.67,-2.14,1.74,-272.4,-277.04,287.48
371,1715534686570,2.67,-2.14,1.74,-272.4,-277.04,287.48
372,1715534686580,2.67,-2.14,1.74,-272.4,-277.04,287.48
373,1715534686590,2.56,-1.885,1.615,-281.71,-209.99,282.17
374,1715534686600,2.45,-1.63,1.49,-291.02,-142.94,276.86
375,1715534686610,2.45,-1.63,1.49,-291.02,-142.94,276.86
376,1715534686620,2.45,-1.63,1.49,-291.02,-142.94,276.86
377,1715534686630,2.2800000000000002,-1.6524999999999999,1.405,-310.505,-140.82,266.1625
378,1715534686640,1.7700000000000002,-1.72,1.15,-368.96,-134.46,234.07000000000002
379,1715534686650,1.77,-1.72,1.15,-368.96,-134.46,234.07
380,1715534686660,1.7700000000000002,-1.72,1.15,-368.96,-134.46,234.07000000000002
381,1715534686670,1.5,-1.83,1.26,-420.41,-102.78000000000002,242.74
382,1715534686680,1.5,-1.83,1.26,-420.41,-102.78,242.74
383,1715534686690,1.5,-1.83,1.26,-420.41,-102.78000000000002,242.74
384,1715534686700,1.5,-1.83,1.26,-420.41,-102.78,242.74
385,1715534686710,1.46,-1.6,1.21,-419.13,-113.71,235.66
386,1715534686720,1.46,-1.6,1.21,-419.13,-113.71,235.66
387,1715534686730,1.46,-1.6000000000000003,1.21,-419.12999999999994,-113.71,235.66
388,1715534686740,1.46,-1.6,1.21,-419.13,-113.71,235.66
389,1715534686750,1.46,-1.6000000000000003,1.21,-419.12999999999994,-113.71,235.66
390,1715534686760,1.46,-1.6,1.21,-419.13,-113.71,235.66
391,1715534686770,1.46,-1.6000000000000003,1.21,-419.12999999999994,-113.71,235.66
392,1715534686780,1.46,-1.6000000000000003,1.21,-419.12999999999994,-113.71,235.66
393,1715534686790,1.46,-1.6,1.21,-419.13,-113.71,235.66
394,1715534686800,1.46,-1.6,1.21,-419.13,-113.71,235.66
395,1715534686810,1.46,-1.6000000000000003,1.21,-419.12999999999994,-113.71,235.66
396,1715534686820,1.46,-1.6000000000000003,1.21,-419.12999999999994,-113.71,235.66
397,1715534686830,1.15,-0.6,3.89,-391.6000000000001,-67.63,-84.78
398,1715534686840,1.15,-0.6,3.89,-391.6,-67.63,-84.78
399,1715534686850,1.15,-0.6,3.89,-391.6000000000001,-67.63,-84.78
400,1715534686860,2.7624999999999997,-0.375,6.365,-146.515,-60.0775,99.42750000000001
401,1715534686870,3.2999999999999994,-0.3,7.19,-64.82,-57.56,160.83
402,1715534686880,3.3,-0.3,7.19,-64.82,-57.56,160.83
403,1715534686890,3.2999999999999994,-0.3,7.19,-64.82,-57.56,160.83
404,1715534686900,3.52,-1.43,5.830000000000001,214.48,-54.57,-160.77
405,1715534686910,3.52,-1.43,5.83,214.48,-54.57,-160.77
406,1715534686920,3.52,-1.43,5.83,214.48,-54.57,-160.77
407,1715534686930,3.52,-1.43,5.83,214.48,-54.57,-160.77
408,1715534686940,2.16,-1.88,4.03,166.02,196.35,-136.72
409,1715534686950,2.16,-1.88,4.03,166.02,196.35,-136.72
410,1715534686960,2.16,-1.88,4.03,166.02,196.35,-136.72
411,1715534686970,2.16,-1.88,4.03,166.02,196.35,-136.72
412,1715534686980,1.26,-1.22,2.94,280.7,150.63,-62.32
413,1715534686990,1.26,-1.22,2.94,280.7,150.63,-62.32
414,1715534687000,1.26,-1.22,2.94,280.7,150.63,-62.32
415,1715534687010,1.4175,-1.015,2.6425,280.7,150.63,-62.32
416,1715534687020,1.89,-0.4000000000000001,1.75,399.29,170.59,14.47
417,1715534687030,1.89,-0.4000000000000001,1.75,399.29,170.59,14.47
418,1715534687040,1.89,-0.4,1.75,399.29,170.59,14.47
419,1715534687050,1.9333333333333333,-0.6066666666666667,1.5233333333333334,396.32,181.5566666666667,-28.560000000000002
420,1715534687060,2.02,-1.02,1.07,390.38,203.49,-114.62
421,1715534687070,2.02,-1.02,1.07,390.37999999999994,203.49,-114.62
422,1715534687080,2.02,-1.02,1.07,390.37999999999994,203.49,-114.62
423,1715534687090,2.02,-1.02,1.07,390.38,203.49,-114.62
424,1715534687100,1.45,-1.7,0.64,398.07,142.88,-221.86
425,1715534687110,1.45,-1.7,0.64,398.07,142.88,-221.86000000000004
426,1715534687120,1.45,-1.7,0.64,398.07,142.88,-221.86
427,1715534687130,1.3433333333333335,-1.76,0.8066666666666666,378.05,140.90666666666667,-229.02333333333334
428,1715534687140,1.29,-1.79,0.89,338.01,136.96,-243.35
429,1715534687150,1.29,-1.79,0.89,338.01,136.96,-243.35
430,1715534687160,1.29,-1.79,0.89,338.01,136.96,-243.35
431,1715534687170,1.185,-1.745,0.845,270.71999999999997,194.275,-223.07
432,1715534687180,1.15,-1.73,0.83,248.29,213.38,-216.31
433,1715534687190,1.15,-1.7299999999999998,0.83,248.29,213.38,-216.31000000000003
434,1715534687200,1.15,-1.7299999999999998,0.83,248.29,213.38,-216.31000000000003
435,1715534687210,1.34,-1.46,0.88,261.23,152.89,-194.34
436,1715534687220,1.34,-1.46,0.88,261.23,152.89,-194.34
437,1715534687230,1.34,-1.46,0.88,261.23,152.89,-194.34
438,1715534687240,1.34,-1.46,0.88,261.23,152.89,-194.34
439,1715534687250,1.53,-1.41,0.73,231.87,172.0,-237.0
440,1715534687260,1.53,-1.41,0.73,231.87,172.0,-237.0
441,1715534687270,1.53,-1.41,0.73,231.87,172.0,-237.0
442,1715534687280,1.53,-1.41,0.73,231.87,172.0,-237.0
443,1715534687290,1.53,-1.41,0.73,231.87,172.0,-237.0
444,1715534687300,1.53,-1.41,0.73,231.87,172.0,-237.0
445,1715534687310,1.53,-1.41,0.73,231.87,172.0,-237.0
446,1715534687320,1.53,-1.41,0.73,231.87,172.0,-237.0
447,1715534687330,1.53,-1.41,0.73,231.87,172.0,-237.0
448,1715534687340,1.53,-1.41,0.73,231.87,172.0,-237.0
449,1715534687350,0.20333333333333334,-1.3433333333333335,-1.5700000000000003,178.12333333333333,163.53333333333333,-214.62
450,1715534687360,-1.9449999999999998,-0.8075,-4.227500000000001,120.2525,39.4125,-191.3025
451,1715534687370,-2.44,-0.64,-4.73,109.92,-0.55,-187.26
452,1715534687380,-2.44,-0.64,-4.73,109.92,-0.55,-187.26
453,1715534687390,-2.44,-0.64,-4.73,109.92,-0.55,-187.26
454,1715534687400,-2.29,-1.09,-4.44,-18.9825,-24.7225,-18.345
455,1715534687410,-2.29,-1.09,-4.44,-61.95,-32.78,37.96
456,1715534687420,-2.29,-1.09,-4.44,-61.95000000000001,-32.78,37.96
457,1715534687430,-2.29,-1.09,-4.44,-61.95,-32.78,37.96
458,1715534687440,-2.25,-1.36,-3.81,-48.4,-171.02,106.32
459,1715534687450,-2.25,-1.36,-3.81,-48.4,-171.02,106.32
460,1715534687460,-2.25,-1.36,-3.81,-48.4,-171.02,106.32
461,1715534687470,-1.5633333333333335,-1.53,-2.98,-79.58999999999999,-172.52666666666667,179.01333333333332
462,1715534687480,-0.19000000000000003,-1.87,-1.32,-141.97,-175.54,324.4
463,1715534687490,-0.19,-1.87,-1.32,-141.97,-175.54,324.4
464,1715534687500,-0.19,-1.87,-1.32,-141.97,-175.54,324.4
465,1715534687510,-0.19000000000000003,-1.87,-1.32,-141.97,-175.54,324.4
466,1715534687520,-0.19000000000000003,-1.87,-1.32,-141.97,-175.54,324.4
467,1715534687530,-0.19000000000000003,-1.87,-1.32,-141.97,-175.54,324.4
468,1715534687540,-0.19000000000000003,-1.87,-1.32,-141.97,-175.54,324.4
469,1715534687550,0.6233333333333334,-1.9266666666666667,-0.7133333333333334,-141.97,-175.54,324.4
470,1715534687560,2.77,-1.96,1.76,-230.96,-228.52,360.66
471,1715534687570,2.77,-1.96,1.76,-230.96,-228.52,360.66
472,1715534687580,2.77,-1.96,1.76,-230.96,-228.52,360.66
473,1715534687590,2.46,-1.46,1.95,-334.41,-76.9,328.43
474,1715534687600,2.46,-1.46,1.95,-334.41,-76.9,328.43
475,1715534687610,2.46,-1.46,1.95,-334.41,-76.9,328.43
476,1715534687620,2.46,-1.46,1.95,-334.41,-76.9,328.43
477,1715534687630,1.42,-1.53,1.25,-334.41,-76.9,328.43
478,1715534687640,1.42,-1.53,1.25,-438.10999999999996,-9.22,242.07000000000002
479,1715534687650,1.42,-1.53,1.25,-438.10999999999996,-9.22,242.07000000000002
480,1715534687660,1.4024999999999999,-1.51,1.2725,-409.9275,-44.665,216.465
481,1715534687670,1.35,-1.45,1.34,-325.38,-151.0,139.65
482,1715534687680,1.3500000000000003,-1.45,1.34,-325.38,-151.0,139.65
483,1715534687690,1.35,-1.45,1.34,-325.38,-151.0,139.65
484,1715534687700,1.2333333333333334,-1.3866666666666667,1.32,-363.5466666666666,-106.89333333333333,143.39333333333335
485,1715534687710,1.0,-1.26,1.28,-439.87999999999994,-18.68,150.88
486,1715534687720,1.0,-1.26,1.28,-439.88,-18.68,150.88
487,1715534687730,1.0,-1.26,1.28,-439.87999999999994,-18.68,150.88
488,1715534687740,1.0725,-1.105,1.3025,-427.3375,-45.9775,144.165
489,1715534687750,1.29,-0.64,1.37,-389.71,-127.87,124.02
490,1715534687760,1.29,-0.64,1.37,-389.71,-127.87,124.02
491,1715534687770,1.29,-0.64,1.37,-389.71,-127.87,124.02
492,1715534687780,1.2533333333333332,-0.3433333333333333,1.9733333333333334,-389.71,-127.87,124.02
493,1715534687790,1.18,0.25,3.18,-389.71,-127.87,124.02
494,1715534687800,1.18,0.25,3.18,-389.71,-127.87,124.02
495,1715534687810,1.18,0.25,3.18,-389.71,-127.87,124.02
496,1715534687820,1.18,0.25,3.18,-389.71,-127.87,124.02
497,1715534687830,1.18,0.25,3.18,-389.71,-127.87,124.02
498,1715534687840,1.18,0.25,3.18,-389.71,-127.87,124.02
499,1715534687850,1.18,0.25,3.18,-389.71,-127.87,124.02
500,1715534687860,1.18,0.25,3.18,-389.71,-127.87,124.02
501,1715534687870,1.18,0.25,3.18,-389.71,-127.87,124.02
502,1715534687880,4.18,0.33,6.78,93.81,-86.91,-42.05
503,1715534687890,4.18,0.33,6.78,93.81,-86.91,-42.05
504,1715534687900,2.93,-1.28,4.86,104.74,144.1,-172.06
505,1715534687910,2.93,-1.28,4.86,104.74,144.1,-172.06000000000003
506,1715534687920,2.93,-1.28,4.86,104.74,144.1,-172.06
507,1715534687930,2.93,-1.28,4.86,104.74,144.1,-172.06
508,1715534687940,2.3866666666666667,-1.2566666666666666,4.283333333333334,114.33999999999999,159.23666666666665,-155.07000000000002
509,1715534687950,1.3,-1.21,3.1300000000000003,133.54,189.51,-121.08999999999999
510,1715534687960,1.3,-1.21,3.13,133.54,189.51,-121.09
511,1715534687970,1.3,-1.21,3.1300000000000003,133.54,189.51,-121.08999999999999
512,1715534687980,0.77,-0.61,2.6,245.12,127.32,-11.96
513,1715534687990,0.77,-0.61,2.6,245.12,127.32,-11.96
514,1715534688000,0.77,-0.61,2.6,245.12,127.32,-11.96
515,1715534688010,0.77,-0.61,2.6,245.12,127.32,-11.96
516,1715534688020,1.2766666666666666,-0.12333333333333334,2.04,369.3866666666666,72.67333333333333,14.566666666666665
517,1715534688030,1.53,0.12,1.76,431.52,45.35,27.83
518,1715534688040,1.53,0.12,1.76,431.52,45.35,27.83
519,1715534688050,1.53,0.12,1.76,431.52,45.35,27.83
520,1715534688060,2.12,-0.51,0.94,465.33,26.429999999999996,-188.11
521,1715534688070,2.12,-0.51,0.94,465.33,26.429999999999996,-188.11
522,1715534688080,2.12,-0.51,0.94,465.33,26.429999999999996,-188.11
523,1715534688090,2.054,-1.074,1.186,419.154,-25.206,-282.556
524,1715534688100,2.01,-1.45,1.35,388.37,-59.63000000000001,-345.52
525,1715534688110,2.01,-1.45,1.35,388.37,-59.63000000000001,-345.52
526,1715534688120,2.01,-1.45,1.3500000000000003,388.37000000000006,-59.63,-345.52
527,1715534688130,2.085,-1.6666666666666667,1.6666666666666667,299.35,43.245000000000005,-342.74500000000006
528,1715534688140,2.1,-1.7100000000000002,1.73,210.33,146.12,-339.97
529,1715534688150,2.1,-1.71,1.7299999999999998,210.33,146.12,-339.97
530,1715534688160,2.1,-1.7100000000000002,1.73,210.33,146.12,-339.97
531,1715534688170,1.92,-2.08,1.2,193.91,222.84,-321.78
532,1715534688180,1.92,-2.08,1.2,193.91,222.84,-321.78
533,1715534688190,1.92,-2.08,1.2,193.91,222.84,-321.78
534,1715534688200,1.8719999999999999,-2.04,1.16,210.314,199.964,-320.828
535,1715534688210,1.8,-1.9799999999999998,1.1,234.92,165.65,-319.4
536,1715534688220,1.8,-1.98,1.1,234.92,165.65,-319.4
537,1715534688230,1.8,-1.98,1.1,234.92,165.65,-319.4
538,1715534688240,1.566,-1.95,0.668,214.464,198.07,-293.448
539,1715534688250,1.41,-1.9300000000000002,0.38,183.78,246.7,-254.52000000000004
540,1715534688260,1.41,-1.9300000000000002,0.38,183.78,246.7,-254.52000000000004
541,1715534688270,1.41,-1.9300000000000002,0.38,183.78,246.7,-254.52000000000004
542,1715534688280,0.7949999999999999,-1.72,-0.6799999999999999,132.875,274.53499999999997,-238.895
543,1715534688290,0.18,-1.51,-1.7399999999999998,81.97,302.37,-223.27000000000004
544,1715534688300,0.18,-1.51,-1.7399999999999998,81.97,302.37,-223.27000000000004
545,1715534688310,0.18,-1.51,-1.74,81.97,302.37,-223.27
546,1715534688320,0.18,-1.51,-1.74,81.97,302.37,-223.27
547,1715534688330,0.18,-1.51,-1.74,81.97,302.37,-223.27
548,1715534688340,0.18,-1.51,-1.74,81.97,302.37,-223.27
549,1715534688350,0.18,-1.51,-1.74,81.97,302.37,-223.27
550,1715534688360,0.18,-1.51,-1.74,81.97,302.37,-223.27
551,1715534688370,0.18,-1.51,-1.74,81.97,302.37,-223.27
552,1715534688380,0.18000000000000002,-1.51,-1.74,81.97,302.37,-223.27
553,1715534688390,0.18000000000000002,-1.51,-1.74,81.97,302.37,-223.27
554,1715534688400,-1.5200000000000002,-1.17,-3.186666666666667,7.876666666666665,66.32333333333334,-38.903333333333336
555,1715534688410,-2.37,-1.0,-3.91,-29.17,-51.7,53.28
556,1715534688420,-2.37,-1.0,-3.91,-29.17,-51.70000000000001,53.28
557,1715534688430,-1.9500000000000002,-1.1833333333333333,-3.4233333333333333,-56.35333333333333,-71.49333333333334,116.96
558,1715534688440,-1.11,-1.55,-2.45,-110.72,-111.08,244.32
559,1715534688450,-1.11,-1.55,-2.45,-110.71999999999998,-111.08,244.32000000000002
560,1715534688460,-1.11,-1.55,-2.45,-110.72,-111.08,244.32
561,1715534688470,-1.11,-1.55,-2.45,-110.71999999999998,-111.08,244.32000000000002
562,1715534688480,0.98,-1.7700000000000002,-0.41,-251.71,-140.62,359.01
563,1715534688490,0.98,-1.77,-0.41,-251.71,-140.62,359.01
564,1715534688500,0.9800000000000001,-1.77,-0.41,-251.70999999999998,-140.62,359.01
565,1715534688510,1.6866666666666668,-1.8233333333333335,0.7633333333333333,-300.21,-154.54,344.5233333333333
566,1715534688520,2.04,-1.8500000000000003,1.3500000000000003,-324.46,-161.5,337.28
567,1715534688530,2.04,-1.85,1.35,-324.46,-161.5,337.28
568,1715534688540,2.04,-1.8500000000000003,1.3500000000000003,-324.46,-161.5,337.28
569,1715534688550,1.98,-1.8575000000000002,1.71,-347.80499999999995,-139.07,314.90999999999997
570,1715534688560,1.96,-1.86,1.83,-371.15,-116.64,292.54
571,1715534688570,1.96,-1.86,1.83,-371.15,-116.64,292.54
572,1715534688580,1.96,-1.86,1.83,-371.1499999999999,-116.64,292.54
573,1715534688590,1.7,-1.53,1.63,-308.65,-117.74,244.51
574,1715534688600,1.7,-1.53,1.63,-308.65,-117.74,244.51
575,1715534688610,1.7,-1.53,1.63,-308.65,-117.74,244.51
576,1715534688620,1.7,-1.53,1.63,-308.65,-117.74,244.51
577,1715534688630,1.36,-1.37,1.38,-322.11,-102.61749999999999,233.355
578,1715534688640,1.36,-1.37,1.38,-362.49,-57.25,199.89
579,1715534688650,1.36,-1.37,1.38,-362.49,-57.25,199.89
580,1715534688660,1.36,-1.37,1.38,-362.49,-57.25,199.89
581,1715534688670,0.99,-1.33,1.08,-418.15,-10.86,175.72
582,1715534688680,0.99,-1.33,1.08,-418.15,-10.86,175.72
583,1715534688690,0.9899999999999999,-1.33,1.08,-418.1499999999999,-10.86,175.72
584,1715534688700,1.0150000000000001,-1.2875,1.1425,-409.7725,-30.485,158.845
585,1715534688710,1.09,-1.16,1.33,-384.64000000000004,-89.36,108.21999999999998
586,1715534688720,1.09,-1.16,1.33,-384.64000000000004,-89.36,108.21999999999998
587,1715534688730,1.09,-1.16,1.33,-384.64000000000004,-89.36,108.21999999999998
588,1715534688740,1.175,-0.6399999999999999,1.81,-396.86249999999995,-69.355,104.77
589,1715534688750,1.26,-0.12,2.29,-433.53,-9.34,94.42
590,1715534688760,1.26,-0.12,2.29,-433.53,-9.34,94.42
591,1715534688770,1.26,-0.12,2.29,-433.53,-9.34,94.42
592,1715534688780,1.3766666666666667,0.16666666666666666,2.9433333333333334,-403.5833333333333,-26.346666666666664,37.43333333333333
593,1715534688790,1.61,0.74,4.25,-343.69,-60.36,-76.54
594,1715534688800,1.61,0.74,4.25,-343.69,-60.36,-76.54
595,1715534688810,1.61,0.7399999999999999,4.25,-343.69,-60.35999999999999,-76.54
596,1715534688820,1.3275000000000001,0.345,5.035,-326.005,-39.8675,-60.655
597,1715534688830,0.48,-0.84,7.39,-272.95,21.61,-13.0
598,1715534688840,0.48,-0.84,7.39,-272.95,21.61,-13.0
599,1715534688850,0.48,-0.84,7.39,-272.95,21.61,-13.0
600,1715534688860,0.48,-0.84,7.39,-272.95,21.61,-13.0
601,1715534688870,0.48,-0.84,7.39,-272.95,21.61,-13.0
602,1715534688880,0.48,-0.84,7.39,-272.95,21.61,-13.0
603,1715534688890,0.48,-0.84,7.39,-272.95,21.61,-13.0
604,1715534688900,0.48,-0.84,7.39,-272.95,21.61,-13.0
605,1715534688910,0.48,-0.84,7.39,-272.95,21.61,-13.0
606,1715534688920,1.2466666666666666,-0.9533333333333333,5.45,60.01666666666667,91.67666666666666,-49.25333333333333
607,1715534688930,1.63,-1.01,4.48,226.5,126.71,-67.38
608,1715534688940,1.6499999999999997,-0.45,3.18,279.6,152.4,-54.02
609,1715534688950,1.6499999999999997,-0.45,3.18,279.6,152.4,-54.02
610,1715534688960,1.65,-0.45,3.18,279.6,152.4,-54.02
611,1715534688970,1.7149999999999999,-0.495,2.7199999999999998,300.78,169.25,-76.905
612,1715534688980,1.78,-0.54,2.26,321.96,186.1,-99.79
613,1715534688990,1.78,-0.54,2.26,321.96,186.1,-99.79
614,1715534689000,1.78,-0.54,2.26,321.96,186.1,-99.79
615,1715534689010,1.65,-0.92,1.835,355.03999999999996,185.14999999999998,-124.6
616,1715534689020,1.52,-1.3,1.41,388.12,184.2,-149.41
617,1715534689030,1.52,-1.3,1.41,388.12,184.2,-149.41
618,1715534689040,1.5200000000000002,-1.3,1.41,388.12000000000006,184.19999999999996,-149.41
619,1715534689050,1.4633333333333336,-1.4766666666666666,1.2866666666666666,392.5566666666667,174.82333333333335,-165.79
620,1715534689060,1.3500000000000003,-1.83,1.04,401.43,156.07,-198.55000000000004
621,1715534689070,1.35,-1.83,1.04,401.43,156.07,-198.55
622,1715534689080,1.3500000000000003,-1.83,1.04,401.43,156.07,-198.55000000000004
623,1715534689090,1.32,-1.92,1.005,361.725,177.095,-196.53500000000003
624,1715534689100,1.29,-2.01,0.97,322.02,198.12,-194.52
625,1715534689110,1.29,-2.01,0.9700000000000001,322.02,198.12,-194.52
626,1715534689120,1.1833333333333333,-1.9466666666666665,0.9066666666666666,299.8633333333333,196.18666666666664,-170.55333333333334
627,1715534689130,0.9700000000000001,-1.82,0.7799999999999999,255.55000000000004,192.32000000000002,-122.62
628,1715534689140,0.97,-1.8199999999999998,0.78,255.55,192.32,-122.62
629,1715534689150,0.9700000000000001,-1.82,0.7799999999999999,255.55000000000004,192.32000000000002,-122.62
630,1715534689160,0.9166666666666666,-1.7433333333333334,0.73,255.55000000000004,192.32000000000002,-122.62
631,1715534689170,0.81,-1.59,0.63,275.36999999999995,136.53333333333333,-111.83999999999999
632,1715534689180,0.81,-1.59,0.63,285.28,108.64,-106.45
633,1715534689190,0.81,-1.59,0.63,285.28,108.64,-106.45
634,1715534689200,0.8533333333333334,-1.4900000000000002,0.62,290.4266666666667,81.74333333333333,-103.19333333333334
635,1715534689210,0.94,-1.29,0.6,300.72,27.95,-96.68
636,1715534689220,0.94,-1.29,0.6,300.72,27.95,-96.68
637,1715534689230,0.94,-1.29,0.6,300.72,27.95,-96.68
638,1715534689240,0.8633333333333333,-1.2066666666666668,0.2233333333333333,267.09000000000003,53.54666666666666,-85.22666666666667
639,1715534689250,0.71,-1.04,-0.53,199.83,104.74,-62.32
640,1715534689260,0.71,-1.04,-0.53,199.83,104.74,-62.32
641,1715534689270,0.71,-1.04,-0.53,199.83,104.74,-62.32
642,1715534689280,-0.31000000000000005,-0.9125,-1.8875,177.4875,40.285,-127.22500000000001
643,1715534689290,-0.65,-0.87,-2.34,170.04,18.8,-148.86
644,1715534689300,-0.65,-0.87,-2.34,170.04,18.8,-148.86
645,1715534689310,-0.65,-0.87,-2.34,170.04,18.8,-148.86
646,1715534689320,-2.12,-0.3,-4.05,48.65,84.78,-46.14000000000001
647,1715534689330,-2.12,-0.3,-4.05,48.65,84.78,-46.14
648,1715534689340,-2.12,-0.3,-4.05,48.65,84.78,-46.14
649,1715534689350,-2.12,-0.3,-4.05,48.65,84.78,-46.14000000000001
650,1715534689360,-2.5,-0.54,-4.25,-108.28000000000002,96.68,-24.48
651,1715534689370,-2.5,-0.54,-4.25,-108.28,96.68,-24.48
652,1715534689380,-2.5,-0.54,-4.25,-108.28000000000002,96.68,-24.48
653,1715534689390,-2.5,-0.54,-4.25,-108.28000000000002,96.68,-24.48
654,1715534689400,-2.5,-0.54,-4.25,-108.28,96.68,-24.48
655,1715534689410,-2.5,-0.54,-4.25,-108.28,96.68,-24.48
656,1715534689420,-2.5,-0.54,-4.25,-108.28,96.68,-24.48
657,1715534689430,-2.5,-0.54,-4.25,-108.28,96.68,-24.48
658,1715534689440,-2.5,-0.54,-4.25,-108.28000000000002,96.68,-24.48
659,1715534689450,-0.6066666666666666,-1.4933333333333334,-1.67,-156.9,-23.48,211.89333333333332
660,1715534689460,0.34,-1.97,-0.38,-181.21,-83.56,330.08
661,1715534689470,1.1866666666666668,-1.7433333333333332,0.31333333333333335,-231.71,-93.60666666666667,360.5133333333333
662,1715534689480,1.61,-1.63,0.66,-256.96,-98.63,375.73
663,1715534689490,1.61,-1.63,0.66,-256.96,-98.63,375.73
664,1715534689500,1.61,-1.63,0.66,-256.96,-98.63,375.73
665,1715534689510,1.64,-1.46,1.41,-312.74,-72.33,315.25
666,1715534689520,1.64,-1.46,1.41,-312.74,-72.33,315.25
667,1715534689530,1.64,-1.46,1.41,-312.74,-72.33,315.25
668,1715534689540,1.64,-1.46,1.41,-312.74,-72.33,315.25
669,1715534689550,1.23,-1.38,1.09,-350.0933333333333,-21.63,286.1166666666667
670,1715534689560,1.23,-1.38,1.09,-368.77,3.72,271.55
671,1715534689570,1.23,-1.38,1.09,-368.77,3.72,271.55
672,1715534689580,1.23,-1.38,1.09,-368.77,3.72,271.55
673,1715534689590,0.9899999999999999,-1.45,0.7600000000000001,-443.79,22.89,169.31
674,1715534689600,0.99,-1.45,0.76,-443.79,22.89,169.31
675,1715534689610,0.9899999999999999,-1.45,0.7600000000000001,-443.79,22.89,169.31
676,1715534689620,0.9899999999999999,-1.45,0.7600000000000001,-443.79,22.89,169.31
677,1715534689630,1.01,-1.79,1.01,-530.4,-9.77,108.83
678,1715534689640,1.01,-1.79,1.01,-530.4,-9.77,108.83
679,1715534689650,1.01,-1.79,1.01,-530.4,-9.77,108.83
680,1715534689660,0.97,-1.7825,0.985,-517.0925,-12.745000000000001,90.4725
681,1715534689670,0.85,-1.76,0.91,-477.17,-21.67,35.4
682,1715534689680,0.85,-1.76,0.91,-477.17,-21.67,35.4
683,1715534689690,0.85,-1.76,0.91,-477.17,-21.67,35.4
684,1715534689700,0.8633333333333333,-1.7933333333333332,1.0999999999999999,-472.75666666666666,-42.76666666666667,22.19666666666667
685,1715534689710,0.89,-1.86,1.4799999999999998,-463.93,-84.96,-4.21
686,1715534689720,0.89,-1.86,1.4799999999999998,-463.93,-84.96,-4.21
687,1715534689730,0.89,-1.86,1.48,-463.93,-84.96,-4.21
688,1715534689740,0.9033333333333333,-1.26,2.486666666666667,-446.6366666666667,-42.68666666666667,28.75
689,1715534689750,0.91,-0.96,2.99,-437.99,-21.55,45.23
690,1715534689760,0.91,-0.96,2.99,-437.99,-21.55,45.23
691,1715534689770,0.91,-0.96,2.99,-437.99,-21.55,45.23
692,1715534689780,1.205,-1.59,5.0,-411.225,1.4299999999999997,61.95
693,1715534689790,1.5,-2.22,7.01,-384.46,24.41,78.67
694,1715534689800,1.5,-2.22,7.01,-384.46,24.41,78.67
695,1715534689810,1.5,-2.22,7.010000000000001,-384.46,24.41,78.67
696,1715534689820,1.9933333333333334,-1.64,7.669999999999999,-125.34666666666665,-21.61,80.99000000000001
697,1715534689830,2.24,-1.35,8.0,4.21,-44.62,82.15
698,1715534689840,2.24,-1.35,8.0,4.21,-44.62,82.15
699,1715534689850,2.24,-1.3500000000000003,8.0,4.21,-44.62,82.15
700,1715534689860,1.53,-2.05,5.7,263.24,144.17,-113.95
701,1715534689870,1.53,-2.05,5.7,263.24,144.17,-113.95
702,1715534689880,1.53,-2.05,5.7,263.24,144.17,-113.95
703,1715534689890,1.53,-2.05,5.7,263.24,144.17,-113.95
704,1715534689900,1.53,-2.05,5.7,263.24,144.17,-113.95
705,1715534689910,1.53,-2.05,5.7,263.24,144.17,-113.95
706,1715534689920,1.53,-2.05,5.7,263.24,144.17,-113.95
707,1715534689930,1.53,-2.05,5.7,263.24,144.17,-113.95
708,1715534689940,1.53,-2.05,5.7,263.24,144.17,-113.95
709,1715534689950,1.53,-2.05,5.7,263.24,144.17,-113.95
710,1715534689960,1.53,-2.05,5.7,263.24,144.17,-113.95
711,1715534689970,1.53,-2.05,5.7,263.24,144.17,-113.95
712,1715534689980,1.18,-1.36,1.18,477.91,90.15,-56.82
713,1715534689990,1.18,-1.36,1.18,477.91,90.15000000000002,-56.82
714,1715534690000,1.18,-1.36,1.18,477.91,90.15,-56.82
715,1715534690010,1.15,-1.705,1.135,459.63,84.32,-93.72
716,1715534690020,1.14,-1.82,1.12,441.35,78.49,-130.62
717,1715534690030,1.14,-1.82,1.12,441.35,78.49,-130.62
718,1715534690040,1.14,-1.82,1.12,441.3500000000001,78.49,-130.62
719,1715534690050,1.0999999999999999,-1.84,0.9800000000000001,434.1433333333334,104.49,-168.62
720,1715534690060,1.08,-1.85,0.91,430.54,117.49,-187.62
721,1715534690070,1.08,-1.8500000000000003,0.91,430.54,117.49,-187.62
722,1715534690080,1.08,-1.85,0.91,430.54,117.49,-187.62
723,1715534690090,0.9533333333333335,-1.7033333333333331,0.6433333333333334,372.1933333333333,131.41,-175.04666666666665
724,1715534690100,0.89,-1.63,0.51,343.02,138.37,-168.76
725,1715534690110,0.89,-1.63,0.51,343.02,138.37,-168.76
726,1715534690120,0.89,-1.63,0.51,343.02,138.37,-168.76
727,1715534690130,1.07,-1.49,0.7799999999999999,304.57,57.919999999999995,-205.02
728,1715534690140,1.07,-1.49,0.78,304.57,57.92,-205.02000000000004
729,1715534690150,1.07,-1.49,0.7799999999999999,304.57,57.919999999999995,-205.02
730,1715534690160,1.07,-1.49,0.78,304.57,57.92,-205.02
731,1715534690170,1.06,-1.35,0.71,277.89,46.69,-195.13
732,1715534690180,1.06,-1.3500000000000003,0.71,277.89,46.69,-195.13
733,1715534690190,1.06,-1.35,0.71,277.89,46.69,-195.13
734,1715534690200,1.31,-1.295,0.53,277.89,46.69,-195.13
735,1715534690210,1.56,-1.24,0.35,218.7525,113.3425,-233.5375
736,1715534690220,1.5599999999999998,-1.24,0.3499999999999999,199.04,135.56,-246.34
737,1715534690230,1.5599999999999998,-1.24,0.3499999999999999,199.04,135.56,-246.34
738,1715534690240,0.007500000000000007,-1.8325,-1.18,162.185,191.9525,-203.26
739,1715534690250,-0.51,-2.03,-1.6900000000000002,149.9,210.75,-188.9
740,1715534690260,-0.51,-2.03,-1.6900000000000002,149.9,210.75,-188.9
741,1715534690270,-0.51,-2.03,-1.6900000000000002,149.9,210.75,-188.9
742,1715534690280,-1.75,-1.5566666666666666,-3.75,137.49333333333334,111.35000000000001,-172.29999999999998
743,1715534690290,-2.37,-1.32,-4.78,131.29,61.65,-164.0
744,1715534690300,-2.37,-1.32,-4.78,131.29,61.65,-164.0
745,1715534690310,-2.37,-1.32,-4.78,131.29,61.65,-164.0
746,1715534690320,-2.85,-1.315,-4.9399999999999995,3.9099999999999966,50.69,-47.91
747,1715534690330,-3.33,-1.31,-5.1,-123.46999999999998,39.73,68.18
748,1715534690340,-3.33,-1.31,-5.1,-123.47,39.73,68.18
749,1715534690350,-2.986666666666667,-1.33,-4.573333333333333,-130.18666666666667,-19.676666666666673,127.56666666666668
750,1715534690360,-2.3,-1.37,-3.52,-143.62,-138.49,246.34
751,1715534690370,-2.3,-1.37,-3.52,-143.62,-138.49,246.34
752,1715534690380,-2.3,-1.37,-3.52,-143.62,-138.49,246.34
753,1715534690390,-0.8499999999999999,-1.48,-2.3449999999999998,-207.065,-120.76,323.945
754,1715534690400,0.6,-1.59,-1.17,-270.51,-103.03,401.55
755,1715534690410,0.6,-1.59,-1.17,-270.51,-103.03,401.55
756,1715534690420,0.6,-1.59,-1.17,-270.51,-103.03000000000002,401.55
757,1715534690430,0.6,-1.59,-1.17,-270.51,-103.03,401.55
758,1715534690440,0.6,-1.59,-1.17,-270.51,-103.03000000000002,401.55
759,1715534690450,0.6,-1.59,-1.17,-270.51,-103.03,401.55
760,1715534690460,0.6,-1.59,-1.17,-270.51,-103.03000000000002,401.55
761,1715534690470,0.6,-1.59,-1.17,-270.51,-103.03,401.55
762,1715534690480,0.6,-1.59,-1.17,-270.51,-103.03000000000002,401.55
763,1715534690490,0.6,-1.59,-1.17,-270.51,-103.03000000000002,401.55
764,1715534690500,2.16,-1.55,1.97,-240.17,-181.21,240.05000000000004
765,1715534690510,1.6866666666666668,-1.3366666666666667,1.5833333333333333,-276.83666666666664,-96.13,233.13666666666668
766,1715534690520,1.45,-1.23,1.39,-295.17,-53.59,229.67999999999998
767,1715534690530,1.45,-1.23,1.39,-295.17,-53.59,229.67999999999998
768,1715534690540,1.45,-1.23,1.39,-295.17,-53.59,229.67999999999998
769,1715534690550,1.15,-1.34,1.09,-355.83,-51.94,182.37
770,1715534690560,1.15,-1.34,1.09,-355.83,-51.94,182.37
771,1715534690570,1.15,-1.34,1.09,-355.83,-51.94,182.37
772,1715534690580,1.15,-1.34,1.09,-355.83,-51.94,182.37
773,1715534690590,1.04,-1.23,1.2,-420.65,1.1,145.26
774,1715534690600,1.04,-1.23,1.2,-420.6499999999999,1.1,145.26
775,1715534690610,1.04,-1.23,1.2,-420.65,1.1,145.26
776,1715534690620,0.99,-1.23,1.1175,-442.91249999999997,18.189999999999998,137.3275
777,1715534690630,0.84,-1.23,0.87,-509.7,69.46,113.53000000000002
778,1715534690640,0.84,-1.23,0.87,-509.7,69.46,113.53
779,1715534690650,0.84,-1.23,0.87,-509.7,69.46,113.53000000000002
780,1715534690660,0.75,-1.315,0.835,-473.72,-19.165000000000006,61.005
781,1715534690670,0.66,-1.4,0.8,-437.74,-107.79,8.48
782,1715534690680,0.66,-1.3999999999999997,0.8000000000000002,-437.74,-107.79,8.48
783,1715534690690,0.66,-1.4,0.8,-437.74,-107.79,8.48
784,1715534690700,0.8225,-1.115,1.3325,-413.0675,-112.87,19.1325
785,1715534690710,1.31,-0.26,2.93,-339.05,-128.11,51.09
786,1715534690720,1.31,-0.26,2.93,-339.05,-128.11,51.09
787,1715534690730,1.31,-0.26,2.93,-339.05,-128.11,51.09
788,1715534690740,1.4300000000000002,-0.365,4.3100000000000005,-281.555,-162.87,6.745000000000001
789,1715534690750,1.55,-0.47,5.69,-224.06000000000003,-197.63,-37.6
790,1715534690760,1.55,-0.47,5.69,-224.06,-197.63,-37.6
791,1715534690770,1.55,-0.47,5.69,-224.06,-197.63,-37.6
792,1715534690780,3.91,0.02,8.0,-116.83999999999999,-90.86333333333333,83.58
793,1715534690790,3.91,0.02,8.0,-63.23,-37.48,144.17
794,1715534690800,3.91,0.02,8.0,-63.23,-37.48,144.17
795,1715534690810,3.91,0.02,8.0,-63.23,-37.48,144.17
796,1715534690820,3.176666666666667,-0.6733333333333333,6.793333333333334,141.8033333333333,42.07333333333333,-82.68333333333335
797,1715534690830,2.81,-1.02,6.19,244.32000000000002,81.85,-196.11
798,1715534690840,2.81,-1.02,6.19,244.32000000000002,81.85,-196.11
799,1715534690850,2.1999999999999997,-1.1266666666666667,5.1866666666666665,249.1833333333333,127.48333333333333,-168.84666666666666
800,1715534690860,0.98,-1.34,3.18,258.91,218.75,-114.32
801,1715534690870,0.98,-1.34,3.18,258.91,218.75,-114.32
802,1715534690880,0.98,-1.34,3.18,258.91,218.75,-114.32
803,1715534690890,1.0833333333333333,-1.12,2.7933333333333334,296.9566666666667,204.75333333333333,-85.14333333333333
804,1715534690900,1.29,-0.68,2.02,373.05,176.76,-26.790000000000003
805,1715534690910,1.29,-0.68,2.02,373.05,176.76,-26.790000000000003
806,1715534690920,1.29,-0.68,2.02,373.05,176.76,-26.790000000000003
807,1715534690930,1.29,-0.68,2.02,373.05,176.76,-26.79
808,1715534690940,1.29,-0.68,2.02,373.05,176.76,-26.790000000000003
809,1715534690950,1.29,-0.68,2.02,373.05,176.76,-26.790000000000003
810,1715534690960,1.29,-0.68,2.02,373.05,176.76,-26.790000000000003
811,1715534690970,1.29,-0.68,2.02,373.05,176.76,-26.790000000000003
812,1715534690980,1.29,-0.68,2.02,373.05,176.76,-26.790000000000003
813,1715534690990,1.29,-0.68,2.02,373.05,176.76,-26.790000000000003
814,1715534691000,1.29,-0.68,2.02,373.05,176.76,-26.79
815,1715534691010,1.29,-0.68,2.02,373.05,176.76,-26.790000000000003
816,1715534691020,1.2433333333333334,-1.7666666666666668,1.4466666666666665,332.6033333333333,181.48000000000002,-136.25
817,1715534691030,1.22,-2.31,1.16,312.38,183.84,-190.98
818,1715534691040,1.22,-2.31,1.16,312.38,183.84,-190.98
819,1715534691050,1.16,-1.8500000000000003,1.1,295.84,203.80000000000004,-104.98
820,1715534691060,1.16,-1.8500000000000003,1.1,295.84,203.80000000000004,-104.98
821,1715534691070,1.16,-1.85,1.1,295.84,203.8,-104.98
822,1715534691080,1.16,-1.8500000000000003,1.1,295.84,203.80000000000004,-104.98
823,1715534691090,1.16,-1.8500000000000003,1.1,295.84,203.80000000000004,-104.98
824,1715534691100,1.16,-1.8500000000000003,1.1,295.84,203.80000000000004,-104.98
825,1715534691110,1.16,-1.8500000000000003,1.1,295.84,203.80000000000004,-104.98
826,1715534691120,1.14,-1.79,0.82,342.3500000000001,171.93999999999997,-89.48
827,1715534691130,1.26,-1.2,0.19000000000000003,354.31,82.4,-81.85
828,1715534691140,1.26,-1.2,0.19,354.31,82.4,-81.85
829,1715534691150,1.26,-1.2,0.19,354.31,82.4,-81.85
830,1715534691160,0.9225000000000001,-1.1175000000000002,-0.5825,354.31,82.4,-81.85
831,1715534691170,0.81,-1.09,-0.84,307.51666666666665,67.91333333333334,-144.83666666666667
832,1715534691180,0.81,-1.09,-0.84,284.12,60.67,-176.33
833,1715534691190,0.81,-1.09,-0.84,284.12,60.67,-176.33
834,1715534691200,0.81,-1.09,-0.84,284.12,60.67,-176.33
835,1715534691210,-1.0,-1.13,-2.3,151.0,33.87,-135.31
836,1715534691220,-1.0,-1.13,-2.3,151.0,33.87,-135.31
837,1715534691230,-1.0,-1.13,-2.3,151.0,33.87,-135.31
838,1715534691240,-2.05,-0.41,-4.0,101.56,13.569999999999999,-102.39666666666666
839,1715534691250,-2.05,-0.41,-4.0,76.84,3.42,-85.94
840,1715534691260,-2.05,-0.41,-4.0,76.84,3.42,-85.94
841,1715534691270,-2.05,-0.41,-4.0,76.84,3.42,-85.94
842,1715534691280,-2.75,-1.39,-3.52,-29.36,-97.83999999999999,17.27
843,1715534691290,-2.75,-1.39,-3.52,-29.36,-97.83999999999999,17.27
844,1715534691300,-2.75,-1.39,-3.52,-29.36,-97.84,17.27
845,1715534691310,-2.75,-1.39,-3.52,-29.36,-97.83999999999999,17.27
846,1715534691320,-2.75,-1.39,-3.52,-29.36,-97.84,17.27
847,1715534691330,-2.75,-1.39,-3.52,-29.36,-97.83999999999999,17.27
848,1715534691340,-2.75,-1.39,-3.52,-29.36,-97.83999999999999,17.27
849,1715534691350,-0.26250000000000007,-1.4425,-1.27,-161.8,-86.3375,251.4225
850,1715534691360,0.38999999999999996,-1.45,-0.77,-209.59,-80.75,341.37000000000006
851,1715534691370,0.39,-1.45,-0.77,-209.59,-80.75,341.37
852,1715534691380,0.38999999999999996,-1.45,-0.77,-209.59,-80.75,341.37000000000006
853,1715534691390,1.2225000000000001,-1.69,0.16749999999999998,-280.5925,-88.58,345.1725
854,1715534691400,1.5,-1.77,0.48,-304.26,-91.19,346.44
855,1715534691410,1.5,-1.7700000000000002,0.48,-304.26,-91.19,346.44
856,1715534691420,1.5,-1.7700000000000002,0.48,-304.26,-91.19,346.44
857,1715534691430,1.9466666666666665,-1.5366666666666664,1.24,-337.38,-64.65666666666667,298.38000000000005
858,1715534691440,2.17,-1.42,1.62,-353.94,-51.39000000000001,274.35
859,1715534691450,2.17,-1.42,1.62,-353.94,-51.39000000000001,274.35
860,1715534691460,2.17,-1.42,1.62,-353.94,-51.39,274.35
861,1715534691470,2.17,-1.42,1.62,-353.94,-51.39,274.35
862,1715534691480,2.17,-1.42,1.62,-353.94,-51.39000000000001,274.35
863,1715534691490,2.17,-1.42,1.62,-353.94,-51.39,274.35
864,1715534691500,2.17,-1.42,1.62,-353.94,-51.39000000000001,274.35
865,1715534691510,2.17,-1.42,1.62,-353.94,-51.39,274.35
866,1715534691520,2.17,-1.42,1.62,-353.94,-51.39000000000001,274.35
867,1715534691530,2.17,-1.42,1.62,-353.94,-51.39000000000001,274.35
868,1715534691540,1.7766666666666666,-1.46,1.4733333333333334,-370.6233333333333,-52.223333333333336,227.23333333333335
869,1715534691550,0.9899999999999999,-1.54,1.18,-403.99,-53.89000000000001,133.0
870,1715534691560,0.99,-1.54,1.18,-403.99,-53.89,133.0
871,1715534691570,0.99,-1.54,1.18,-403.99,-53.89,133.0
872,1715534691580,0.9666666666666667,-1.5466666666666669,1.1566666666666665,-420.47,-53.54666666666666,132.04333333333332
873,1715534691590,0.92,-1.5599999999999998,1.11,-453.43,-52.85999999999999,130.13
874,1715534691600,0.92,-1.56,1.11,-453.43,-52.86,130.13
875,1715534691610,0.92,-1.5599999999999998,1.11,-453.43,-52.85999999999999,130.13
876,1715534691620,0.905,-1.335,1.32,-420.255,-79.805,114.93
877,1715534691630,0.89,-1.11,1.53,-387.08,-106.75,99.73
878,1715534691640,0.89,-1.11,1.53,-387.08,-106.75,99.73
879,1715534691650,0.9466666666666667,-0.8500000000000001,1.76,-387.08,-106.75,99.73
880,1715534691660,1.06,-0.33,2.22,-382.57,-49.19,71.17
881,1715534691670,1.06,-0.33,2.22,-382.57,-49.19,71.17
882,1715534691680,1.06,-0.33,2.22,-382.57,-49.19,71.17
883,1715534691690,1.06,-0.33,2.22,-382.57,-49.19,71.17
884,1715534691700,0.04,-0.9,4.21,-168.82,-281.92,40.28
885,1715534691710,0.04,-0.9,4.21,-168.82,-281.92,40.28
886,1715534691720,0.04,-0.9,4.21,-168.82,-281.92,40.28
887,1715534691730,1.5533333333333335,-0.62,5.1499999999999995,-98.91666666666667,-256.79333333333335,86.34333333333332
888,1715534691740,4.58,-0.06,7.03,40.89,-206.54,178.47
889,1715534691750,4.58,-0.06,7.03,40.89,-206.54,178.47
890,1715534691760,4.58,-0.06,7.03,40.89,-206.54,178.47
891,1715534691770,4.166666666666667,-0.4266666666666667,6.316666666666666,130.12333333333333,-82.64,17.209999999999997
892,1715534691780,3.96,-0.61,5.96,174.74,-20.69,-63.42
893,1715534691790,3.9599999999999995,-0.61,5.96,174.74,-20.69,-63.419999999999995
894,1715534691800,3.96,-0.61,5.96,174.74,-20.69,-63.42
895,1715534691810,2.8266666666666667,-0.7433333333333333,4.326666666666667,158.18,121.15666666666668,-83.8
896,1715534691820,2.26,-0.81,3.51,149.9,192.08,-93.99
897,1715534691830,2.26,-0.81,3.51,149.9,192.08,-93.99
898,1715534691840,2.26,-0.81,3.51,149.9,192.08,-93.99
899,1715534691850,1.9533333333333331,-0.4033333333333333,2.7433333333333336,193.15333333333334,183.98000000000002,-97.49
900,1715534691860,1.8,-0.2,2.36,214.78,179.93,-99.24
901,1715534691870,1.8,-0.20000000000000004,2.36,214.78,179.92999999999998,-99.24
902,1715534691880,1.8,-0.20000000000000004,2.36,214.78,179.92999999999998,-99.24
903,1715534691890,1.4400000000000002,-0.32,1.61,258.32,203.85666666666665,-109.41333333333334
904,1715534691900,1.44,-0.32,1.61,280.09,215.82,-114.5
905,1715534691910,1.44,-0.32,1.61,280.09,215.82,-114.5
906,1715534691920,1.4400000000000002,-0.32,1.61,280.09,215.82000000000002,-114.5
907,1715534691930,1.2525,-0.9349999999999999,1.1675,386.7025,136.95,-153.45499999999998
908,1715534691940,1.19,-1.14,1.02,422.24,110.66000000000001,-166.44
909,1715534691950,1.19,-1.14,1.02,422.24,110.66000000000001,-166.44
910,1715534691960,1.19,-1.14,1.02,422.24,110.66,-166.44
911,1715534691970,1.05,-1.58,0.98,405.84,92.63333333333333,-201.4333333333333
912,1715534691980,1.05,-1.58,0.98,397.64000000000004,83.62,-218.92999999999998
913,1715534691990,1.05,-1.58,0.98,397.64000000000004,83.62,-218.92999999999998
914,1715534692000,1.05,-1.58,0.98,397.64,83.62,-218.93
915,1715534692010,1.05,-1.58,0.98,397.64000000000004,83.62,-218.92999999999998
916,1715534692020,1.05,-1.58,0.98,397.64,83.62,-218.93
917,1715534692030,1.05,-1.58,0.98,397.64,83.62,-218.93
918,1715534692040,1.05,-1.58,0.98,397.64000000000004,83.62,-218.92999999999998
919,1715534692050,1.05,-1.58,0.98,397.64,83.62,-218.93
920,1715534692060,1.05,-1.58,0.98,397.64000000000004,83.62,-218.92999999999998
921,1715534692070,1.02,-1.5350000000000001,0.995,323.6225,114.1525,-203.4575
922,1715534692080,1.0833333333333333,-1.4400000000000002,1.0466666666666666,269.2033333333333,131.65,-188.66
923,1715534692090,1.12,-1.3999999999999997,1.07,254.33,135.31,-183.84
924,1715534692100,1.12,-1.3999999999999997,1.07,254.33,135.31,-183.84
925,1715534692110,1.12,-1.3999999999999997,1.07,254.33,135.31,-183.84
926,1715534692120,1.12,-1.3325,1.0025,233.5475,153.4375,-187.9575
927,1715534692130,1.12,-1.31,0.98,226.62,159.48,-189.33
928,1715534692140,1.12,-1.31,0.98,226.62,159.48,-189.33
929,1715534692150,1.12,-1.31,0.98,226.62,159.48,-189.33
930,1715534692160,0.95,-1.39,0.74,193.235,162.505,-157.10500000000002
931,1715534692170,0.9499999999999998,-1.39,0.7399999999999999,159.85,165.53,-124.88
932,1715534692180,0.9499999999999998,-1.39,0.7399999999999999,159.85,165.53,-124.88
933,1715534692190,0.9499999999999998,-1.39,0.7399999999999999,159.85,165.53,-124.88
934,1715534692200,-0.41,-1.38,-1.68,318.48,121.77,-117.31
935,1715534692210,-0.41,-1.38,-1.68,318.48,121.77,-117.31
936,1715534692220,-0.41,-1.38,-1.68,318.48,121.77,-117.31
937,1715534692230,-1.1019999999999999,-1.476,-2.4899999999999998,305.028,66.508,-127.674
938,1715534692240,-3.8699999999999997,-1.86,-5.73,251.22,-154.54,-169.13
939,1715534692250,-3.87,-1.86,-5.73,251.22,-154.54,-169.13
940,1715534692260,-3.87,-1.86,-5.73,251.22,-154.54,-169.13
941,1715534692270,-3.6733333333333333,-1.7566666666666668,-5.57,163.73666666666665,-126.79,-20.346666666666653
942,1715534692280,-3.28,-1.55,-5.25,-11.23,-71.29,277.22
943,1715534692290,-3.28,-1.55,-5.25,-11.229999999999999,-71.29,277.22
944,1715534692300,-3.28,-1.55,-5.25,-11.229999999999999,-71.29,277.22
945,1715534692310,-1.96,-1.6400000000000001,-4.025,-66.17750000000001,-84.215,296.995
946,1715534692320,-0.64,-1.7299999999999998,-2.7999999999999994,-231.02,-122.99,356.32
947,1715534692330,-0.64,-1.7299999999999998,-2.7999999999999994,-231.02,-122.99,356.32
948,1715534692340,-0.64,-1.73,-2.8,-231.02,-122.99,356.32
949,1715534692350,1.0866666666666667,-2.0966666666666662,-0.8133333333333334,-250.14,-157.61666666666667,391.15333333333336
950,1715534692360,1.95,-2.28,0.18000000000000002,-259.7,-174.92999999999998,408.57
951,1715534692370,1.95,-2.28,0.18000000000000002,-259.7,-174.92999999999998,408.57
952,1715534692380,1.95,-2.28,0.18000000000000002,-259.7,-174.92999999999998,408.57
953,1715534692390,2.3433333333333333,-1.8666666666666665,1.0866666666666667,-273.53999999999996,-128.95000000000002,343.22333333333336
954,1715534692400,2.54,-1.66,1.54,-280.46,-105.96,310.55
955,1715534692410,2.54,-1.66,1.54,-280.46,-105.96,310.55
956,1715534692420,2.54,-1.66,1.54,-280.46,-105.96,310.55
957,1715534692430,2.02,-1.4799999999999998,1.6066666666666667,-351.78666666666663,-6.433333333333333,270.7966666666667
958,1715534692440,1.76,-1.39,1.64,-387.45,43.33,250.92
959,1715534692450,1.76,-1.39,1.64,-387.45,43.330000000000005,250.92
960,1715534692460,1.76,-1.39,1.64,-387.45,43.33,250.92
961,1715534692470,1.1825,-1.45,1.115,-420.5025,40.315,196.95
962,1715534692480,0.9899999999999999,-1.47,0.94,-431.52,39.31,178.96
963,1715534692490,0.99,-1.47,0.94,-431.52,39.31,178.96
964,1715534692500,0.9899999999999999,-1.47,0.94,-431.52,39.31,178.96
965,1715534692510,0.9899999999999999,-1.47,0.94,-431.52,39.31,178.96
966,1715534692520,0.9899999999999999,-1.47,0.94,-431.52,39.31,178.96
967,1715534692530,0.9899999999999999,-1.47,0.94,-431.52,39.31,178.96
968,1715534692540,0.9899999999999999,-1.47,0.94,-431.52,39.31,178.96
969,1715534692550,0.9899999999999999,-1.47,0.94,-431.52,39.31,178.96
970,1715534692560,0.9899999999999999,-1.47,0.94,-431.52,39.31,178.96
971,1715534692570,0.99,-1.47,0.94,-431.52,39.31,178.96
972,1715534692580,0.9899999999999999,-1.47,0.94,-431.52,39.31,178.96
973,1715534692590,0.86,-1.4933333333333334,1.0199999999999998,-428.16333333333336,32.59666666666667,161.34
974,1715534692600,0.71,-1.34,0.98,-421.45,19.17,126.1
975,1715534692610,0.71,-1.34,0.98,-421.45,19.17,126.09999999999998
976,1715534692620,0.6166666666666666,-1.3466666666666667,1.3666666666666665,-394.0233333333333,-30.716666666666665,121.38
977,1715534692630,0.57,-1.35,1.56,-380.31,-55.66,119.02
978,1715534692640,0.57,-1.35,1.56,-380.31,-55.66,119.02
979,1715534692650,0.57,-1.35,1.56,-380.31,-55.66,119.02
980,1715534692660,1.36,-0.34,3.09,-318.66,-96.37,81.67
981,1715534692670,1.36,-0.34,3.09,-318.66,-96.37,81.67
982,1715534692680,1.36,-0.34,3.09,-318.66,-96.37,81.67
983,1715534692690,1.36,-0.34,3.09,-318.66,-96.37,81.67
984,1715534692700,1.2,-0.47,6.53,-237.85,-185.91,95.46
985,1715534692710,1.2,-0.47,6.53,-237.85,-185.91,95.46
986,1715534692720,1.2,-0.47,6.53,-237.85,-185.91,95.46
987,1715534692730,1.2,-0.47,6.53,-237.85,-185.91,95.46
988,1715534692740,4.88,-0.03,6.78,168.09,-43.15,24.05
989,1715534692750,4.88,-0.03,6.78,168.09,-43.15,24.05
990,1715534692760,4.88,-0.03,6.78,168.09,-43.15,24.05
991,1715534692770,4.88,-0.03,6.78,168.09,-43.15,24.05
992,1715534692780,3.1624999999999996,-1.365,5.4375,133.1175,134.3225,-138.09249999999997
993,1715534692790,2.59,-1.8099999999999998,4.99,121.46,193.48,-192.14
994,1715534692800,2.59,-1.8099999999999998,4.99,121.46,193.48,-192.14
995,1715534692810,1.9049999999999998,-1.665,3.93,175.26,194.7,-151.95
996,1715534692820,1.22,-1.5200000000000002,2.8699999999999997,229.06000000000003,195.92,-111.76
997,1715534692830,1.22,-1.52,2.87,229.06,195.92,-111.76
998,1715534692840,1.22,-1.52,2.87,229.06,195.92,-111.76
999,1715534692850,1.22,-1.5200000000000002,2.8699999999999997,229.06000000000003,195.92,-111.76
1000,1715534692860,1.29,-0.87,1.92,314.47333333333336,173.54,-58.29333333333333
1001,1715534692870,1.29,-0.87,1.92,357.18,162.35,-31.56
1002,1715534692880,1.29,-0.87,1.92,357.18,162.35,-31.56
1003,1715534692890,1.3766666666666667,-0.9700000000000001,1.2933333333333332,401.28666666666663,164.0633333333333,-72.36666666666666
1004,1715534692900,1.42,-1.02,0.98,423.34,164.92,-92.77
1005,1715534692910,1.42,-1.02,0.98,423.34,164.92,-92.77
1006,1715534692920,1.42,-1.02,0.98,423.34,164.92,-92.77
1007,1715534692930,1.1933333333333334,-1.36,0.8133333333333334,423.34,164.92,-92.77
1008,1715534692940,1.08,-1.53,0.73,423.34,164.92,-92.77
1009,1715534692950,1.08,-1.53,0.73,423.34,164.92,-92.77
1010,1715534692960,1.08,-1.53,0.73,423.34,164.92,-92.77
1011,1715534692970,1.08,-1.53,0.73,423.34,164.92,-92.77
1012,1715534692980,1.08,-1.53,0.73,423.34,164.92,-92.77
1013,1715534692990,1.04,-1.635,0.8300000000000001,364.0125,149.1075,-153.685
1014,1715534693000,0.9775,-1.7225,0.9400000000000001,314.4375,154.14249999999998,-163.7425
1015,1715534693010,0.91,-1.67,0.9700000000000001,300.48,164.86,-147.22
1016,1715534693020,0.91,-1.67,0.97,300.48,164.86,-147.22
1017,1715534693030,0.91,-1.67,0.97,300.48,164.86,-147.22
1018,1715534693040,0.91,-1.67,0.9700000000000001,300.48,164.86,-147.22
1019,1715534693050,0.91,-1.67,0.9700000000000001,300.48,164.86,-147.22
1020,1715534693060,0.91,-1.67,0.97,300.48,164.86,-147.22
1021,1715534693070,0.91,-1.67,0.9700000000000001,300.48,164.86,-147.22
1022,1715534693080,0.91,-1.67,0.97,300.48,164.86,-147.22
1023,1715534693090,0.91,-1.67,0.9700000000000001,300.48,164.86,-147.22
1024,1715534693100,0.91,-1.67,0.9700000000000001,300.48,164.86,-147.22
1025,1715534693110,0.91,-1.67,0.9700000000000001,300.48,164.86,-147.22
1026,1715534693120,0.91,-1.07,0.44,249.57000000000002,117.37,-154.97
1027,1715534693130,0.91,-1.07,0.44,249.57,117.37,-154.97
1028,1715534693140,0.91,-1.07,0.44,249.57,117.37,-154.97
1029,1715534693150,0.91,-1.07,0.44,249.57000000000002,117.37,-154.97
1030,1715534693160,0.81,-1.02,-0.41,163.02,144.84,-100.52
1031,1715534693170,0.81,-1.02,-0.41,163.02,144.84,-100.52
1032,1715534693180,0.81,-1.02,-0.41,163.02,144.84,-100.52
1033,1715534693190,0.2866666666666667,-0.8366666666666666,-1.3566666666666667,163.02,144.84,-100.52
1034,1715534693200,-0.76,-0.47,-3.25,228.7,49.26,-113.46
1035,1715534693210,-0.7600000000000001,-0.47,-3.25,228.69999999999996,49.26,-113.46
1036,1715534693220,-0.7600000000000001,-0.47,-3.25,228.69999999999996,49.26,-113.46
1037,1715534693230,-0.7600000000000001,-0.47,-3.25,228.69999999999996,49.26,-113.46
1038,1715534693240,-0.7600000000000001,-0.47,-3.25,228.69999999999996,49.26,-113.46
1039,1715534693250,-1.6749999999999998,-0.985,-4.13,149.355,7.724999999999998,-115.6
1040,1715534693260,-2.59,-1.5,-5.01,70.01,-33.81,-117.74
1041,1715534693270,-2.6933333333333334,-1.5866666666666667,-5.03,13.166666666666671,-53.666666666666664,-42.48333333333333
1042,1715534693280,-2.9,-1.76,-5.07,-100.52,-93.38,108.03000000000002
1043,1715534693290,-2.9,-1.76,-5.07,-100.52,-93.38,108.03
1044,1715534693300,-2.9,-1.76,-5.07,-100.52,-93.38,108.03000000000002
1045,1715534693310,-1.58,-2.0866666666666664,-3.65,-206.43999999999997,-166.09333333333333,262.89666666666665
1046,1715534693320,-0.92,-2.25,-2.94,-259.4,-202.44999999999996,340.33
1047,1715534693330,-0.92,-2.25,-2.94,-259.4,-202.45,340.33
1048,1715534693340,-0.92,-2.25,-2.94,-259.4,-202.45,340.33
1049,1715534693350,-0.92,-2.25,-2.94,-259.4,-202.44999999999996,340.33
1050,1715534693360,2.51,-3.0499999999999994,0.32,-399.66,-147.58,487.18
1051,1715534693370,2.51,-3.05,0.32,-399.66,-147.58,487.18
1052,1715534693380,2.51,-3.05,0.32,-399.66,-147.58,487.18
1053,1715534693390,3.185,-2.915,2.255,-389.175,-210.385,350.68
1054,1715534693400,3.41,-2.8699999999999997,2.9,-385.68,-231.32000000000002,305.18
1055,1715534693410,3.41,-2.87,2.9,-385.68,-231.32,305.18
1056,1715534693420,3.41,-2.8699999999999997,2.9,-385.68,-231.32000000000002,305.18
1057,1715534693430,3.41,-2.8699999999999997,2.9,-385.68,-231.32000000000002,305.18
1058,1715534693440,3.41,-2.8699999999999997,2.9,-385.68,-231.32000000000002,305.18
1059,1715534693450,3.0,-2.4699999999999998,2.835,-362.76,-186.49,290.01
1060,1715534693460,2.59,-2.07,2.77,-339.84,-141.66,274.84
1061,1715534693470,2.59,-2.07,2.77,-339.84,-141.66,274.84
1062,1715534693480,2.223333333333333,-1.9333333333333333,2.4633333333333334,-375.67,-74.72666666666667,277.58666666666664
1063,1715534693490,1.49,-1.66,1.8500000000000003,-447.33,59.14000000000001,283.08
1064,1715534693500,1.255,-1.665,1.35,-428.44,1.5850000000000009,235.475
1065,1715534693510,1.02,-1.67,0.85,-409.55,-55.97,187.87
1066,1715534693520,1.02,-1.67,0.85,-409.55,-55.97,187.87
1067,1715534693530,1.02,-1.67,0.85,-409.55,-55.97,187.87
1068,1715534693540,1.25,-1.55,1.49,-262.39,-241.64,163.09
1069,1715534693550,1.25,-1.55,1.49,-262.39,-241.64,163.09
1070,1715534693560,1.25,-1.55,1.49,-262.39,-241.64,163.09
1071,1715534693570,1.25,-1.55,1.49,-262.39,-241.64,163.09
1072,1715534693580,1.25,-1.55,1.49,-262.39,-241.64,163.09
1073,1715534693590,1.25,-1.55,1.49,-262.39,-241.64,163.09
1074,1715534693600,1.25,-1.55,1.49,-262.39,-241.64,163.09
1075,1715534693610,1.25,-1.55,1.49,-262.39,-241.64,163.09
1076,1715534693620,1.25,-1.55,1.49,-262.39,-241.64,163.09
1077,1715534693630,1.25,-1.55,1.49,-262.39,-241.64,163.09
1078,1715534693640,1.5966666666666667,-0.07666666666666666,1.8233333333333333,-164.28333333333333,-272.6066666666666,111.85666666666667
1079,1715534693650,1.7700000000000002,0.66,1.99,-115.23,-288.09,86.24
1080,1715534693660,3.31,1.37,4.91,-319.58,-97.47,174.56
1081,1715534693670,3.31,1.37,4.91,-319.58,-97.46999999999998,174.56000000000003
1082,1715534693680,3.31,1.37,4.91,-319.58,-97.46999999999998,174.56000000000003
1083,1715534693690,3.72,1.3050000000000002,4.815,-202.605,-96.0825,118.0875
1084,1715534693700,4.95,1.11,4.53,148.32,-91.92,-51.330000000000005
1085,1715534693710,4.95,1.11,4.53,148.32,-91.92,-51.33
1086,1715534693720,4.95,1.11,4.53,148.32,-91.92,-51.330000000000005
1087,1715534693730,4.670000000000001,0.5733333333333334,4.386666666666667,133.12,-40.20333333333334,-110.00666666666666
1088,1715534693740,4.11,-0.5,4.1,102.72,63.23,-227.36
1089,1715534693750,4.11,-0.5,4.1,102.71999999999998,63.23,-227.36
1090,1715534693760,4.11,-0.5,4.1,102.71999999999998,63.23,-227.36
1091,1715534693770,3.7566666666666664,-0.6666666666666666,3.6633333333333327,98.49000000000001,108.05,-233.42
1092,1715534693780,3.05,-1.0,2.79,90.03,197.69,-245.54
1093,1715534693790,3.0499999999999994,-1.0,2.7900000000000005,90.03000000000002,197.68999999999997,-245.54
1094,1715534693800,3.05,-1.0,2.79,90.03,197.69,-245.54
1095,1715534693810,2.27,-0.9,2.89,144.59,170.35,-190.25
1096,1715534693820,2.27,-0.9,2.89,144.59,170.35,-190.25
1097,1715534693830,2.27,-0.9,2.89,144.59,170.35,-190.25
1098,1715534693840,2.15,-0.77,2.5525,144.59,170.35,-190.25
1099,1715534693850,1.79,-0.38,1.54,266.05,197.02,-129.76
1100,1715534693860,1.79,-0.38000000000000006,1.54,266.05,197.02,-129.76
1101,1715534693870,1.79,-0.38000000000000006,1.54,266.05,197.02,-129.76
1102,1715534693880,1.79,-0.38,1.54,266.05,197.02,-129.76
1103,1715534693890,1.64,-0.96,0.92,356.51,153.81,-228.58
1104,1715534693900,1.64,-0.96,0.92,356.51,153.81,-228.58
1105,1715534693910,1.64,-0.96,0.92,356.51,153.81,-228.58
1106,1715534693920,1.53,-1.1633333333333333,0.8933333333333334,340.7633333333333,157.35,-242.4333333333333
1107,1715534693930,1.31,-1.57,0.84,309.27,164.43,-270.14
1108,1715534693940,1.31,-1.57,0.84,309.27,164.43,-270.14
1109,1715534693950,1.31,-1.57,0.84,309.27,164.43,-270.14
1110,1715534693960,1.34,-1.66,0.975,256.395,184.89000000000001,-236.35999999999999
1111,1715534693970,1.3500000000000003,-1.6900000000000002,1.02,238.77,191.71,-225.1
1112,1715534693980,1.3500000000000003,-1.6900000000000002,1.02,238.77,191.71,-225.1
1113,1715534693990,1.35,-1.69,1.02,238.77,191.71,-225.1
1114,1715534694000,1.26,-1.66,1.13,236.21,206.30000000000004,-195.74
1115,1715534694010,1.26,-1.66,1.13,236.21,206.30000000000004,-195.74
1116,1715534694020,1.26,-1.66,1.13,236.21,206.3,-195.74
1117,1715534694030,1.26,-1.66,1.13,236.21,206.30000000000004,-195.74
1118,1715534694040,1.3,-1.66,1.03,267.0125,187.715,-188.555
1119,1715534694050,1.3,-1.66,1.03,277.28,181.52,-186.16
1120,1715534694060,1.3,-1.66,1.03,277.28,181.52,-186.16
1121,1715534694070,1.3,-1.66,1.03,277.28,181.52,-186.16
1122,1715534694080,1.29,-1.55,0.75,277.28,181.52,-186.16
1123,1715534694090,1.29,-1.55,0.75,277.28,181.52,-186.16
1124,1715534694100,1.29,-1.55,0.75,277.28,181.52,-186.16
1125,1715534694110,1.29,-1.55,0.75,277.28,181.52,-186.16
1126,1715534694120,1.29,-1.55,0.75,277.28,181.52,-186.16
1127,1715534694130,1.29,-1.55,0.75,277.28,181.52,-186.16
1128,1715534694140,1.29,-1.55,0.75,277.28,181.52,-186.16
1129,1715534694150,1.29,-1.55,0.75,277.28,181.52,-186.16
1130,1715534694160,1.29,-1.55,0.75,277.28,181.52,-186.16
1131,1715534694170,0.10500000000000002,-1.28,-0.9299999999999999,196.1675,182.1125,-139.285
1132,1715534694180,-0.29,-1.19,-1.49,169.13,182.31,-123.66
1133,1715534694190,-1.6833333333333333,-1.17,-3.116666666666667,167.74333333333334,70.53666666666668,-131.01999999999998
1134,1715534694200,-2.38,-1.16,-3.93,167.05,14.65,-134.7
1135,1715534694210,-2.38,-1.16,-3.93,167.05,14.65,-134.7
1136,1715534694220,-2.486666666666667,-1.3733333333333333,-4.05,136.6966666666667,4.6000000000000005,-66.78999999999999
1137,1715534694230,-2.7,-1.8,-4.29,75.99,-15.5,69.03
1138,1715534694240,-2.7000000000000006,-1.8,-4.29,75.99,-15.5,69.03
1139,1715534694250,-2.7000000000000006,-1.8,-4.29,75.99,-15.5,69.03
1140,1715534694260,-2.7,-1.8,-4.29,75.99,-15.5,69.03
1141,1715534694270,-2.7000000000000006,-1.8,-4.29,75.99,-15.5,69.03
1142,1715534694280,-2.7,-1.8,-4.29,75.99,-15.5,69.03
1143,1715534694290,-2.7000000000000006,-1.8,-4.29,75.99,-15.5,69.03
1144,1715534694300,-1.7700000000000002,-1.66,-3.99,-36.01,-75.07,280.76
1145,1715534694310,-1.7700000000000002,-1.66,-3.99,-36.01,-75.07,280.76
1146,1715534694320,-1.7700000000000002,-1.66,-3.99,-36.01,-75.07,280.76
1147,1715534694330,-1.77,-1.66,-3.99,-36.01,-75.07,280.76
1148,1715534694340,-1.7700000000000002,-1.66,-3.99,-36.01,-75.07,280.76
1149,1715534694350,-1.7700000000000002,-1.66,-3.99,-36.01,-75.07,280.76
1150,1715534694360,-1.7700000000000002,-1.66,-3.99,-36.01,-75.07,280.76
1151,1715534694370,-1.7700000000000002,-1.66,-3.99,-36.01,-75.07,280.76
1152,1715534694380,-1.7700000000000002,-1.66,-3.99,-36.01,-75.07,280.76
1153,1715534694390,-1.77,-1.66,-3.99,-36.01,-75.07,280.76
1154,1715534694400,-1.77,-1.66,-3.99,-36.01,-75.07,280.76
1155,1715534694410,-0.007500000000000034,-1.57,-2.46,-198.2875,-18.7675,368.33
1156,1715534694420,0.58,-1.54,-1.95,-252.38,0.0,397.52
1157,1715534694430,2.08,-1.9799999999999998,0.45,-461.98,-39.12,341.19
1158,1715534694440,2.023333333333333,-1.8666666666666665,2.06,-486.33,-43.663333333333334,236.9
1159,1715534694450,1.47,-1.8,1.5200000000000002,-437.87000000000006,-58.10999999999999,172.0
1160,1715534694460,1.47,-1.8,1.5200000000000002,-437.87000000000006,-58.10999999999999,172.0
1161,1715534694470,1.3766666666666667,-1.83,1.46,-433.5566666666667,-72.06666666666666,154.28
1162,1715534694480,1.19,-1.89,1.34,-424.93,-99.98,118.84
1163,1715534694490,1.19,-1.89,1.34,-424.93,-99.98,118.83999999999999
1164,1715534694500,1.19,-1.89,1.34,-424.93,-99.98,118.83999999999999
1165,1715534694510,1.04,-1.6800000000000002,1.355,-460.63,-35.0675,107.0725
1166,1715534694520,0.9899999999999999,-1.61,1.36,-472.53,-13.43,103.15000000000002
1167,1715534694530,0.67,-1.66,0.69,-384.64,-126.77,42.48
1168,1715534694540,0.67,-1.66,0.69,-384.64,-126.77,42.48
1169,1715534694550,0.67,-1.66,0.69,-384.64000000000004,-126.77,42.48
1170,1715534694560,0.67,-1.66,0.69,-384.64000000000004,-126.77,42.48
1171,1715534694570,0.79,-1.62,1.6499999999999997,-397.64000000000004,-155.52,83.44
1172,1715534694580,0.79,-1.62,1.65,-397.64,-155.52,83.44
1173,1715534694590,0.79,-1.62,1.6499999999999997,-397.64000000000004,-155.52,83.44
1174,1715534694600,0.79,-1.62,1.6499999999999997,-397.64000000000004,-155.52,83.44
1175,1715534694610,0.79,-1.62,1.6499999999999997,-397.64000000000004,-155.52,83.44
1176,1715534694620,0.79,-1.62,1.65,-397.64,-155.52,83.44
1177,1715534694630,0.79,-1.62,1.65,-397.64,-155.52,83.44
1178,1715534694640,0.79,-1.62,1.65,-397.64,-155.52,83.44
1179,1715534694650,0.79,-1.62,1.6499999999999997,-397.64000000000004,-155.52,83.44
1180,1715534694660,0.79,-1.6200000000000003,1.65,-397.64,-155.52,83.44
1181,1715534694670,0.79,-1.62,1.6499999999999997,-397.64000000000004,-155.52,83.44
1182,1715534694680,0.79,-1.62,1.65,-397.64,-155.52,83.44
1183,1715534694690,1.8766666666666667,-0.79,3.6300000000000003,-254.98333333333332,-134.07666666666668,104.90333333333335
1184,1715534694700,4.05,0.87,7.59,30.33,-91.19,147.83
1185,1715534694710,4.05,0.87,7.59,30.33,-91.19,147.83
1186,1715534694720,4.08,-0.56,5.510000000000001,141.82333333333332,19.816666666666663,-52.61000000000001
1187,1715534694730,4.08,-0.56,5.510000000000001,197.57000000000002,75.32,-152.83
1188,1715534694740,4.08,-0.56,5.510000000000001,197.57000000000002,75.32,-152.83
1189,1715534694750,4.08,-0.56,5.510000000000001,197.57000000000002,75.32,-152.83
1190,1715534694760,4.08,-0.56,5.510000000000001,197.57000000000002,75.32,-152.83
1191,1715534694770,4.08,-0.56,5.51,197.57,75.32,-152.83
1192,1715534694780,4.08,-0.56,5.510000000000001,197.57000000000002,75.32,-152.83
1193,1715534694790,4.08,-0.56,5.51,197.57,75.32,-152.83
1194,1715534694800,1.92,-1.34,3.56,176.18666666666664,127.3,-155.66
1195,1715534694810,1.92,-1.34,3.56,133.42,231.26,-161.32
1196,1715534694820,1.92,-1.34,3.56,133.42,231.26,-161.32
1197,1715534694830,1.7333333333333334,-1.1433333333333333,3.1966666666666668,133.42,231.26,-161.32
1198,1715534694840,1.68,-0.31,1.82,331.3,115.4925,-81.1475
1199,1715534694850,1.68,-0.31,1.82,351.32,115.11,-81.91
1200,1715534694860,1.68,-0.31,1.82,351.32,115.11,-81.91
1201,1715534694870,1.645,-0.645,1.49,362.52,134.4,-121.245
1202,1715534694880,1.61,-0.98,1.16,373.72,153.69,-160.58
1203,1715534694890,1.61,-0.98,1.16,373.72,153.69,-160.58
1204,1715534694900,1.61,-0.98,1.16,373.72,153.69,-160.58
1205,1715534694910,1.61,-0.98,1.16,373.72,153.69,-160.58
1206,1715534694920,1.5150000000000001,-1.43,1.15,379.885,113.74000000000001,-197.78500000000003
1207,1715534694930,1.42,-1.88,1.14,386.05,73.79,-234.99
1208,1715534694940,1.5199999999999998,-1.8533333333333333,1.1633333333333333,386.05,73.79,-234.99
1209,1715534694950,1.72,-1.8,1.21,359.25,104.25,-200.13
1210,1715534694960,1.72,-1.8,1.21,359.25,104.25,-200.13
1211,1715534694970,1.72,-1.8,1.21,359.25,104.25,-200.13
1212,1715534694980,1.72,-1.8,1.21,359.25,104.25,-200.13
1213,1715534694990,1.72,-1.8,1.21,359.25,104.25,-200.13
1214,1715534695000,1.72,-1.8,1.21,359.25,104.25,-200.13
1215,1715534695010,1.72,-1.8,1.21,359.25,104.25,-200.13
1216,1715534695020,1.72,-1.8,1.21,359.25,104.25,-200.13
1217,1715534695030,1.72,-1.8,1.21,359.25,104.25,-200.13
1218,1715534695040,1.4766666666666666,-1.7466666666666668,1.08,314.25,132.69333333333333,-241.75666666666666
1219,1715534695050,1.17,-1.71,0.9899999999999999,282.84,144.17,-255.49
1220,1715534695060,1.12,-1.45,0.66,230.71,202.39,-195.37
1221,1715534695070,1.12,-1.45,0.66,230.71,202.39,-195.37
1222,1715534695080,1.12,-1.45,0.66,230.71,202.39,-195.37
1223,1715534695090,1.12,-1.45,0.66,230.71,202.39,-195.37
1224,1715534695100,1.12,-1.45,0.66,230.71,202.39,-195.37
1225,1715534695110,1.12,-1.45,0.66,230.71,202.39,-195.37
1226,1715534695120,0.8133333333333335,-1.4166666666666667,-0.013333333333333308,220.86333333333334,197.91333333333333,-199.46
1227,1715534695130,0.66,-1.4,-0.35,201.17,188.96,-207.64
1228,1715534695140,0.66,-1.4,-0.35,201.17,188.96,-207.64
1229,1715534695150,0.66,-1.4,-0.35,201.17,188.96,-207.64
1230,1715534695160,0.66,-1.4,-0.35,201.17,188.96,-207.64
1231,1715534695170,0.66,-1.4,-0.35,201.17,188.96,-207.64
1232,1715534695180,0.66,-1.3999999999999997,-0.3499999999999999,201.17,188.96,-207.64
1233,1715534695190,0.66,-1.4,-0.35,201.17,188.96,-207.64
1234,1715534695200,0.66,-1.3999999999999997,-0.3499999999999999,201.17,188.96,-207.64
1235,1715534695210,-0.17000000000000004,-1.315,-1.405,168.0125,141.6125,-181.12
1236,1715534695220,-2.78,-1.54,-4.28,-66.71,-13.12,107.42
1237,1715534695230,-2.78,-1.54,-4.28,-66.71,-13.12,107.42
1238,1715534695240,-2.78,-1.54,-4.28,-66.71,-13.12,107.42
1239,1715534695250,-1.88,-1.65,-3.63,-138.31,-63.11,226.99
1240,1715534695260,-1.88,-1.6499999999999997,-3.6300000000000003,-138.31,-63.10999999999999,226.99
1241,1715534695270,-1.88,-1.65,-3.63,-138.31,-63.11,226.99
1242,1715534695280,-1.88,-1.6499999999999997,-3.6300000000000003,-138.31,-63.10999999999999,226.99
1243,1715534695290,0.010000000000000037,-1.8299999999999998,-1.7625,-138.31,-63.11,226.99
1244,1715534695300,0.64,-1.89,-1.14,-198.49,-117.31,345.21
1245,1715534695310,0.64,-1.89,-1.14,-198.49,-117.31,345.21
1246,1715534695320,0.64,-1.89,-1.14,-198.49,-117.31,345.21
1247,1715534695330,0.64,-1.89,-1.14,-198.49,-117.31,345.21
1248,1715534695340,2.2,-1.8999999999999997,0.94,-286.62,-127.93,340.64
1249,1715534695350,2.2,-1.9,0.94,-286.62,-127.93,340.64
1250,1715534695360,2.2,-1.9,0.94,-286.62,-127.93,340.64
1251,1715534695370,2.1333333333333333,-1.7866666666666664,1.6333333333333335,-324.5466666666667,-102.82333333333334,287.17333333333335
1252,1715534695380,2.1,-1.7299999999999998,1.9799999999999998,-343.51,-90.27,260.44
1253,1715534695390,2.1,-1.73,1.98,-343.51,-90.27,260.44
1254,1715534695400,1.6000000000000003,-1.6499999999999997,1.6499999999999997,-344.8500000000001,-59.81,224.85
1255,1715534695410,1.6000000000000003,-1.6499999999999997,1.6499999999999997,-344.8500000000001,-59.81,224.85
1256,1715534695420,1.6000000000000003,-1.6499999999999997,1.6499999999999997,-344.8500000000001,-59.81,224.85
1257,1715534695430,1.6000000000000003,-1.6499999999999997,1.6499999999999997,-344.8500000000001,-59.81,224.85
1258,1715534695440,1.4400000000000002,-1.6233333333333333,1.61,-368.33,-70.63666666666667,194.17
1259,1715534695450,1.36,-1.61,1.59,-380.07,-76.05,178.83
1260,1715534695460,1.36,-1.61,1.59,-380.07,-76.05,178.83
1261,1715534695470,1.36,-1.61,1.59,-380.07,-76.05,178.83
1262,1715534695480,1.07,-1.66,1.4,-424.32,-26.06,187.5
1263,1715534695490,1.07,-1.66,1.4,-424.32,-26.06,187.5
1264,1715534695500,1.07,-1.66,1.3999999999999997,-424.32,-26.06,187.5
1265,1715534695510,1.0733333333333335,-1.6633333333333333,1.343333333333333,-424.32,-26.06,187.5
1266,1715534695520,1.08,-1.67,1.23,-372.62000000000006,-141.72,190.42999999999998
1267,1715534695530,1.08,-1.67,1.23,-372.62000000000006,-141.72,190.42999999999998
1268,1715534695540,1.08,-1.67,1.23,-372.62000000000006,-141.72,190.42999999999998
1269,1715534695550,1.3133333333333332,-1.1633333333333333,1.6300000000000001,-385.43666666666667,-117.73333333333333,190.49
1270,1715534695560,1.43,-0.91,1.83,-411.07,-69.76,190.61
1271,1715534695570,1.43,-0.91,1.83,-411.07,-69.76,190.61
1272,1715534695580,1.43,-0.91,1.83,-411.07,-69.76,190.61
1273,1715534695590,1.38,-0.6233333333333334,1.9933333333333334,-403.50333333333333,-72.99666666666667,152.24
1274,1715534695600,1.28,-0.05,2.32,-388.37,-79.47,75.5
1275,1715534695610,1.28,-0.05000000000000001,2.32,-388.37000000000006,-79.47,75.5
1276,1715534695620,1.28,-0.05,2.32,-388.37,-79.47,75.5
1277,1715534695630,1.16,0.07,5.489999999999999,-358.89000000000004,-106.50666666666666,75.31666666666666
1278,1715534695640,1.16,0.07,5.489999999999999,-299.93,-160.58,74.95
1279,1715534695650,1.16,0.07,5.489999999999999,-299.93,-160.58,74.95
1280,1715534695660,1.16,0.07,5.49,-299.93,-160.58,74.95
1281,1715534695670,1.16,0.07,5.489999999999999,-299.93,-160.58,74.95
1282,1715534695680,1.16,0.07,5.489999999999999,-299.93,-160.58,74.95
1283,1715534695690,1.16,0.07,5.489999999999999,-299.93,-160.58,74.95
1284,1715534695700,1.16,0.07,5.489999999999999,-299.93,-160.58,74.95
1285,1715534695710,1.16,0.07,5.49,-299.93,-160.58,74.95
1286,1715534695720,1.16,0.07,5.489999999999999,-299.93,-160.58,74.95
1287,1715534695730,1.16,0.07,5.489999999999999,-299.93,-160.58,74.95
1288,1715534695740,3.266666666666667,-0.41,5.43,55.176666666666655,-41.84666666666667,-125.45
1289,1715534695750,2.19,-1.06,3.03,95.7,243.96,-211.18
1290,1715534695760,2.19,-1.06,3.03,95.7,243.96,-211.18
1291,1715534695770,2.19,-1.06,3.03,95.7,243.96,-211.17999999999998
1292,1715534695780,1.685,-0.92,2.675,149.35,212.95499999999998,-192.29000000000002
1293,1715534695790,1.18,-0.7799999999999999,2.32,203.0,181.94999999999996,-173.4
1294,1715534695800,1.18,-0.78,2.32,203.0,181.95,-173.4
1295,1715534695810,1.18,-0.7799999999999999,2.32,203.0,181.94999999999996,-173.4
1296,1715534695820,1.2,-0.7425,2.1075,235.8675,184.605,-158.20250000000001
1297,1715534695830,1.26,-0.63,1.47,334.47,192.57,-112.61
1298,1715534695840,1.26,-0.63,1.47,334.47,192.57000000000002,-112.61
1299,1715534695850,1.26,-0.63,1.47,334.47,192.57000000000002,-112.61
1300,1715534695860,1.2675,-1.0574999999999999,0.9525,364.6875,180.21,-163.5125
1301,1715534695870,1.27,-1.2,0.78,374.76,176.09,-180.48
1302,1715534695880,1.27,-1.2,0.7799999999999999,374.76,176.09,-180.48
1303,1715534695890,1.27,-1.2,0.7799999999999999,374.76,176.09,-180.48
1304,1715534695900,0.9325,-1.4925000000000002,0.7275,320.6025,154.48250000000002,-195.45
1305,1715534695910,0.82,-1.59,0.71,302.55,147.28,-200.43999999999997
1306,1715534695920,0.82,-1.59,0.71,302.55,147.28,-200.44
1307,1715534695930,0.9333333333333332,-1.61,0.8766666666666666,302.55,147.28,-200.43999999999997
1308,1715534695940,1.16,-1.6499999999999997,1.21,216.55000000000004,156.31,-143.62
1309,1715534695950,1.16,-1.6499999999999997,1.21,216.55000000000004,156.31,-143.62
1310,1715534695960,1.16,-1.6499999999999997,1.21,216.55000000000004,156.31,-143.62
1311,1715534695970,1.1433333333333333,-1.7533333333333332,1.2766666666666666,210.24333333333334,185.14000000000001,-134.68666666666667
1312,1715534695980,1.11,-1.96,1.41,197.63,242.80000000000004,-116.82
1313,1715534695990,1.11,-1.96,1.41,197.63,242.80000000000004,-116.82
1314,1715534696000,1.11,-1.96,1.41,197.63,242.80000000000004,-116.82
1315,1715534696010,1.1466666666666667,-1.8933333333333333,1.3,245.85,199.93333333333337,-109.25333333333333
1316,1715534696020,1.22,-1.76,1.08,342.29,114.2,-94.12
1317,1715534696030,1.22,-1.76,1.08,342.29,114.2,-94.12
1318,1715534696040,1.22,-1.76,1.08,342.29,114.2,-94.12
1319,1715534696050,1.3399999999999999,-1.575,0.845,344.09000000000003,112.43,-101.9625
1320,1715534696060,1.46,-1.39,0.61,349.49,107.12,-125.49
1321,1715534696070,1.46,-1.39,0.61,349.49,107.12,-125.49
1322,1715534696080,1.46,-1.39,0.61,349.49,107.12,-125.49
1323,1715534696090,1.08,-1.02,-0.68,205.43999999999997,203.74,-130.0
1324,1715534696100,1.08,-1.02,-0.68,205.43999999999997,203.74,-130.0
1325,1715534696110,1.08,-1.02,-0.68,205.43999999999997,203.74,-130.0
1326,1715534696120,1.08,-1.02,-0.68,205.44,203.74,-130.0
1327,1715534696130,-1.02,-0.59,-2.7999999999999994,185.26,127.64666666666666,-171.91333333333333
1328,1715534696140,-1.02,-0.59,-2.8,175.17,89.6,-192.87
1329,1715534696150,-1.02,-0.59,-2.8,175.17,89.6,-192.87
1330,1715534696160,-1.4633333333333336,-0.6933333333333334,-3.236666666666667,172.71,22.13666666666666,-161.19333333333336
1331,1715534696170,-2.35,-0.9,-4.11,167.79,-112.79,-97.83999999999999
1332,1715534696180,-2.35,-0.9,-4.11,167.79,-112.79,-97.83999999999999
1333,1715534696190,-2.35,-0.9,-4.11,167.79,-112.79,-97.83999999999999
1334,1715534696200,-2.35,-0.9,-4.11,167.79,-112.79,-97.84
1335,1715534696210,-2.35,-0.9,-4.11,167.79,-112.79,-97.83999999999999
1336,1715534696220,-2.35,-0.9,-4.11,167.79,-112.79,-97.84
1337,1715534696230,-2.35,-0.9,-4.11,167.79,-112.79,-97.83999999999999
1338,1715534696240,-2.35,-0.9,-4.11,167.79,-112.79,-97.83999999999999
1339,1715534696250,-2.35,-0.9,-4.11,167.79,-112.79,-97.83999999999999
1340,1715534696260,-2.34,-0.9266666666666667,-4.133333333333334,93.32666666666665,-89.59666666666668,-10.926666666666668
1341,1715534696270,-2.32,-0.98,-4.18,-55.6,-43.21,162.9
1342,1715534696280,-2.32,-0.98,-4.18,-55.6,-43.21,162.9
1343,1715534696290,-0.05000000000000001,-1.96,-1.82,-153.02,-146.3,349.37000000000006
1344,1715534696300,-0.05,-1.96,-1.82,-153.02,-146.3,349.37
1345,1715534696310,-0.05000000000000001,-1.96,-1.82,-153.02,-146.3,349.37000000000006
1346,1715534696320,-0.05000000000000001,-1.96,-1.82,-153.02,-146.3,349.37000000000006
1347,1715534696330,1.8,-2.23,-0.09000000000000001,-345.95,-91.06,352.17
1348,1715534696340,1.9433333333333334,-2.296666666666667,0.6033333333333334,-345.95,-91.06,352.17
1349,1715534696350,2.23,-2.43,1.99,-385.33666666666664,-102.04666666666667,297.6033333333333
1350,1715534696360,2.23,-2.43,1.99,-405.03,-107.54,270.32
1351,1715534696370,2.23,-2.43,1.99,-405.03,-107.54,270.32
1352,1715534696380,2.065,-2.3525,1.91,-402.49749999999995,-90.83250000000001,260.555
1353,1715534696390,1.57,-2.12,1.67,-394.8999999999999,-40.71,231.26
1354,1715534696400,1.57,-2.12,1.67,-394.8999999999999,-40.71,231.26
1355,1715534696410,1.57,-2.12,1.67,-394.8999999999999,-40.71,231.26
1356,1715534696420,1.33,-2.14,1.6549999999999998,-407.84,-57.34,207.885
1357,1715534696430,1.09,-2.16,1.64,-420.78,-73.97,184.51
1358,1715534696440,1.09,-2.16,1.64,-420.78,-73.97,184.51
1359,1715534696450,1.09,-2.16,1.64,-420.78,-73.97,184.51
1360,1715534696460,1.0566666666666666,-2.1,1.6166666666666665,-421.5733333333333,-61.906666666666666,188.23333333333335
1361,1715534696470,0.9899999999999999,-1.9799999999999998,1.57,-423.16,-37.78,195.67999999999998
1362,1715534696480,0.99,-1.98,1.57,-423.16,-37.78,195.68
1363,1715534696490,0.9899999999999999,-1.9799999999999998,1.57,-423.16,-37.78,195.67999999999998
1364,1715534696500,1.0966666666666667,-1.8733333333333333,1.5433333333333332,-406.88000000000005,-96.58,195.88
1365,1715534696510,1.15,-1.82,1.53,-398.74,-125.98,195.98
1366,1715534696520,1.15,-1.82,1.53,-398.74,-125.98,195.98
1367,1715534696530,1.15,-1.82,1.53,-398.74,-125.98,195.98
1368,1715534696540,1.15,-1.82,1.53,-398.74,-125.98,195.98
1369,1715534696550,1.3975,-1.28,2.1900000000000004,-411.745,-101.7175,170.12
1370,1715534696560,1.4799999999999998,-1.1,2.41,-416.08,-93.63,161.5
1371,1715534696570,1.4799999999999998,-1.1,2.41,-416.08,-93.63,161.5
1372,1715534696580,1.05,-0.05000000000000001,3.5499999999999994,-416.08,-93.63,161.5
1373,1715534696590,1.05,-0.05000000000000001,3.5499999999999994,-416.08,-93.63,161.5
1374,1715534696600,1.05,-0.05,3.55,-390.9925,-55.725,106.38250000000001
1375,1715534696610,1.05,-0.05000000000000001,3.5499999999999994,-382.62999999999994,-43.09,88.01
1376,1715534696620,0.98,0.41500000000000004,4.13,-277.8,-47.67,71.255
1377,1715534696630,0.91,0.88,4.71,-172.97,-52.25,54.5
1378,1715534696640,0.91,0.88,4.71,-172.97,-52.25,54.5
1379,1715534696650,0.91,0.88,4.71,-172.97,-52.25,54.5
1380,1715534696660,0.91,0.88,4.71,-172.97,-52.25,54.5
1381,1715534696670,2.43,0.855,5.234999999999999,-37.29,-49.595,93.96
1382,1715534696680,3.95,0.83,5.76,98.39,-46.94,133.42
1383,1715534696690,3.85,-0.36999999999999994,5.38,98.39,-46.94,133.42
1384,1715534696700,3.7999999999999994,-0.9700000000000001,5.19,98.39,-46.94,133.42
1385,1715534696710,3.7999999999999994,-0.9700000000000001,5.19,98.39,-46.94,133.42
1386,1715534696720,3.7999999999999994,-0.9700000000000001,5.19,98.39,-46.94,133.42
1387,1715534696730,3.8,-0.97,5.19,98.39,-46.94,133.42
1388,1715534696740,3.7999999999999994,-0.9700000000000001,5.19,98.39,-46.94,133.42
1389,1715534696750,3.7999999999999994,-0.9700000000000001,5.19,98.39,-46.94,133.42
1390,1715534696760,3.7999999999999994,-0.9700000000000001,5.19,98.39,-46.94,133.42
1391,1715534696770,3.8,-0.97,5.19,98.39,-46.94,133.42
1392,1715534696780,3.7999999999999994,-0.9700000000000001,5.19,98.39,-46.94,133.42
1393,1715534696790,2.466666666666667,-0.9766666666666666,3.85,249.22333333333336,59.18333333333334,-115.56333333333333
1394,1715534696800,1.7575,-0.835,2.8200000000000003,306.47,110.06,-69.8725
1395,1715534696810,1.63,-0.4000000000000001,1.74,374.27,119.63,-101.5
1396,1715534696820,1.63,-0.4,1.74,374.27,119.63,-101.5
1397,1715534696830,1.63,-0.4000000000000001,1.74,374.27,119.63,-101.5
1398,1715534696840,1.63,-0.4000000000000001,1.74,374.27,119.63,-101.5
1399,1715534696850,1.22,-1.03,1.01,374.76,123.17,-195.42999999999998
1400,1715534696860,1.22,-1.03,1.01,374.76,123.17,-195.42999999999998
1401,1715534696870,1.22,-1.03,1.01,374.76,123.17,-195.42999999999998
1402,1715534696880,1.22,-1.03,1.01,374.76,123.17,-195.42999999999998
1403,1715534696890,0.9575,-1.5625,0.8300000000000001,329.66999999999996,124.82000000000001,-223.8625
1404,1715534696900,0.87,-1.74,0.77,314.64,125.37,-233.34
1405,1715534696910,0.87,-1.74,0.77,314.64,125.37,-233.34
1406,1715534696920,0.87,-1.74,0.77,314.64,125.37,-233.34
1407,1715534696930,0.87,-1.74,0.77,314.64,125.37,-233.34
1408,1715534696940,0.8033333333333333,-1.7466666666666668,0.8033333333333333,305.8066666666667,97.94333333333334,-209.74
1409,1715534696950,0.77,-1.75,0.82,301.39,84.23,-197.93999999999997
1410,1715534696960,0.77,-1.75,0.82,301.39,84.23,-197.93999999999997
1411,1715534696970,0.92,-1.62,1.05,254.39,92.29,-178.04
1412,1715534696980,0.92,-1.62,1.05,254.39,92.29,-178.04
1413,1715534696990,0.92,-1.62,1.05,254.39,92.29,-178.04
1414,1715534697000,0.92,-1.62,1.05,254.39,92.29,-178.04
1415,1715534697010,0.92,-1.62,1.05,254.39,92.29,-178.04
1416,1715534697020,0.9899999999999999,-1.61,1.14,243.23,132.08,-149.23
1417,1715534697030,0.99,-1.61,1.14,243.23,132.08,-149.23
1418,1715534697040,0.99,-1.61,1.14,243.23,132.08,-149.23
1419,1715534697050,0.9899999999999999,-1.61,1.14,243.23,132.08,-149.23
1420,1715534697060,0.9899999999999999,-1.61,1.14,243.23,132.08,-149.23
1421,1715534697070,0.99,-1.61,1.14,243.23,132.08,-149.23
1422,1715534697080,1.0266666666666666,-1.2833333333333334,0.59,242.25,132.41,-138.58666666666667
1423,1715534697090,1.03,-1.26,0.55,235.05000000000004,131.23,-141.78
1424,1715534697100,1.03,-1.26,0.55,235.05000000000004,131.23,-141.78
1425,1715534697110,1.03,-1.26,0.55,235.05,131.23,-141.78
1426,1715534697120,1.03,-1.26,0.55,235.05,131.23,-141.78
1427,1715534697130,0.6325000000000001,-1.2,-0.35750000000000004,224.03,146.03,-118.03999999999999
1428,1715534697140,0.5,-1.18,-0.66,213.01,160.83,-94.3
1429,1715534697150,0.5,-1.18,-0.66,213.01,160.83,-94.3
1430,1715534697160,0.5,-1.18,-0.66,213.01,160.83,-94.3
1431,1715534697170,-1.2066666666666668,-0.6466666666666666,-2.72,228.84333333333333,97.71666666666665,-78.34666666666668
1432,1715534697180,-2.385,-0.72,-4.16,140.84,15.379999999999999,3.634999999999998
1433,1715534697190,-2.7099999999999995,-1.06,-4.57,44.919999999999995,-35.4,77.64
1434,1715534697200,-2.71,-1.06,-4.57,44.92,-35.4,77.64
1435,1715534697210,-2.71,-1.06,-4.57,44.92,-35.4,77.64
1436,1715534697220,-2.52,-0.85,-4.86,44.919999999999995,-35.4,77.64
1437,1715534697230,-2.52,-0.85,-4.86,44.92,-35.4,77.64
1438,1715534697240,-2.52,-0.85,-4.86,44.919999999999995,-35.4,77.64
1439,1715534697250,-2.52,-0.85,-4.86,44.919999999999995,-35.4,77.64
1440,1715534697260,-2.52,-0.85,-4.86,44.92,-35.4,77.64
1441,1715534697270,-2.52,-0.85,-4.86,44.919999999999995,-35.4,77.64
1442,1715534697280,-2.52,-0.85,-4.86,44.919999999999995,-35.4,77.64
1443,1715534697290,-2.52,-0.85,-4.86,44.919999999999995,-35.4,77.64
1444,1715534697300,-2.52,-0.85,-4.86,44.919999999999995,-35.4,77.64
1445,1715534697310,-0.04666666666666671,-1.95,-2.06,-178.1,-100.95333333333333,272.42
1446,1715534697320,1.19,-2.5,-0.66,-289.61,-133.73,369.81
1447,1715534697330,1.19,-2.5,-0.66,-289.61,-133.73,369.81
1448,1715534697340,2.67,-2.78,1.55,-301.7,-237.37,327.94
1449,1715534697350,2.67,-2.78,1.55,-301.7,-237.37,327.94
1450,1715534697360,2.67,-2.78,1.55,-301.7,-237.37,327.94
1451,1715534697370,2.6466666666666665,-2.6199999999999997,1.8,-305.5833333333333,-189.53666666666666,323.50666666666666
1452,1715534697380,2.6,-2.3,2.3,-313.35,-93.87,314.64
1453,1715534697390,2.6,-2.3,2.3,-313.35,-93.87,314.64
1454,1715534697400,2.6,-2.3,2.3,-313.35,-93.87,314.64
1455,1715534697410,2.066666666666667,-1.92,2.033333333333333,-409.42333333333335,55.98999999999999,273.94666666666666
1456,1715534697420,1.8,-1.73,1.9,-457.46,130.92,253.6
1457,1715534697430,1.8,-1.7299999999999998,1.8999999999999997,-457.46,130.92,253.6
1458,1715534697440,1.8,-1.7299999999999998,1.8999999999999997,-457.46,130.92,253.6
1459,1715534697450,1.26,-1.8499999999999999,1.42,-422.6666666666667,58.85999999999999,185.5666666666667
1460,1715534697460,0.99,-1.91,1.18,-405.27,22.83,151.55
1461,1715534697470,0.9899999999999999,-1.91,1.18,-405.27,22.83,151.55
1462,1715534697480,0.9899999999999999,-1.91,1.18,-405.27,22.83,151.55
1463,1715534697490,1.01,-1.72,1.39,-339.9,-81.3,151.43
1464,1715534697500,1.01,-1.72,1.39,-339.9,-81.3,151.43
1465,1715534697510,1.01,-1.72,1.39,-339.9,-81.3,151.43
1466,1715534697520,1.01,-1.72,1.39,-339.9,-81.3,151.43
1467,1715534697530,0.92,-1.39,1.34,-471.5,66.71,173.77
1468,1715534697540,0.92,-1.39,1.34,-471.5,66.71,173.77
1469,1715534697550,0.92,-1.39,1.34,-471.5,66.71,173.77
1470,1715534697560,0.88,-1.3966666666666665,1.5333333333333332,-471.5,66.71,173.77
1471,1715534697570,0.8000000000000002,-1.41,1.92,-471.8,-81.48,87.09999999999998
1472,1715534697580,0.8,-1.41,1.92,-471.8,-81.48,87.1
1473,1715534697590,0.8000000000000002,-1.41,1.92,-471.8,-81.48,87.09999999999998
1474,1715534697600,0.9866666666666667,-1.0066666666666666,2.813333333333333,-428.3633333333334,-61.42000000000001,89.33666666666666
1475,1715534697610,1.36,-0.2,4.6,-341.49,-21.3,93.81
1476,1715534697620,1.36,-0.20000000000000004,4.6,-341.49,-21.3,93.81
1477,1715534697630,1.36,-0.20000000000000004,4.6,-341.49,-21.3,93.81
1478,1715534697640,2.0,-0.07,5.845,-279.02,-41.7775,116.545
1479,1715534697650,2.64,0.06,7.09,-91.61,-103.21,184.75
1480,1715534697660,2.64,0.06,7.09,-91.61,-103.21,184.75
1481,1715534697670,2.64,0.06,7.09,-91.61,-103.21,184.75
1482,1715534697680,3.16,-0.21,6.543333333333333,29.380000000000006,-91.77666666666666,97.77666666666666
1483,1715534697690,4.2,-0.75,5.45,271.36,-68.91,-76.17
1484,1715534697700,4.2,-0.75,5.45,271.36,-68.91,-76.17
1485,1715534697710,4.2,-0.75,5.45,271.36,-68.91,-76.17
1486,1715534697720,2.4,-2.3,4.07,91.98,183.04,-177.12
1487,1715534697730,2.4,-2.3,4.07,91.98,183.04,-177.12
1488,1715534697740,2.4,-2.3,4.07,91.98,183.04,-177.12
1489,1715534697750,2.4,-2.3,4.07,91.98,183.04,-177.12
1490,1715534697760,2.4,-2.3,4.07,91.98,183.04,-177.12
1491,1715534697770,2.4,-2.3,4.07,91.98,183.04,-177.12
1492,1715534697780,2.4,-2.3,4.07,91.98,183.04,-177.12
1493,1715534697790,2.4,-2.3,4.07,91.98,183.04,-177.12
1494,1715534697800,2.4,-2.3,4.07,91.98,183.04,-177.12
1495,1715534697810,2.4,-2.3,4.07,91.98,183.04,-177.12
1496,1715534697820,2.4,-2.3,4.07,91.98,183.04,-177.12
1497,1715534697830,2.0666666666666664,-1.633333333333333,3.1366666666666667,175.64,175.33,-145.30333333333334
1498,1715534697840,1.4,-0.3,1.27,342.96,159.91,-81.67
1499,1715534697850,1.3999999999999997,-0.3,1.27,342.96,159.91,-81.67
1500,1715534697860,1.4,-0.3,1.27,342.96,159.91,-81.67
1501,1715534697870,1.08,-1.27,0.9,356.4666666666667,150.30999999999997,-141.15666666666667
1502,1715534697880,1.08,-1.27,0.9,363.22,145.51,-170.9
1503,1715534697890,1.08,-1.27,0.9,363.22,145.51,-170.9
1504,1715534697900,1.0050000000000001,-1.395,0.8975,363.22,145.51,-170.9
1505,1715534697910,0.7799999999999999,-1.7700000000000002,0.89,338.56,93.75,-186.34
1506,1715534697920,0.7799999999999999,-1.7700000000000002,0.89,338.56,93.75,-186.34
1507,1715534697930,0.78,-1.77,0.89,338.56,93.75,-186.34
1508,1715534697940,0.7766666666666667,-1.74,0.9166666666666666,338.56,93.75,-186.34
1509,1715534697950,0.77,-1.68,0.9700000000000001,315.92,107.54,-149.48
1510,1715534697960,0.77,-1.68,0.9700000000000001,315.92,107.54,-149.48
1511,1715534697970,0.77,-1.68,0.9700000000000001,315.92,107.54,-149.48
1512,1715534697980,0.77,-1.68,0.9700000000000001,315.92,107.54,-149.48
1513,1715534697990,0.8366666666666666,-1.5933333333333335,0.9433333333333334,300.4533333333334,130.73333333333335,-133.24
1514,1715534698000,0.87,-1.55,0.93,292.72,142.33,-125.12
1515,1715534698010,0.87,-1.55,0.93,292.72,142.33,-125.12
1516,1715534698020,0.87,-1.55,0.93,292.72,142.33,-125.12
1517,1715534698030,0.9499999999999998,-1.27,0.79,315.92,49.38,-144.23
1518,1715534698040,0.9499999999999998,-1.27,0.79,315.92,49.38,-144.23
1519,1715534698050,0.9499999999999998,-1.27,0.79,315.92,49.38,-144.23
1520,1715534698060,0.9499999999999998,-1.27,0.79,315.92,49.38,-144.23
1521,1715534698070,0.9499999999999998,-1.27,0.79,315.92,49.38,-144.23
1522,1715534698080,0.9499999999999998,-1.27,0.79,315.92,49.38,-144.23
1523,1715534698090,0.9499999999999998,-1.27,0.79,315.92,49.38,-144.23
1524,1715534698100,0.9499999999999998,-1.27,0.79,315.92,49.38,-144.23
1525,1715534698110,0.9499999999999998,-1.27,0.79,315.92,49.38,-144.23
1526,1715534698120,0.95,-1.27,0.79,315.92,49.38,-144.23
1527,1715534698130,1.24,-1.2,0.09000000000000001,239.26,152.16,-179.81000000000003
1528,1715534698140,0.08,-0.91,-0.53,246.77,60.97,-214.23
1529,1715534698150,0.08,-0.91,-0.53,246.77,60.97,-214.23
1530,1715534698160,-0.87,-0.9666666666666668,-1.7466666666666668,281.5366666666667,20.73,-201.84
1531,1715534698170,-2.77,-1.08,-4.18,351.07,-59.75,-177.06
1532,1715534698180,-2.77,-1.08,-4.18,351.07,-59.75,-177.06000000000003
1533,1715534698190,-2.77,-1.08,-4.18,351.07,-59.75,-177.06
1534,1715534698200,-3.1799999999999997,-1.22,-3.9299999999999997,265.03333333333336,-67.23666666666666,-118.40666666666668
1535,1715534698210,-4.0,-1.5,-3.43,92.96,-82.21,-1.1
1536,1715534698220,-4.0,-1.5,-3.43,92.96,-82.21,-1.1
1537,1715534698230,-4.0,-1.5,-3.43,92.96,-82.21,-1.1
1538,1715534698240,-3.51,-2.12,-3.81,59.02,-193.36,222.53
1539,1715534698250,-3.51,-2.12,-3.81,59.02,-193.36,222.53
1540,1715534698260,-3.51,-2.12,-3.81,59.02,-193.36,222.53
1541,1715534698270,-3.51,-2.12,-3.81,59.02,-193.36,222.53
1542,1715534698280,-3.51,-2.12,-3.81,59.02,-193.36,222.53
1543,1715534698290,-3.51,-2.12,-3.81,59.02,-193.36,222.53
1544,1715534698300,-3.51,-2.12,-3.81,59.02,-193.36,222.53
1545,1715534698310,-3.51,-2.12,-3.81,59.02,-193.36,222.53
1546,1715534698320,-3.51,-2.12,-3.81,59.02,-193.36,222.53
1547,1715534698330,-3.51,-2.12,-3.81,59.02,-193.36,222.53
1548,1715534698340,-3.51,-2.12,-3.81,59.02,-193.36,222.53
1549,1715534698350,-3.51,-2.12,-3.81,59.02,-193.36,222.53
1550,1715534698360,0.9566666666666667,-1.54,-0.5233333333333333,-88.32000000000001,-2.8466666666666733,366.69666666666666
1551,1715534698370,3.19,-1.25,1.12,-161.99,92.41,438.78
1552,1715534698380,3.19,-1.25,1.12,-161.99,92.41000000000001,438.78
1553,1715534698390,2.9233333333333333,-1.1966666666666665,1.07,-212.24,113.79333333333334,414.2633333333333
1554,1715534698400,2.39,-1.09,0.97,-312.74,156.56,365.23
1555,1715534698410,2.39,-1.09,0.9700000000000001,-312.74,156.56,365.23
1556,1715534698420,2.39,-1.09,0.97,-312.74,156.56,365.23
1557,1715534698430,1.9833333333333334,-1.2700000000000002,1.1500000000000001,-406.78000000000003,143.98666666666665,302.73
1558,1715534698440,1.78,-1.36,1.24,-453.8,137.7,271.48
1559,1715534698450,1.78,-1.36,1.24,-453.8,137.7,271.48
1560,1715534698460,1.78,-1.36,1.24,-453.8,137.7,271.48
1561,1715534698470,1.5133333333333334,-1.5066666666666668,1.42,-434.18666666666667,94.07999999999998,270.24
1562,1715534698480,1.38,-1.58,1.51,-394.96,6.84,267.76
1563,1715534698490,1.38,-1.58,1.51,-394.96,6.84,267.76
1564,1715534698500,1.38,-1.58,1.51,-394.96,6.84,267.76
1565,1715534698510,1.38,-1.58,1.51,-394.96,6.84,267.76
1566,1715534698520,1.38,-1.58,1.51,-394.96,6.84,267.76
1567,1715534698530,1.3425,-1.4075000000000002,1.48,-377.10249999999996,10.364999999999998,271.06
1568,1715534698540,1.33,-1.35,1.47,-371.15,11.54,272.16
1569,1715534698550,1.33,-1.3500000000000003,1.47,-371.1499999999999,11.54,272.16
1570,1715534698560,1.07,-0.95,1.39,-396.79,17.94,264.83
1571,1715534698570,1.07,-0.9499999999999998,1.39,-396.79,17.94,264.83
1572,1715534698580,1.07,-0.9499999999999998,1.39,-396.79,17.94,264.83
1573,1715534698590,1.61,0.32,2.36,-354.58500000000004,-30.884999999999998,227.20499999999998
1574,1715534698600,1.61,0.32,2.36,-312.38,-79.71,189.58
1575,1715534698610,1.61,0.32,2.36,-312.38,-79.71,189.58
1576,1715534698620,1.5725,0.3025,2.77,-299.5775,-77.1775,193.53
1577,1715534698630,1.46,0.25,4.0,-261.17,-69.58,205.38
1578,1715534698640,1.46,0.25,4.0,-261.17,-69.58,205.38
1579,1715534698650,1.46,0.25,4.0,-261.17,-69.58,205.38
1580,1715534698660,3.885,0.565,5.08,-261.17,-69.58,205.38
1581,1715534698670,6.31,0.88,6.16,30.52,-118.04,234.25
1582,1715534698680,6.31,0.88,6.16,30.52,-118.04,234.25
1583,1715534698690,6.31,0.88,6.16,30.52,-118.04,234.25
1584,1715534698700,5.043333333333333,-0.20666666666666667,5.366666666666667,30.52,-118.04,234.25
1585,1715534698710,4.41,-0.75,4.97,160.52,3.05,-164.55
1586,1715534698720,4.41,-0.75,4.97,160.52,3.0499999999999994,-164.55
1587,1715534698730,4.41,-0.75,4.97,160.52,3.0499999999999994,-164.55
1588,1715534698740,3.0033333333333334,-0.71,3.436666666666666,73.24000000000001,168.61666666666667,-148.72333333333333
1589,1715534698750,2.3,-0.69,2.67,29.6,251.4,-140.81
1590,1715534698760,2.3,-0.69,2.67,29.600000000000005,251.4,-140.81
1591,1715534698770,2.3,-0.69,2.67,29.600000000000005,251.4,-140.81
1592,1715534698780,1.48,-0.08,2.56,109.44,174.56,-139.47
1593,1715534698790,1.4799999999999998,-0.08,2.56,109.44,174.56000000000003,-139.47
1594,1715534698800,1.4799999999999998,-0.08,2.56,109.44,174.56000000000003,-139.47
1595,1715534698810,1.4799999999999998,-0.08,2.56,109.44,174.56000000000003,-139.47
1596,1715534698820,1.4799999999999998,-0.08,2.56,109.44,174.56000000000003,-139.47
1597,1715534698830,1.4799999999999998,-0.08,2.56,109.44,174.56000000000003,-139.47
1598,1715534698840,1.4799999999999998,-0.08,2.56,109.44,174.56000000000003,-139.47
1599,1715534698850,1.4799999999999998,-0.08,2.56,109.44,174.56000000000003,-139.47
1600,1715534698860,1.48,-0.08,2.56,109.44,174.56,-139.47
1601,1715534698870,1.4799999999999998,-0.08,2.56,109.44,174.56000000000003,-139.47
1602,1715534698880,1.445,0.0,2.37,137.515,180.8625,-131.9
1603,1715534698890,1.34,0.24,1.8,221.74,199.77,-109.19
1604,1715534698900,1.28,-0.1725,1.555,248.9925,174.3475,-147.8725
1605,1715534698910,1.1,-1.41,0.82,330.75,98.08,-263.92
1606,1715534698920,1.1,-1.41,0.82,330.75,98.08,-263.92
1607,1715534698930,1.1,-1.41,0.82,330.75,98.08,-263.92
1608,1715534698940,1.1,-1.41,0.82,330.75,98.08,-263.92
1609,1715534698950,1.37,-1.63,1.39,235.35,63.05,-204.1
1610,1715534698960,1.37,-1.63,1.39,235.35,63.04999999999999,-204.1
1611,1715534698970,1.55,-1.74,1.75,235.35,63.05,-204.1
1612,1715534698980,1.55,-1.74,1.75,235.35,63.04999999999999,-204.1
1613,1715534698990,1.55,-1.74,1.75,235.35,63.05,-204.1
1614,1715534699000,1.55,-1.74,1.75,235.35,63.04999999999999,-204.1
1615,1715534699010,1.55,-1.74,1.75,232.70666666666668,99.91666666666667,-199.68666666666664
1616,1715534699020,1.41,-1.7299999999999998,1.18,319.03,123.90000000000002,-180.97
1617,1715534699030,1.41,-1.7299999999999998,1.18,319.03,123.90000000000002,-180.97
1618,1715534699040,1.3666666666666665,-1.6466666666666665,1.1633333333333333,319.03,123.90000000000002,-180.97
1619,1715534699050,1.28,-1.4799999999999998,1.13,320.5366666666667,112.91333333333334,-203.59
1620,1715534699060,1.28,-1.4799999999999998,1.13,321.29,107.42,-214.9
1621,1715534699070,1.28,-1.4799999999999998,1.13,321.29,107.42,-214.9
1622,1715534699080,1.33,-1.56,1.165,317.3075,106.565,-211.04000000000002
1623,1715534699090,1.4799999999999998,-1.8,1.27,305.36,104.0,-199.46
1624,1715534699100,1.4799999999999998,-1.8,1.27,305.36,104.0,-199.46
1625,1715534699110,1.4799999999999998,-1.8,1.27,305.36,104.0,-199.46
1626,1715534699120,0.37999999999999995,-1.4266666666666667,-0.16333333333333333,299.05333333333334,145.75333333333333,-172.36
1627,1715534699130,-0.17,-1.24,-0.88,295.9,166.63,-158.81
1628,1715534699140,-0.17,-1.24,-0.88,295.9,166.63,-158.81
1629,1715534699150,-0.17,-1.24,-0.88,295.9,166.63,-158.81
1630,1715534699160,-2.83,-1.2,-5.23,198.36,-21.18,-186.04
1631,1715534699170,-2.83,-1.2,-5.23,198.36,-21.18,-186.04
1632,1715534699180,-2.83,-1.2,-5.23,198.36,-21.18,-186.04
1633,1715534699190,-2.83,-1.2,-5.23,198.36,-21.18,-186.04
1634,1715534699200,-2.83,-1.2,-5.23,198.36,-21.18,-186.04
1635,1715534699210,-3.47,-1.11,-4.55,-105.65,43.76,61.58
1636,1715534699220,-3.47,-1.11,-4.55,-105.65000000000002,43.76,61.580000000000005
1637,1715534699230,-3.1950000000000003,-1.435,-4.2,-133.36,-12.025000000000002,83.005
1638,1715534699240,-2.92,-1.76,-3.85,-161.07,-67.81,104.43
1639,1715534699250,-2.92,-1.76,-3.85,-161.07,-67.81,104.43
1640,1715534699260,-2.92,-1.76,-3.85,-161.07,-67.81,104.43
1641,1715534699270,-2.92,-1.76,-3.85,-161.07,-67.81,104.43
1642,1715534699280,-2.92,-1.76,-3.85,-161.07,-67.81,104.43
1643,1715534699290,-2.92,-1.76,-3.85,-161.07,-67.81,104.43
1644,1715534699300,-2.92,-1.76,-3.85,-161.07,-67.81,104.43
1645,1715534699310,-2.92,-1.76,-3.85,-161.07,-67.81,104.43
1646,1715534699320,-2.92,-1.76,-3.85,-161.07,-67.81,104.43
1647,1715534699330,-2.92,-1.76,-3.85,-161.07,-67.81,104.43
1648,1715534699340,-2.92,-1.76,-3.85,-161.07,-67.81,104.43
1649,1715534699350,-2.92,-1.76,-3.85,-161.07,-67.81,104.43
1650,1715534699360,-2.92,-1.76,-3.85,-161.07,-67.81,104.43
1651,1715534699370,-2.92,-1.76,-3.85,-161.07,-67.81,104.43
1652,1715534699380,-2.92,-1.76,-3.85,-161.07,-67.81,104.43
1653,1715534699390,-2.92,-1.76,-3.85,-161.07,-67.81,104.43
1654,1715534699400,-2.92,-1.76,-3.85,-161.07,-67.81,104.43
1655,1715534699410,-0.43500000000000005,-1.635,-0.9850000000000001,-247.79999999999998,18.494999999999997,235.105
1656,1715534699420,1.555,-1.5150000000000001,1.455,-372.465,98.3,312.03999999999996
1657,1715534699430,1.06,-1.52,1.03,-410.4,91.8,258.3
1658,1715534699440,1.06,-1.5200000000000002,1.03,-410.3999999999999,91.8,258.3
1659,1715534699450,1.06,-1.5200000000000002,1.03,-410.3999999999999,91.8,258.3
1660,1715534699460,0.9550000000000001,-1.5575,1.1425,-355.955,2.8999999999999986,213.075
1661,1715534699470,0.92,-1.57,1.18,-301.51,-86.0,167.85
1662,1715534699480,0.92,-1.57,1.18,-301.51,-86.0,167.85
1663,1715534699490,0.92,-1.57,1.18,-301.51,-86.0,167.85
1664,1715534699500,0.7933333333333333,-1.43,0.9533333333333333,-326.86333333333334,-43.03333333333333,181.07000000000002
1665,1715534699510,0.73,-1.36,0.84,-339.54,-21.55,187.67999999999998
1666,1715534699520,0.73,-1.36,0.84,-339.54,-21.55,187.68
1667,1715534699530,0.62,-1.45,0.7666666666666666,-358.40000000000003,-41.52666666666667,158.89333333333335
1668,1715534699540,0.4000000000000001,-1.63,0.62,-396.12000000000006,-81.48,101.32
1669,1715534699550,0.4,-1.63,0.62,-396.12,-81.48,101.32
1670,1715534699560,0.4000000000000001,-1.63,0.62,-396.12000000000006,-81.48,101.32
1671,1715534699570,0.77,-1.69,1.5250000000000001,-379.76,-147.125,182.62
1672,1715534699580,1.14,-1.75,2.43,-363.4,-212.77,263.92
1673,1715534699590,1.14,-1.75,2.43,-363.3999999999999,-212.77,263.92
1674,1715534699600,1.14,-1.75,2.43,-363.3999999999999,-212.77,263.92
1675,1715534699610,3.0975,-0.5725,3.7800000000000002,-363.4,-212.77,263.92
1676,1715534699620,3.75,-0.18,4.23,-151.045,-190.3825,301.27000000000004
1677,1715534699630,3.75,-0.18000000000000002,4.23,-80.26,-182.92,313.72
1678,1715534699640,3.75,-0.18,4.23,-80.26,-182.92,313.72
1679,1715534699650,4.36,1.55,5.07,-145.0375,-45.04,197.995
1680,1715534699660,4.36,1.55,5.07,-166.63,0.92,159.42
1681,1715534699670,4.36,1.55,5.07,-166.63,0.92,159.42
1682,1715534699680,4.5725,1.2025000000000001,4.9725,-166.63,0.92,159.42
1683,1715534699690,5.21,0.16,4.68,-103.78333333333332,25.883333333333336,122.74
1684,1715534699700,5.21,0.16,4.68,21.91,75.81,49.38
1685,1715534699710,5.21,0.16,4.68,21.91,75.81,49.38
1686,1715534699720,4.8475,-0.2625,4.5225,46.005,57.865,-22.307499999999997
1687,1715534699730,3.76,-1.53,4.05,118.29,4.03,-237.37
1688,1715534699740,3.76,-1.53,4.05,118.29,4.03,-237.37
1689,1715534699750,3.76,-1.53,4.05,118.29,4.03,-237.37
1690,1715534699760,3.23,-1.5533333333333335,3.573333333333333,151.6966666666667,37.21333333333333,-222.79999999999998
1691,1715534699770,2.17,-1.6000000000000003,2.62,218.51,103.58,-193.66
1692,1715534699780,2.17,-1.6,2.62,218.51,103.58,-193.66
1693,1715534699790,2.17,-1.6000000000000003,2.62,218.51,103.58,-193.66
1694,1715534699800,2.13,-1.235,2.185,246.08249999999998,110.5075,-196.575
1695,1715534699810,2.09,-0.87,1.75,328.8,131.29,-205.32000000000002
1696,1715534699820,2.09,-0.87,1.75,328.8,131.29,-205.32
1697,1715534699830,2.09,-0.87,1.75,328.8,131.29,-205.32000000000002
1698,1715534699840,1.97,-1.0333333333333334,1.5,328.8,131.29,-205.32000000000002
1699,1715534699850,1.73,-1.36,1.0,328.8,131.29,-205.32
1700,1715534699860,1.7299999999999998,-1.36,1.0,328.8,131.29,-205.32000000000002
1701,1715534699870,1.73,-1.36,1.0,328.8,131.29,-205.32
1702,1715534699880,1.7299999999999998,-1.36,1.0,328.8,131.29,-205.32000000000002
1703,1715534699890,1.73,-1.36,1.0,328.8,131.29,-205.32
1704,1715534699900,1.7299999999999998,-1.36,1.0,328.8,131.29,-205.32000000000002
1705,1715534699910,1.73,-1.36,1.0,328.8,131.29,-205.32
1706,1715534699920,1.7299999999999998,-1.36,1.0,328.8,131.29,-205.32000000000002
1707,1715534699930,1.57,-1.656666666666667,1.0266666666666666,309.12666666666667,146.0,-242.92
1708,1715534699940,1.25,-2.25,1.08,269.78,175.42,-318.12
1709,1715534699950,1.25,-2.25,1.08,269.78,175.42,-318.12
1710,1715534699960,1.16,-2.24,1.15,264.77,203.37,-262.7
1711,1715534699970,1.16,-2.24,1.15,264.77,203.37,-262.7
1712,1715534699980,1.16,-2.24,1.15,264.77,203.37,-262.7
1713,1715534699990,1.16,-2.24,1.15,264.77,203.37,-262.7
1714,1715534700000,1.18,-2.04,1.0,275.9166666666667,203.33,-221.51999999999998
1715,1715534700010,1.18,-2.04,1.0,281.49,203.31,-200.93
1716,1715534700020,1.18,-2.04,1.0,281.49,203.31,-200.93
1717,1715534700030,1.18,-2.04,1.0,281.49,203.31,-200.93
1718,1715534700040,1.1275,-1.8375,0.8049999999999999,297.4725,157.6725,-210.635
1719,1715534700050,1.11,-1.7700000000000002,0.7399999999999999,302.8,142.46,-213.87
1720,1715534700060,1.11,-1.77,0.74,302.8,142.46,-213.87
1721,1715534700070,0.935,-1.7349999999999999,0.47,302.8,142.46,-213.87
1722,1715534700080,0.76,-1.7,0.2,350.95,52.55,-242.68
1723,1715534700090,0.7600000000000001,-1.7,0.20000000000000004,350.95,52.54999999999999,-242.67999999999998
1724,1715534700100,0.76,-1.7,0.2,350.95,52.55,-242.68
1725,1715534700110,-0.65,-1.54,-1.32,317.83,34.93,-251.6266666666667
1726,1715534700120,-0.65,-1.54,-1.32,301.27,26.12,-256.1
1727,1715534700130,-0.65,-1.54,-1.32,301.27,26.12,-256.1
1728,1715534700140,-0.65,-1.54,-1.32,301.27,26.12,-256.1
1729,1715534700150,-1.7825000000000002,-1.9975,-2.4825,196.075,90.44,-285.26
1730,1715534700160,-2.16,-2.15,-2.8699999999999997,161.01,111.88,-294.98
1731,1715534700170,-2.16,-2.15,-2.8699999999999997,161.01,111.88,-294.98
1732,1715534700180,-2.16,-2.15,-2.8699999999999997,161.01,111.88,-294.98
1733,1715534700190,-3.53,-3.22,-4.05,25.88,-12.33,70.37
1734,1715534700200,-3.53,-3.22,-4.05,25.88,-12.33,70.37
1735,1715534700210,-3.53,-3.22,-4.05,25.88,-12.33,70.37
1736,1715534700220,-3.53,-3.22,-4.05,25.88,-12.33,70.37
1737,1715534700230,-3.53,-3.22,-4.05,25.88,-12.33,70.37
1738,1715534700240,-2.22,-2.27,-4.34,-97.96,-58.169999999999995,284.67
1739,1715534700250,-2.22,-2.27,-4.34,-97.96,-58.169999999999995,284.67
1740,1715534700260,-1.3266666666666669,-2.22,-3.533333333333333,-153.99,-73.34666666666668,344.3
1741,1715534700270,0.46,-2.12,-1.92,-266.05,-103.7,463.56
1742,1715534700280,0.46,-2.12,-1.92,-266.05,-103.7,463.56
1743,1715534700290,0.46,-2.12,-1.92,-266.05,-103.7,463.56
1744,1715534700300,0.46,-2.12,-1.92,-266.05,-103.7,463.56
1745,1715534700310,3.0499999999999994,-2.03,0.94,-492.92,-58.78,435.91
1746,1715534700320,3.05,-2.03,0.94,-492.92,-58.78,435.91
1747,1715534700330,3.05,-2.03,0.94,-492.92,-58.78,435.91
1748,1715534700340,2.58,-1.83,1.96,-327.33,-182.92,273.8
1749,1715534700350,2.58,-1.83,1.96,-327.33,-182.92,273.8
1750,1715534700360,2.58,-1.83,1.96,-327.33,-182.92,273.8
1751,1715534700370,2.58,-1.83,1.96,-327.33,-182.92,273.8
1752,1715534700380,2.58,-1.83,1.96,-327.33,-182.92,273.8
1753,1715534700390,2.58,-1.83,1.96,-327.33,-182.92,273.8
1754,1715534700400,2.58,-1.83,1.96,-327.33,-182.92,273.8
1755,1715534700410,2.58,-1.83,1.96,-327.33,-182.92,273.8
1756,1715534700420,2.58,-1.83,1.96,-327.33,-182.92,273.8
1757,1715534700430,2.58,-1.83,1.96,-327.33,-182.92,273.8
1758,1715534700440,2.58,-1.83,1.96,-327.33,-182.92,273.8
