id,timestamp,acc_x,acc_y,acc_z,gyro_x,gyro_y,gyro_z
0,1715532447170,1.3,-0.3666666666666667,2.513333333333333,107.70666666666666,100.34333333333332,53.16333333333333
1,1715532447180,1.36,-0.28,1.9400000000000002,214.17,145.63,98.88
2,1715532447190,1.36,-0.28,1.94,214.17,145.63,98.88
3,1715532447200,1.36,-0.28,1.9400000000000002,214.17,145.63,98.88
4,1715532447210,1.36,-0.28,1.94,214.17,145.63,98.88
5,1715532447220,1.21,-0.94,1.1,273.25,128.91,105.83
6,1715532447230,1.21,-0.94,1.1,273.25,128.91,105.83
7,1715532447240,1.092,-0.8320000000000001,0.942,273.25,128.91,105.83
8,1715532447250,0.62,-0.4000000000000001,0.31,425.23,33.81,8.91
9,1715532447260,0.62,-0.4000000000000001,0.31,425.23,33.81,8.91
10,1715532447270,0.62,-0.4,0.31,425.23,33.81,8.91
11,1715532447280,0.615,-0.58,0.365,425.23,33.81,8.91
12,1715532447290,0.61,-0.7600000000000001,0.42,445.0133333333333,-33.48166666666666,-36.50666666666667
13,1715532447300,0.61,-0.76,0.42000000000000004,448.9700000000001,-46.94,-45.59
14,1715532447310,0.61,-0.7600000000000001,0.42,448.97,-46.94,-45.59
15,1715532447320,0.5439999999999999,-0.58,0.396,458.78599999999994,-96.374,-85.838
16,1715532447330,0.5,-0.46,0.38000000000000006,465.33,-129.33,-112.67
17,1715532447340,0.5,-0.4600000000000001,0.38,465.33000000000004,-129.33,-112.67
18,1715532447350,0.5,-0.4600000000000001,0.38,465.33000000000004,-129.33,-112.67
19,1715532447360,0.22000000000000003,-0.588,0.372,331.25,-151.794,-100.85400000000001
20,1715532447370,0.15,-0.62,0.36999999999999994,297.73,-157.41,-97.90000000000002
21,1715532447380,0.15,-0.62,0.37,297.73,-157.41,-97.9
22,1715532447390,0.306,-0.734,0.442,260.78000000000003,-168.958,-89.136
23,1715532447400,0.93,-1.19,0.73,112.97999999999999,-215.15,-54.08
24,1715532447410,0.93,-1.19,0.73,112.97999999999999,-215.15,-54.08
25,1715532447420,0.93,-1.19,0.73,112.97999999999999,-215.15,-54.08
26,1715532447430,0.93,-1.19,0.73,112.98,-215.15,-54.08
27,1715532447440,0.93,-1.19,0.73,112.97999999999999,-215.15,-54.08
28,1715532447450,0.93,-1.19,0.73,112.98,-215.15,-54.08
29,1715532447460,0.93,-1.19,0.73,112.97999999999999,-215.15,-54.08
30,1715532447470,0.93,-1.19,0.73,112.98,-215.15,-54.08
31,1715532447480,0.93,-1.19,0.73,112.98,-215.15,-54.08
32,1715532447490,0.93,-1.19,0.73,112.98,-215.15,-54.08
33,1715532447500,0.0,-1.3500000000000003,-0.26,-140.62,126.53000000000002,208.18999999999997
34,1715532447510,0.285,-1.4125,-0.25,-194.27,60.535000000000004,213.54500000000002
35,1715532447520,1.14,-1.6,-0.22,-355.22,-137.45,229.61
36,1715532447530,1.14,-1.6000000000000003,-0.22,-355.22,-137.45,229.61
37,1715532447540,1.14,-1.6,-0.22,-355.22,-137.45,229.61
38,1715532447550,1.9949999999999997,-1.1575,0.5599999999999999,-342.77,-122.835,230.465
39,1715532447560,2.28,-1.01,0.82,-330.32,-108.21999999999998,231.32000000000002
40,1715532447570,2.28,-1.01,0.82,-330.32,-108.22,231.32
41,1715532447580,2.28,-1.01,0.82,-330.32,-108.22,231.32
42,1715532447590,1.6349999999999998,-0.9125,0.4225,-355.62,-85.94,210.265
43,1715532447600,1.42,-0.88,0.29,-380.92,-63.66,189.21
44,1715532447610,1.42,-0.8800000000000001,0.29,-380.92,-63.65999999999999,189.21
45,1715532447620,1.42,-0.88,0.29,-380.92,-63.66,189.21
46,1715532447630,1.42,-0.88,0.29,-380.92,-63.66,189.21
47,1715532447640,1.42,-0.8800000000000001,0.29,-380.92,-63.65999999999999,189.21
48,1715532447650,1.42,-0.88,0.29,-380.92,-63.66,189.21
49,1715532447660,1.42,-0.88,0.29,-380.92,-63.66,189.21
50,1715532447670,1.42,-0.88,0.29,-380.92,-63.66,189.21
51,1715532447680,1.42,-0.8800000000000001,0.29,-380.92,-63.65999999999999,189.21
52,1715532447690,1.24,-0.73,0.76,-370.36,-67.44,155.33
53,1715532447700,1.24,-0.73,0.76,-370.36,-67.44,155.33
54,1715532447710,1.24,-0.73,0.76,-370.36,-67.44,155.33
55,1715532447720,2.1175,-0.685,1.63,-384.59499999999997,-130.01999999999998,140.4125
56,1715532447730,2.41,-0.67,1.92,-389.34,-150.88,135.44
57,1715532447740,2.7375000000000003,-0.5025000000000001,2.3475,-336.6825,-146.135,106.4625
58,1715532447750,3.72,0.0,3.63,-178.71,-131.9,19.53
59,1715532447760,3.72,0.0,3.63,-178.71,-131.9,19.53
60,1715532447770,3.72,0.0,3.63,-178.71,-131.9,19.53
61,1715532447780,2.0625,0.41250000000000003,3.0,-88.86500000000001,34.97,-10.805
62,1715532447790,1.51,0.55,2.7900000000000005,0.98,201.84,-41.14
63,1715532447800,1.51,0.55,2.79,0.98,201.84,-41.14
64,1715532447810,1.51,0.55,2.79,0.98,201.84,-41.14
65,1715532447820,1.51,0.55,2.79,0.98,201.84,-41.14
66,1715532447830,1.67,0.30500000000000005,2.5300000000000002,92.195,180.60000000000002,-34.975
67,1715532447840,1.83,0.06,2.27,183.41,159.36,-28.81
68,1715532447850,1.83,0.06,2.27,183.41,159.36,-28.81
69,1715532447860,2.0025,-0.405,1.55,294.74,174.06,-77.695
70,1715532447870,2.06,-0.56,1.31,331.85,178.96,-93.99
71,1715532447880,2.06,-0.56,1.31,331.85,178.96,-93.99
72,1715532447890,2.04,-0.66,1.2175,349.0,160.8925,-102.55
73,1715532447900,1.98,-0.96,0.94,400.45,106.69,-128.23
74,1715532447910,1.98,-0.96,0.94,400.45,106.69,-128.23
75,1715532447920,1.845,-1.025,0.6749999999999999,417.0225,104.935,-142.24
76,1715532447930,1.71,-1.09,0.41,466.74,99.67,-184.27
77,1715532447940,1.71,-1.09,0.41,466.74,99.67,-184.27
78,1715532447950,1.71,-1.09,0.41,466.74,99.67,-184.27
79,1715532447960,1.7100000000000002,-1.09,0.41,466.73999999999995,99.67,-184.27
80,1715532447970,1.71,-1.09,0.41,466.74,99.67,-184.27
81,1715532447980,1.71,-1.09,0.41,466.74,99.67,-184.27
82,1715532447990,1.71,-1.09,0.41,466.74,99.67,-184.27
83,1715532448000,1.71,-1.09,0.41,466.74,99.67,-184.27
84,1715532448010,1.71,-1.09,0.41,466.74,99.67,-184.27
85,1715532448020,1.245,-1.09,0.16499999999999998,436.58500000000004,32.93,-240.635
86,1715532448030,0.708,-1.03,-0.10400000000000001,406.43,-33.81,-297.0
87,1715532448040,0.42,-0.79,-0.2,275.76,-141.66,-216.55
88,1715532448050,0.42,-0.79,-0.20000000000000004,275.76,-141.66,-216.55000000000004
89,1715532448060,0.42,-0.79,-0.2,275.76,-141.66,-216.55
90,1715532448070,0.42,-0.79,-0.2,275.76,-141.66,-216.55
91,1715532448080,1.52,-1.49,0.8,11.11,-123.23,-18.8
92,1715532448090,1.52,-1.49,0.8,11.11,-123.23,-18.8
93,1715532448100,1.5200000000000002,-1.49,0.8000000000000002,11.11,-123.23,-18.8
94,1715532448110,1.2725,-1.4575,0.8400000000000001,-1.4024999999999999,-61.92,0.07499999999999929
95,1715532448120,0.53,-1.36,0.96,-38.94,122.01,56.7
96,1715532448130,0.53,-1.36,0.96,-38.94,122.01000000000002,56.7
97,1715532448140,0.53,-1.36,0.96,-38.94,122.01,56.7
98,1715532448150,0.53,-1.36,0.96,-38.94,122.01,56.70000000000001
99,1715532448160,0.53,-1.36,0.96,-38.94,122.01000000000002,56.7
100,1715532448170,0.53,-1.36,0.96,-38.94,122.01,56.70000000000001
101,1715532448180,0.53,-1.36,0.96,-38.94,122.01,56.7
102,1715532448190,0.53,-1.36,0.96,-38.94,122.01,56.7
103,1715532448200,0.53,-1.36,0.96,-38.94,122.01,56.7
104,1715532448210,0.79,-1.1400000000000001,0.5,-121.275,-0.42499999999999716,150.54
105,1715532448220,1.05,-0.92,0.04,-203.61,-122.86,244.38
106,1715532448230,1.0750000000000002,-0.905,-0.075,-203.61,-122.86,244.38
107,1715532448240,1.1,-0.89,-0.19,-215.24,-77.085,256.345
108,1715532448250,1.1,-0.89,-0.19,-226.87,-31.31,268.31
109,1715532448260,1.1,-0.89,-0.19,-226.87,-31.31,268.31
110,1715532448270,1.0466666666666666,-0.9400000000000001,-0.25333333333333335,-261.25333333333333,-32.836666666666666,248.59666666666666
111,1715532448280,0.94,-1.04,-0.38,-330.02,-35.89,209.17
112,1715532448290,0.94,-1.04,-0.38,-330.02,-35.89,209.17
113,1715532448300,0.94,-1.04,-0.38,-330.02,-35.89,209.17
114,1715532448310,1.045,-1.025,-0.095,-326.9975,-59.83,209.7625
115,1715532448320,1.08,-1.02,0.0,-325.99,-67.81,209.96
116,1715532448330,1.08,-1.02,0.0,-325.99,-67.81,209.96
117,1715532448340,1.2200000000000002,-1.01,0.065,-323.12,-78.735,216.49
118,1715532448350,1.36,-1.0,0.13,-320.25,-89.66000000000001,223.02
119,1715532448360,1.36,-1.0,0.13,-320.25,-89.66,223.02
120,1715532448370,1.36,-1.0,0.13,-320.25,-89.66,223.02
121,1715532448380,2.07,-0.88,0.455,-325.28499999999997,-102.265,211.425
122,1715532448390,2.78,-0.7600000000000001,0.7799999999999999,-330.32,-114.87,199.83
123,1715532448400,2.78,-0.76,0.78,-330.32,-114.87,199.83
124,1715532448410,2.78,-0.76,0.78,-330.32,-114.87,199.83
125,1715532448420,3.2533333333333334,-0.56,1.7333333333333334,-320.06666666666666,-93.95333333333333,167.95000000000002
126,1715532448430,3.49,-0.46,2.21,-299.56,-52.12,104.19
127,1715532448440,3.49,-0.46,2.21,-299.56,-52.12,104.19
128,1715532448450,3.49,-0.46,2.21,-299.56,-52.12,104.19
129,1715532448460,3.49,-0.46,2.21,-299.56,-52.12,104.19
130,1715532448470,3.49,-0.46,2.21,-299.56,-52.12,104.19
131,1715532448480,3.49,-0.46,2.21,-299.56,-52.12,104.19
132,1715532448490,3.49,-0.46,2.21,-299.56,-52.12,104.19
133,1715532448500,3.49,-0.46,2.21,-299.56,-52.12,104.19
134,1715532448510,3.49,-0.46,2.21,-299.56,-52.12,104.19
135,1715532448520,3.49,-0.46,2.21,-299.56,-52.12,104.19
136,1715532448530,3.49,-0.46,2.21,-299.56,-52.12,104.19
137,1715532448540,3.2560000000000002,-0.4,2.0780000000000003,-187.744,-22.054,62.686
138,1715532448550,2.32,-0.16,1.55,259.52,98.21,-103.33
139,1715532448560,2.32,-0.16,1.55,259.52,98.21,-103.33
140,1715532448570,2.1599999999999997,-0.225,1.2925,293.8975,105.015,-125.15
141,1715532448580,1.68,-0.42,0.52,397.03,125.43,-190.61
142,1715532448590,1.6800000000000002,-0.42000000000000004,0.52,397.03,125.43000000000002,-190.61
143,1715532448600,1.68,-0.42,0.52,397.03,125.43,-190.61
144,1715532448610,1.2933333333333332,-0.7799999999999999,0.16666666666666666,397.03,125.43,-190.61
145,1715532448620,1.1,-0.96,-0.01,426.15,125.67,-267.76
146,1715532448630,1.1,-0.96,-0.01,426.15,125.67,-267.76
147,1715532448640,1.1,-0.96,-0.01,426.15,125.67,-267.76
148,1715532448650,1.1,-0.96,-0.01,426.15,125.67,-267.76
149,1715532448660,1.1,-0.96,-0.01,426.15,125.67,-267.76
150,1715532448670,1.1,-0.96,-0.01,426.15,125.67,-267.76
151,1715532448680,1.1,-0.96,-0.01,426.1499999999999,125.67,-267.76
152,1715532448690,1.1,-0.96,-0.01,426.15,125.67,-267.76
153,1715532448700,1.1,-0.96,-0.01,426.15,125.67,-267.76
154,1715532448710,1.1,-0.96,-0.01,426.15,125.67,-267.76
155,1715532448720,1.1,-0.96,-0.01,426.15,125.67,-267.76
156,1715532448730,1.0925,-1.055,-0.0325,426.15,125.67,-267.76
157,1715532448740,0.96,-0.48,-0.10000000000000002,277.1,-62.87,-278.08
158,1715532448750,0.96,-0.48,-0.1,277.1,-62.87,-278.08
159,1715532448760,0.96,-0.48,-0.1,277.1,-62.87,-278.08
160,1715532448770,1.2650000000000001,-0.61,0.21500000000000002,141.63000000000002,-58.415,-201.785
161,1715532448780,1.57,-0.7399999999999999,0.53,6.16,-53.96,-125.49
162,1715532448790,1.57,-0.74,0.53,6.16,-53.96,-125.49
163,1715532448800,1.57,-0.7399999999999999,0.53,6.16,-53.96,-125.49
164,1715532448810,1.06,-0.8375,0.9725000000000001,6.16,-53.96,-125.49
165,1715532448820,0.89,-0.87,1.12,-104.43,188.35,-65.19
166,1715532448830,0.89,-0.87,1.12,-104.43,188.35,-65.19
167,1715532448840,0.7725,-0.8075,0.8825000000000001,-93.0325,202.755,-43.095
168,1715532448850,0.42,-0.62,0.17,-58.84,245.97,23.19
169,1715532448860,0.42,-0.62,0.17,-58.84,245.97,23.19
170,1715532448870,0.42,-0.62,0.17,-58.84,245.97,23.19
171,1715532448880,0.5933333333333334,-0.5333333333333333,0.08333333333333333,-95.01333333333332,39.18333333333334,85.41000000000001
172,1715532448890,0.68,-0.49,0.04,-113.1,-64.21,116.52
173,1715532448900,0.68,-0.49,0.04,-113.1,-64.21,116.52
174,1715532448910,0.68,-0.49,0.04,-113.1,-64.21,116.52
175,1715532448920,0.7600000000000001,-0.68,0.12,-112.24333333333334,-65.83666666666666,145.04333333333332
176,1715532448930,0.76,-0.68,0.12,-110.53,-69.09,202.09
177,1715532448940,0.76,-0.68,0.12,-110.53,-69.09,202.09
178,1715532448950,0.76,-0.68,0.12,-110.53,-69.09,202.09
179,1715532448960,0.34,-0.5,-0.4,-212.1,-26.49,247.68
180,1715532448970,0.34,-0.5,-0.4000000000000001,-212.1,-26.49,247.67999999999998
181,1715532448980,0.34,-0.5,-0.4,-212.1,-26.49,247.68
182,1715532448990,0.34,-0.5,-0.4,-212.1,-26.49,247.68
183,1715532449000,0.34,-0.5,-0.4000000000000001,-212.1,-26.49,247.67999999999998
184,1715532449010,0.34,-0.5,-0.4,-212.1,-26.49,247.68
185,1715532449020,0.34,-0.5,-0.4000000000000001,-212.1,-26.49,247.67999999999998
186,1715532449030,0.34,-0.5,-0.4,-212.1,-26.49,247.68
187,1715532449040,0.34,-0.5,-0.4,-212.1,-26.49,247.68
188,1715532449050,0.34,-0.5,-0.4000000000000001,-212.1,-26.49,247.67999999999998
189,1715532449060,0.34,-0.5,-0.4,-212.1,-26.49,247.68
190,1715532449070,0.7933333333333333,-0.5333333333333333,-0.4666666666666666,-341.5733333333333,-175.53666666666666,150.84
191,1715532449080,1.61,-0.65,0.4,-364.01,-280.88,156.01
192,1715532449090,1.61,-0.65,0.4,-364.01,-280.88,156.01
193,1715532449100,1.61,-0.65,0.4,-364.01,-280.88,156.01
194,1715532449110,2.585,-0.395,0.7649999999999999,-279.41499999999996,-248.685,179.69
195,1715532449120,3.56,-0.14,1.13,-194.82000000000002,-216.49,203.37
196,1715532449130,3.56,-0.14,1.13,-194.82,-216.49,203.37
197,1715532449140,3.56,-0.14,1.13,-194.82,-216.49,203.37
198,1715532449150,3.5066666666666664,-0.013333333333333345,1.3333333333333333,-185.35999999999999,-153.78666666666666,171.28666666666666
199,1715532449160,3.4,0.24,1.74,-166.44,-28.38,107.12
200,1715532449170,3.4,0.24,1.74,-166.44,-28.38,107.12
201,1715532449180,3.4,0.24,1.74,-166.44,-28.38,107.12
202,1715532449190,3.4,0.24,1.74,-166.44,-28.38,107.12
203,1715532449200,3.4,0.24,1.74,-166.44,-28.38,107.12
204,1715532449210,3.4,0.24,1.74,-166.44,-28.38,107.12
205,1715532449220,3.4,0.24,1.74,-166.44,-28.38,107.12
206,1715532449230,3.4,0.24,1.74,-166.44,-28.38,107.12
207,1715532449240,3.4,0.24,1.74,-166.44,-28.38,107.12
208,1715532449250,3.4,0.24,1.74,-166.44,-28.38,107.12
209,1715532449260,2.75,0.4175,1.2475,-15.622500000000002,32.99,10.7425
210,1715532449270,1.55,0.37,0.57,174.87,80.63,-144.9
211,1715532449280,1.55,0.37,0.57,174.87,80.63,-144.9
212,1715532449290,1.55,0.37,0.57,174.87,80.63,-144.9
213,1715532449300,1.55,0.36999999999999994,0.57,174.87,80.63,-144.9
214,1715532449310,0.99,0.4,0.27,196.53,132.39,-201.84
215,1715532449320,0.99,0.4,0.27,196.53,132.39,-201.84
216,1715532449330,0.99,0.4,0.27,196.53,132.39,-201.84
217,1715532449340,0.9375,0.3025,0.23,196.53,132.39,-201.84
218,1715532449350,0.78,0.01,0.11,175.66,194.34,-278.75
219,1715532449360,0.78,0.01,0.11,175.66,194.34,-278.75
220,1715532449370,0.7799999999999999,0.01,0.11,175.66,194.34,-278.75
221,1715532449380,0.67,-0.19999999999999998,-0.015000000000000006,180.42000000000002,211.945,-282.625
222,1715532449390,0.56,-0.41,-0.14,185.18,229.55,-286.5
223,1715532449400,0.56,-0.41,-0.14,185.18,229.55,-286.5
224,1715532449410,0.56,-0.41,-0.14,185.18,229.55,-286.5
225,1715532449420,0.8133333333333334,-0.29,-0.006666666666666672,201.25333333333333,113.95,-294.64
226,1715532449430,0.94,-0.23,0.06,209.29,56.15,-298.71
227,1715532449440,0.94,-0.23,0.06,209.29,56.15,-298.71
228,1715532449450,0.94,-0.23,0.06,209.29,56.15,-298.71
229,1715532449460,1.245,-0.02500000000000001,0.345,185.945,103.21000000000001,-269.26
230,1715532449470,1.55,0.18,0.63,162.6,150.27,-239.81
231,1715532449480,1.55,0.18,0.63,162.6,150.27,-239.81
232,1715532449490,1.55,0.18,0.63,162.6,150.27,-239.81
233,1715532449500,1.4675,-0.33,0.585,109.77,23.880000000000003,-174.395
234,1715532449510,1.44,-0.5,0.57,92.16,-18.25,-152.59
235,1715532449520,1.44,-0.5,0.57,92.16,-18.25,-152.59
236,1715532449530,1.44,-0.5,0.57,92.16,-18.25,-152.59
237,1715532449540,1.44,-0.5,0.57,92.16,-18.25,-152.59
238,1715532449550,1.44,-0.5,0.57,92.16,-18.25,-152.59
239,1715532449560,1.44,-0.5,0.57,92.16,-18.25,-152.59
240,1715532449570,1.44,-0.5,0.57,92.16,-18.25,-152.59
241,1715532449580,1.44,-0.5,0.57,92.16,-18.25,-152.59
242,1715532449590,1.23,-0.5925,0.36749999999999994,83.34,-23.53,-83.69500000000001
243,1715532449600,0.6,-0.87,-0.24,56.88,-39.37,122.99
244,1715532449610,0.6,-0.87,-0.24,56.88,-39.37,122.99
245,1715532449620,0.74,-1.02,-0.02,-17.64,-82.52,216.37
246,1715532449630,0.74,-1.02,-0.02,-17.64,-82.52,216.37
247,1715532449640,0.74,-1.02,-0.02,-17.64,-82.52,216.37
248,1715532449650,0.7399999999999999,-1.02,-0.02,-17.64,-82.52,216.37
249,1715532449660,0.86,-0.69,-0.28,-127.26,41.87,294.68
250,1715532449670,0.86,-0.69,-0.28,-127.26,41.87,294.68
251,1715532449680,0.86,-0.69,-0.28,-127.26,41.87,294.68
252,1715532449690,0.8225,-0.6799999999999999,-0.2675,-149.3075,33.1575,291.245
253,1715532449700,0.71,-0.65,-0.23,-215.45,7.02,280.94
254,1715532449710,0.71,-0.65,-0.23,-215.45,7.02,280.94
255,1715532449720,0.71,-0.65,-0.23,-215.44999999999996,7.02,280.94
256,1715532449730,0.71,-0.65,-0.23,-215.45,7.02,280.94
257,1715532449740,0.71,-0.65,-0.23000000000000004,-215.45,7.019999999999999,280.94
258,1715532449750,0.71,-0.65,-0.23,-215.44999999999996,7.02,280.94
259,1715532449760,0.71,-0.65,-0.23,-215.45,7.02,280.94
260,1715532449770,0.71,-0.65,-0.23,-215.45,7.02,280.94
261,1715532449780,0.71,-0.65,-0.23,-215.45,7.02,280.94
262,1715532449790,0.87,-0.43,-0.13,-278.02,-65.61,202.51
263,1715532449800,0.87,-0.43,-0.13,-278.02,-65.61,202.51
264,1715532449810,1.075,-0.4425,-0.007500000000000007,-286.1825,-74.475,200.665
265,1715532449820,1.69,-0.48,0.36,-310.67,-101.07,195.13
266,1715532449830,1.69,-0.48,0.36,-310.67,-101.07,195.13
267,1715532449840,1.69,-0.48,0.36,-310.67,-101.07,195.13
268,1715532449850,2.95,-0.27,1.0875,-331.22,-53.835,179.2
269,1715532449860,3.37,-0.2,1.33,-338.07,-38.09,173.89
270,1715532449870,3.37,-0.2,1.33,-338.07,-38.09,173.89
271,1715532449880,3.37,-0.2,1.33,-338.07,-38.09,173.89
272,1715532449890,3.0324999999999998,-0.08,1.6225,-229.95,-38.225,88.74249999999999
273,1715532449900,2.92,-0.04,1.72,-193.91,-38.27,60.36
274,1715532449910,2.92,-0.04,1.72,-193.91,-38.27,60.35999999999999
275,1715532449920,2.835,0.037500000000000006,1.815,-172.96,-24.277500000000003,59.8425
276,1715532449930,2.58,0.27,2.1,-110.11,17.7,58.29
277,1715532449940,2.58,0.27,2.1,-110.11,17.7,58.29
278,1715532449950,2.58,0.27,2.1,-110.11,17.7,58.29
279,1715532449960,2.52,0.305,1.995,-55.7725,23.865,37.98
280,1715532449970,2.34,0.41,1.68,107.24,42.36,-22.95
281,1715532449980,2.34,0.41,1.68,107.24,42.36,-22.95
282,1715532449990,2.34,0.41,1.68,107.24,42.36,-22.95
283,1715532450000,2.185,0.38249999999999995,1.5225,142.4425,37.2025,-41.6275
284,1715532450010,1.72,0.3,1.05,248.05,21.73,-97.66
285,1715532450020,1.72,0.3,1.05,248.05,21.73,-97.66
286,1715532450030,1.72,0.3,1.05,248.05,21.73,-97.66
287,1715532450040,1.72,0.3,1.05,248.05,21.73,-97.66
288,1715532450050,1.72,0.3,1.05,248.05,21.73,-97.66
289,1715532450060,1.72,0.3,1.05,248.05000000000004,21.73,-97.66000000000001
290,1715532450070,1.72,0.3,1.05,248.05000000000004,21.73,-97.66000000000001
291,1715532450080,1.72,0.3,1.05,248.05,21.73,-97.66
292,1715532450090,1.72,0.3,1.05,248.05000000000004,21.73,-97.66000000000001
293,1715532450100,1.72,0.3,1.05,248.05000000000004,21.73,-97.66000000000001
294,1715532450110,1.72,0.3,1.05,248.05,21.73,-97.66
295,1715532450120,1.16,-0.6466666666666666,0.07,323.26666666666665,100.99666666666667,-268.4533333333333
296,1715532450130,1.21,-0.67,0.05,306.34,117.06999999999998,-306.46
297,1715532450140,1.21,-0.67,0.05000000000000001,306.34,117.07,-306.46
298,1715532450150,1.21,-0.67,0.05,306.34,117.06999999999998,-306.46
299,1715532450160,1.002,-0.55,-0.094,268.49199999999996,121.854,-320.956
300,1715532450170,0.9499999999999998,-0.52,-0.13,259.03,123.05,-324.58
301,1715532450180,0.95,-0.52,-0.13,259.03,123.05,-324.58
302,1715532450190,0.95,-0.52,-0.13,259.03,123.05,-324.58
303,1715532450200,0.89,-0.06,-0.08,168.502,59.522000000000006,-261.788
304,1715532450210,0.89,-0.06,-0.08,145.87,43.64,-246.09
305,1715532450220,0.89,-0.06,-0.08,145.87,43.64,-246.09
306,1715532450230,0.89,-0.06,-0.08,145.87,43.64,-246.09
307,1715532450240,0.89,-0.06,-0.08,145.87,43.64,-246.09
308,1715532450250,0.89,-0.06,-0.08,145.87,43.64,-246.09
309,1715532450260,0.89,-0.06,-0.08,145.87,43.64,-246.09
310,1715532450270,0.89,-0.06,-0.08,145.87,43.64,-246.09
311,1715532450280,0.89,-0.06,-0.08,145.87,43.64,-246.09
312,1715532450290,0.89,-0.06,-0.08,145.87,43.64,-246.09
313,1715532450300,0.89,-0.06,-0.08,145.87,43.64,-246.09
314,1715532450310,0.7100000000000001,-0.605,0.4,-6.412499999999998,25.9825,-92.985
315,1715532450320,0.46,-0.82,0.32,-44.56,73.97,90.21
316,1715532450330,0.46,-0.82,0.32,-44.56,73.97,90.21
317,1715532450340,0.4600000000000001,-0.82,0.32,-44.56,73.97,90.21
318,1715532450350,0.5399999999999999,-0.82,0.17333333333333334,-54.97666666666667,55.946666666666665,126.36333333333333
319,1715532450360,0.58,-0.82,0.1,-75.81,19.9,198.67
320,1715532450370,0.58,-0.82,0.1,-75.81,19.9,198.67
321,1715532450380,0.605,-0.815,0.060000000000000005,-69.645,-2.1350000000000016,209.77999999999997
322,1715532450390,0.63,-0.81,0.02,-63.48,-24.17,220.89
323,1715532450400,0.63,-0.81,0.02,-63.48,-24.17,220.89
324,1715532450410,0.63,-0.81,0.02,-63.48,-24.17,220.89
325,1715532450420,0.43,-0.67,-0.08,-81.285,-26.2775,231.23250000000002
326,1715532450430,0.43,-0.67,-0.08,-87.22,-26.98,234.68
327,1715532450440,0.43,-0.67,-0.08,-87.22,-26.98,234.68
328,1715532450450,0.43,-0.67,-0.08,-87.22,-26.98,234.68
329,1715532450460,0.3,-0.34,-0.31,-133.61,-11.05,228.03
330,1715532450470,0.3,-0.34,-0.31,-133.61,-11.05,228.03
331,1715532450480,0.3,-0.34,-0.31,-133.61,-11.05,228.03
332,1715532450490,0.3,-0.32,-0.44,-188.84,-46.2,213.44
333,1715532450500,0.3,-0.32,-0.44,-188.84,-46.2,213.44
334,1715532450510,0.3,-0.32,-0.44,-188.84,-46.2,213.44
335,1715532450520,0.4375,-0.42,-0.3925,-217.33,-57.980000000000004,217.1325
336,1715532450530,0.85,-0.72,-0.25,-302.8,-93.32,228.21
337,1715532450540,0.85,-0.72,-0.25,-302.8,-93.32,228.21
338,1715532450550,0.85,-0.72,-0.25,-302.8,-93.32,228.21
339,1715532450560,0.85,-0.72,-0.25,-302.8,-93.32,228.21
340,1715532450570,0.85,-0.72,-0.25,-302.8,-93.32,228.21
341,1715532450580,0.85,-0.72,-0.25,-302.8,-93.32,228.21
342,1715532450590,0.85,-0.72,-0.25,-302.8,-93.32,228.21
343,1715532450600,0.85,-0.7200000000000001,-0.25,-302.8,-93.32,228.21
344,1715532450610,0.85,-0.72,-0.25,-302.8,-93.32,228.21
345,1715532450620,0.85,-0.72,-0.25,-302.8,-93.32,228.21
346,1715532450630,0.85,-0.7200000000000001,-0.25,-302.8,-93.32,228.21
347,1715532450640,2.415,-0.215,0.975,-225.65,3.1750000000000043,166.625
348,1715532450650,2.94,0.33,1.76,-148.5,99.67,105.04
349,1715532450660,2.94,0.33,1.76,-148.5,99.67,105.04
350,1715532450670,2.94,0.33,1.76,-148.5,99.67,105.04
351,1715532450680,2.7533333333333334,0.4633333333333334,1.8133333333333335,-38.76,80.05666666666667,52.75333333333333
352,1715532450690,2.66,0.53,1.84,16.11,70.25,26.61
353,1715532450700,2.66,0.53,1.84,16.11,70.25,26.61
354,1715532450710,2.66,0.53,1.84,16.11,70.25,26.61
355,1715532450720,1.62,0.5,1.32,169.86,67.99,-57.19
356,1715532450730,1.62,0.5,1.32,169.86,67.99,-57.19
357,1715532450740,1.62,0.5,1.32,169.86,67.99,-57.19
358,1715532450750,1.6200000000000003,0.5,1.32,169.86,67.99,-57.19
359,1715532450760,1.62,0.5,1.32,169.86,67.99,-57.19
360,1715532450770,1.62,0.5,1.32,169.86,67.99,-57.19
361,1715532450780,1.62,0.5,1.32,169.86,67.99,-57.19
362,1715532450790,1.62,0.5,1.32,169.86,67.99,-57.19
363,1715532450800,1.62,0.5,1.32,169.86,67.99,-57.19
364,1715532450810,1.62,0.5,1.32,169.86,67.99,-57.19
365,1715532450820,1.62,0.5,1.32,169.86,67.99,-57.19
366,1715532450830,0.935,0.007500000000000007,0.805,251.31,31.249999999999996,-139.65
367,1715532450840,0.16,-0.61,0.16,373.7,20.263333333333332,-233.83
368,1715532450850,0.16,-0.61,0.16,394.17,33.14,-239.69
369,1715532450860,0.16,-0.61,0.16,394.17,33.14,-239.69
370,1715532450870,0.34,-0.33499999999999996,-0.009999999999999995,366.275,42.265,-223.56
371,1715532450880,0.52,-0.06,-0.18,282.59,69.64,-175.17
372,1715532450890,0.52,-0.06,-0.18,282.59,69.64,-175.17
373,1715532450900,0.52,-0.06,-0.18,282.59,69.64,-175.17
374,1715532450910,1.5925,0.43499999999999994,0.5025,195.2525,20.98,-199.5675
375,1715532450920,1.95,0.6,0.73,166.14,4.76,-207.7
376,1715532450930,1.95,0.6,0.73,166.14,4.76,-207.7
377,1715532450940,1.95,0.6,0.73,166.14,4.76,-207.69999999999996
378,1715532450950,2.49,0.029999999999999992,0.8875,164.0775,-70.8625,-294.445
379,1715532450960,2.67,-0.16,0.94,163.39,-96.07,-323.36
380,1715532450970,2.67,-0.16,0.94,163.39,-96.07,-323.36
381,1715532450980,2.395,-0.4325,0.9125,163.39,-96.07,-323.36
382,1715532450990,1.57,-1.25,0.83,21.18,-29.540000000000003,-278.69
383,1715532451000,1.57,-1.25,0.83,21.18,-29.54,-278.69
384,1715532451010,1.57,-1.25,0.83,21.18,-29.54,-278.69
385,1715532451020,1.1925000000000001,-1.2225,0.7075,12.01,-20.14,-225.2825
386,1715532451030,0.06,-1.14,0.34,-15.5,8.06,-65.06
387,1715532451040,0.06,-1.14,0.34,-15.5,8.06,-65.06
388,1715532451050,0.06,-1.14,0.34,-15.5,8.06,-65.06
389,1715532451060,0.14,-1.14,0.35,-38.2675,1.375,-11.060000000000002
390,1715532451070,0.22,-1.14,0.36,-106.57,-18.68,150.94
391,1715532451080,0.22,-1.14,0.36,-106.57,-18.68,150.94
392,1715532451090,0.22,-1.14,0.36,-106.57,-18.68,150.94
393,1715532451100,0.22,-1.14,0.36,-106.57,-18.68,150.94
394,1715532451110,0.22000000000000003,-1.14,0.36,-106.56999999999998,-18.68,150.94
395,1715532451120,0.22,-1.14,0.36,-106.57,-18.68,150.94
396,1715532451130,0.22,-1.14,0.36,-106.57,-18.68,150.94
397,1715532451140,0.22,-1.14,0.36,-106.57,-18.68,150.94
398,1715532451150,0.22,-1.14,0.36000000000000004,-106.57,-18.68,150.94
399,1715532451160,0.22,-1.14,0.36,-106.57,-18.68,150.94
400,1715532451170,0.75,-0.57,-0.42,-132.26,48.1,347.11
401,1715532451180,0.7200000000000001,-0.24,-0.4000000000000001,-152.0,-23.393333333333334,281.7166666666667
402,1715532451190,0.72,-0.24,-0.4,-161.87,-59.14,249.02000000000004
403,1715532451200,0.7200000000000001,-0.24,-0.4000000000000001,-161.87,-59.14000000000001,249.02
404,1715532451210,0.72,-0.24,-0.4,-161.87,-59.14,249.02
405,1715532451220,0.84,-0.33,-0.21,-172.49,-76.89999999999999,206.03750000000002
406,1715532451230,0.84,-0.33,-0.21,-176.03,-82.82,191.71
407,1715532451240,0.84,-0.33,-0.21,-176.03,-82.82,191.71
408,1715532451250,0.8875,-0.3425,-0.205,-191.10500000000002,-70.615,193.22
409,1715532451260,1.03,-0.38,-0.19,-236.33,-34.0,197.75
410,1715532451270,1.03,-0.38,-0.19,-236.33,-34.0,197.75
411,1715532451280,1.03,-0.38,-0.19,-236.33,-34.0,197.75
412,1715532451290,1.03,-0.38,-0.19,-236.33,-34.0,197.75
413,1715532451300,1.03,-0.38,-0.19,-236.33,-34.0,197.75
414,1715532451310,1.03,-0.38,-0.19,-236.33,-34.0,197.75
415,1715532451320,1.03,-0.38,-0.19,-236.33,-34.0,197.75
416,1715532451330,1.03,-0.38,-0.19,-236.33,-34.0,197.75
417,1715532451340,1.03,-0.38,-0.19,-236.33,-34.0,197.75
418,1715532451350,1.03,-0.38,-0.19,-236.33,-34.0,197.75
419,1715532451360,3.71,-0.1,1.41,-313.78,-15.01,143.92
420,1715532451370,2.9299999999999997,0.3125,1.71,-273.8175,-4.084999999999999,115.7225
421,1715532451380,2.67,0.45,1.8099999999999998,-153.93,28.69,31.13
422,1715532451390,2.67,0.45,1.81,-153.93,28.690000000000005,31.130000000000003
423,1715532451400,2.67,0.45,1.8099999999999998,-153.93,28.69,31.13
424,1715532451410,2.59,0.605,1.69,-127.7,38.6225,30.03
425,1715532451420,2.51,0.76,1.57,-49.01,68.42,26.73
426,1715532451430,2.51,0.76,1.57,-49.01,68.42,26.73
427,1715532451440,2.51,0.76,1.57,-49.01,68.42,26.73
428,1715532451450,2.285,0.6925,1.3675000000000002,56.7325,48.597500000000004,-59.8275
429,1715532451460,2.21,0.67,1.3,91.98,41.99,-88.68
430,1715532451470,2.21,0.67,1.3,91.98,41.99,-88.68
431,1715532451480,2.21,0.67,1.3,91.98,41.99,-88.68
432,1715532451490,1.37,0.18,0.86,189.09,79.83,-168.7
433,1715532451500,1.37,0.18000000000000002,0.86,189.09,79.83,-168.7
434,1715532451510,1.37,0.18,0.86,189.09,79.83,-168.7
435,1715532451520,1.2066666666666668,0.02,0.73,189.09,79.83,-168.7
436,1715532451530,0.88,-0.3,0.47,267.58,103.58,-219.79
437,1715532451540,0.8800000000000001,-0.3,0.4699999999999999,267.58,103.58,-219.79000000000002
438,1715532451550,0.88,-0.3,0.47,267.58,103.58,-219.79
439,1715532451560,0.8333333333333334,-0.48333333333333334,0.36999999999999994,285.4433333333333,104.8,-240.72333333333333
440,1715532451570,0.74,-0.85,0.17,321.17,107.24,-282.59
441,1715532451580,0.74,-0.85,0.17,321.17,107.24,-282.59
442,1715532451590,0.74,-0.85,0.17,321.17,107.24,-282.59
443,1715532451600,0.74,-0.85,0.17,321.17,107.24,-282.59
444,1715532451610,0.7399999999999999,-0.85,0.17,321.17,107.24,-282.59
445,1715532451620,0.74,-0.85,0.17,321.17,107.24,-282.59
446,1715532451630,0.74,-0.85,0.17,321.17,107.24,-282.59
447,1715532451640,0.74,-0.85,0.17,321.17,107.24,-282.59
448,1715532451650,0.74,-0.85,0.17,321.17,107.24,-282.59
449,1715532451660,0.74,-0.85,0.17,321.17,107.24,-282.59
450,1715532451670,0.74,-0.85,0.17,321.17,107.24,-282.59
451,1715532451680,0.74,-0.85,0.17,321.17,107.24,-282.59
452,1715532451690,0.7949999999999999,-0.175,0.21000000000000002,236.54500000000002,84.38,-234.85999999999999
453,1715532451700,0.85,0.5,0.25,151.92,61.52,-187.13
454,1715532451710,0.85,0.5,0.25,151.92,61.52,-187.13
455,1715532451720,1.82,-0.07,1.19,122.71499999999999,28.057500000000005,-158.8725
456,1715532451730,1.82,-0.07,1.19,35.1,-72.33,-74.1
457,1715532451740,1.82,-0.07,1.19,35.1,-72.33,-74.1
458,1715532451750,1.6625,-0.1825,1.125,35.1,-72.33,-74.1
459,1715532451760,1.19,-0.52,0.93,45.81,67.155,-36.6975
460,1715532451770,1.19,-0.52,0.93,49.38,113.65,-24.23
461,1715532451780,1.19,-0.52,0.93,49.38,113.65,-24.23
462,1715532451790,0.745,-0.5800000000000001,0.365,40.4375,113.025,3.3874999999999993
463,1715532451800,0.3,-0.64,-0.2,13.61,111.15,86.24
464,1715532451810,0.3,-0.64,-0.2,13.61,111.15,86.24
465,1715532451820,0.3,-0.64,-0.2,13.61,111.15,86.24
466,1715532451830,0.3,-0.64,-0.2,13.61,111.15,86.24
467,1715532451840,0.3,-0.64,-0.2,13.61,111.15,86.24
468,1715532451850,0.3,-0.64,-0.2,13.61,111.15,86.24
469,1715532451860,0.3,-0.64,-0.2,13.61,111.15,86.24
470,1715532451870,0.3,-0.64,-0.2,13.61,111.15,86.24
471,1715532451880,0.385,-0.64,-0.185,-71.96000000000001,74.07000000000001,159.15
472,1715532451890,0.47,-0.64,-0.17,-157.53,36.99,232.06
473,1715532451900,0.47,-0.64,-0.17,-157.53,36.99,232.06000000000003
474,1715532451910,0.41000000000000003,-0.4825,-0.20750000000000002,-174.7875,37.08,228.1525
475,1715532451920,0.39,-0.43,-0.22,-226.56,37.35,216.43
476,1715532451930,0.39,-0.43,-0.22,-226.56,37.35,216.43
477,1715532451940,0.39,-0.43,-0.22,-226.56,37.35,216.43
478,1715532451950,0.38999999999999996,-0.44,-0.25,-211.85,-12.449999999999998,169.8
479,1715532451960,0.39,-0.44000000000000006,-0.25,-211.85,-12.45,169.8
480,1715532451970,0.38999999999999996,-0.44,-0.25,-211.85,-12.449999999999998,169.8
481,1715532451980,0.39,-0.44,-0.25,-211.85,-12.45,169.8
482,1715532451990,0.62,-0.66,-0.22,-250.79,-16.48,156.49
483,1715532452000,0.62,-0.66,-0.22,-250.79,-16.48,156.49
484,1715532452010,0.62,-0.66,-0.22,-250.79,-16.48,156.49
485,1715532452020,0.8325,-0.8825000000000001,-0.13,-250.79,-16.48,156.49
486,1715532452030,1.47,-1.55,0.14,-393.68,-48.83,250.49
487,1715532452040,1.47,-1.55,0.14,-393.68,-48.83,250.49
488,1715532452050,1.47,-1.55,0.14,-393.68,-48.83,250.49
489,1715532452060,2.9899999999999998,-1.48,1.225,-393.68,-48.83,250.49
490,1715532452070,4.51,-1.41,2.31,-356.87,-195.62,213.81
491,1715532452080,4.51,-1.41,2.31,-356.87,-195.62,213.81
492,1715532452090,4.51,-1.41,2.31,-356.87,-195.62,213.81
493,1715532452100,3.2424999999999997,-0.765,1.9874999999999998,-260.955,-50.54,165.805
494,1715532452110,2.82,-0.55,1.88,-165.04,94.54,117.8
495,1715532452120,2.82,-0.55,1.88,-165.04,94.54,117.8
496,1715532452130,2.82,-0.55,1.88,-165.04,94.54,117.8
497,1715532452140,2.82,-0.55,1.88,-165.04,94.54,117.8
498,1715532452150,2.82,-0.55,1.88,-165.04,94.54,117.8
499,1715532452160,2.82,-0.55,1.88,-165.04,94.54,117.8
500,1715532452170,2.82,-0.55,1.88,-165.04,94.54,117.8
501,1715532452180,2.82,-0.55,1.88,-165.04,94.54,117.8
502,1715532452190,2.82,-0.55,1.88,-165.04,94.54,117.8
503,1715532452200,2.82,-0.55,1.88,-165.04,94.54,117.8
504,1715532452210,2.3975,-0.20750000000000005,1.63,-105.9275,73.21000000000001,88.22749999999999
505,1715532452220,1.13,0.82,0.88,132.29500000000002,12.33,-51.515
506,1715532452230,1.13,0.82,0.88,193.17999999999998,15.44,-102.54
507,1715532452240,1.13,0.82,0.88,193.18,15.44,-102.54
508,1715532452250,1.04,0.7174999999999999,0.8325,198.49,30.47,-118.79
509,1715532452260,0.77,0.41,0.69,214.42,75.56,-167.54
510,1715532452270,0.77,0.41,0.69,214.42,75.56,-167.54
511,1715532452280,0.77,0.41,0.69,214.42,75.56,-167.54
512,1715532452290,0.7250000000000001,0.07499999999999998,0.6499999999999999,214.42,75.56,-167.54
513,1715532452300,0.68,-0.26,0.61,274.72,119.57,-222.47
514,1715532452310,0.68,-0.26,0.61,274.72,119.57,-222.47
515,1715532452320,0.68,-0.26,0.61,274.72,119.57,-222.47
516,1715532452330,0.68,-0.26,0.61,274.72,119.56999999999998,-222.46999999999997
517,1715532452340,0.68,-0.26,0.61,274.72,119.57,-222.47
518,1715532452350,0.68,-0.26,0.61,274.72,119.57,-222.47
519,1715532452360,0.68,-0.26,0.61,274.72,119.57,-222.47
520,1715532452370,0.68,-0.26,0.61,274.72,119.57,-222.47
521,1715532452380,0.68,-0.26,0.61,274.72,119.57,-222.47
522,1715532452390,0.68,-0.26,0.61,274.72,119.57,-222.47
523,1715532452400,0.68,-0.26,0.61,274.72,119.57,-222.47
524,1715532452410,1.61,-0.24,0.92,308.23,-13.98,-311.83
525,1715532452420,1.8099999999999998,-0.03,0.86,248.41,33.33,-333.13
526,1715532452430,1.81,-0.03,0.86,248.41,33.33,-333.13
527,1715532452440,1.81,-0.03,0.86,248.41,33.33,-333.13
528,1715532452450,1.99,-0.79,0.86,101.81,-70.43,-240.78
529,1715532452460,1.99,-0.79,0.86,101.81,-70.43,-240.78
530,1715532452470,1.99,-0.79,0.86,101.81,-70.43,-240.78
531,1715532452480,1.99,-0.79,0.86,101.81,-70.43,-240.78
532,1715532452490,1.99,-0.79,0.86,101.81,-70.43,-240.78
533,1715532452500,1.99,-0.79,0.86,101.81,-70.43,-240.78
534,1715532452510,1.99,-0.79,0.86,101.81,-70.43,-240.78
535,1715532452520,1.99,-0.79,0.86,101.81,-70.43,-240.78
536,1715532452530,1.245,-1.025,0.675,78.615,-54.745000000000005,-159.39
537,1715532452540,0.13,-1.29,0.22,9.03,-7.69,84.78
538,1715532452550,0.13,-1.29,0.22000000000000003,9.03,-7.69,84.78
539,1715532452560,0.22333333333333336,-1.1166666666666667,0.13333333333333333,0.7699999999999999,-33.083333333333336,179.99333333333334
540,1715532452570,0.27,-1.03,0.09,-3.36,-45.78,227.6
541,1715532452580,0.27,-1.03,0.09,-3.36,-45.78,227.6
542,1715532452590,0.27,-1.03,0.09,-3.36,-45.78,227.6
543,1715532452600,0.27,-1.03,0.09,-3.36,-45.78,227.6
544,1715532452610,0.27,-1.03,0.09,-3.36,-45.78,227.6
545,1715532452620,0.16333333333333333,-1.0166666666666666,-0.26333333333333336,-52.473333333333336,-22.706666666666667,274.06666666666666
546,1715532452630,0.11,-1.01,-0.44,-77.03,-11.17,297.3
547,1715532452640,0.7,-0.99,-0.39,-247.13,-23.32,340.52
548,1715532452650,0.6999999999999998,-0.9899999999999999,-0.38999999999999996,-247.13,-23.320000000000004,340.52
549,1715532452660,0.7,-0.99,-0.39,-247.13000000000002,-23.32,340.52
550,1715532452670,0.7,-0.99,-0.39,-247.13,-23.32,340.52
551,1715532452680,0.6999999999999998,-0.9899999999999999,-0.38999999999999996,-247.13,-23.320000000000004,340.52
552,1715532452690,0.7,-0.99,-0.39,-247.13000000000002,-23.32,340.52
553,1715532452700,0.6999999999999998,-0.9899999999999999,-0.38999999999999996,-247.13,-23.320000000000004,340.52
554,1715532452710,0.7,-0.99,-0.39,-247.13,-23.32,340.52
555,1715532452720,0.7,-0.99,-0.39,-247.13,-23.32,340.52
556,1715532452730,0.6999999999999998,-0.9899999999999999,-0.38999999999999996,-247.13,-23.320000000000004,340.52
557,1715532452740,1.3375,-0.6375,-0.17250000000000001,-256.7,-36.317499999999995,241.3175
558,1715532452750,1.55,-0.52,-0.10000000000000002,-259.89,-40.65,208.25
559,1715532452760,1.55,-0.5,-0.04,-307.13,-26.92,173.22
560,1715532452770,1.55,-0.5,-0.04,-307.13,-26.92,173.22
561,1715532452780,1.55,-0.5,-0.04,-307.13,-26.92,173.22
562,1715532452790,2.555,-0.62,0.5,-311.9825,-97.2325,179.8125
563,1715532452800,2.89,-0.66,0.68,-313.6,-120.67,182.01
564,1715532452810,2.89,-0.66,0.68,-313.6,-120.67,182.01
565,1715532452820,2.89,-0.66,0.68,-313.6,-120.67,182.01
566,1715532452830,3.4825,-0.4575,1.8649999999999998,-204.01,-45.82,141.585
567,1715532452840,3.68,-0.39,2.26,-167.48,-20.87,128.11
568,1715532452850,3.68,-0.38999999999999996,2.26,-167.48,-20.87,128.11
569,1715532452860,3.68,-0.39,2.26,-167.48,-20.87,128.11
570,1715532452870,3.68,-0.39,2.26,-167.48,-20.87,128.11
571,1715532452880,3.68,-0.39,2.26,-167.48,-20.87,128.11
572,1715532452890,3.68,-0.39,2.26,-167.48,-20.87,128.11
573,1715532452900,3.68,-0.39,2.26,-167.48,-20.87,128.11
574,1715532452910,3.68,-0.39,2.26,-167.48,-20.87,128.11
575,1715532452920,3.68,-0.39,2.26,-167.48,-20.87,128.11
576,1715532452930,2.675,0.0975,1.945,40.0225,19.592499999999998,9.505000000000003
577,1715532452940,2.34,0.26,1.84,109.19,33.08,-30.03
578,1715532452950,1.7775,0.245,1.33,170.7125,72.5375,-86.4225
579,1715532452960,1.59,0.24,1.16,191.22,85.69,-105.22
580,1715532452970,1.59,0.24,1.16,191.22,85.69,-105.22
581,1715532452980,1.59,0.24,1.16,191.22,85.69,-105.22
582,1715532452990,1.2974999999999999,0.345,0.89,250.7775,68.065,-172.32999999999998
583,1715532453000,1.2,0.38,0.8,270.63,62.19,-194.7
584,1715532453010,1.2,0.38,0.8,270.63,62.19,-194.7
585,1715532453020,0.8466666666666667,-0.3266666666666667,0.82,277.40333333333336,70.22666666666667,-224.62666666666667
586,1715532453030,0.67,-0.68,0.83,290.95,86.3,-284.48
587,1715532453040,0.67,-0.68,0.83,290.95,86.3,-284.48
588,1715532453050,0.67,-0.68,0.83,290.95,86.3,-284.48
589,1715532453060,0.8379999999999999,-0.8720000000000001,0.35,333.214,109.54400000000001,-278.6
590,1715532453070,0.95,-1.0,0.03,396.61,144.41,-269.78
591,1715532453080,0.9499999999999998,-1.0,0.03,396.60999999999996,144.41,-269.78
592,1715532453090,0.95,-1.0,0.03,396.61,144.41,-269.78
593,1715532453100,1.6475,-0.3925,-0.14250000000000002,315.21999999999997,77.6675,-277.055
594,1715532453110,1.88,-0.19,-0.2,288.09,55.42,-279.48
595,1715532453120,1.88,-0.19,-0.2,288.09,55.42,-279.48
596,1715532453130,1.88,-0.19,-0.2,288.09,55.42,-279.48
597,1715532453140,2.0,-0.2425,0.31,210.58499999999998,31.48,-316.425
598,1715532453150,2.04,-0.26,0.48,184.75,23.5,-328.74
599,1715532453160,2.04,-0.26,0.48,184.75,23.5,-328.74
600,1715532453170,2.04,-0.26,0.48,184.75,23.5,-328.74
601,1715532453180,2.04,-0.26,0.48,184.75,23.5,-328.74
602,1715532453190,2.04,-0.26,0.48,184.75,23.5,-328.74
603,1715532453200,2.04,-0.26,0.48,184.75,23.5,-328.74
604,1715532453210,2.04,-0.26,0.48,184.75,23.5,-328.74
605,1715532453220,2.04,-0.26,0.48,184.75,23.5,-328.74
606,1715532453230,2.04,-0.26,0.48,184.75,23.5,-328.74
607,1715532453240,2.04,-0.26,0.48,184.75,23.5,-328.74
608,1715532453250,2.04,-0.26,0.48,184.75,23.5,-328.74
609,1715532453260,1.4725,-0.5425,0.32499999999999996,136.7925,5.859999999999999,-241.07750000000001
610,1715532453270,-0.23,-1.39,-0.14,-7.08,-47.06,21.91
611,1715532453280,-0.23,-1.39,-0.14,-7.08,-47.06,21.91
612,1715532453290,-0.14,-1.3275,-0.10750000000000001,-18.935000000000002,-74.70750000000001,74.385
613,1715532453300,0.13,-1.14,-0.01,-54.5,-157.65,231.81000000000003
614,1715532453310,0.13,-1.14,-0.01,-54.5,-157.65,231.81
615,1715532453320,0.13,-1.14,-0.01,-54.5,-157.65,231.81
616,1715532453330,0.5125,-1.23,0.07250000000000001,-78.705,-92.375,312.99
617,1715532453340,0.64,-1.26,0.1,-102.91,-27.1,394.17
618,1715532453350,0.64,-1.26,0.10000000000000002,-102.91000000000001,-27.100000000000005,394.17
619,1715532453360,0.64,-1.26,0.1,-102.91,-27.1,394.17
620,1715532453370,0.7949999999999999,-1.185,-0.15499999999999997,-102.91,-27.1,394.17
621,1715532453380,0.95,-1.11,-0.41,-102.91,-27.1,394.17
622,1715532453390,0.95,-1.11,-0.41,-102.91,-27.1,394.17
623,1715532453400,0.9499999999999998,-1.11,-0.41,-102.91000000000001,-27.100000000000005,394.17
624,1715532453410,0.95,-1.11,-0.41,-102.91,-27.1,394.17
625,1715532453420,0.9499999999999998,-1.11,-0.41,-102.91000000000001,-27.100000000000005,394.17
626,1715532453430,0.95,-1.11,-0.41,-102.91,-27.1,394.17
627,1715532453440,0.95,-1.11,-0.41,-102.91,-27.1,394.17
628,1715532453450,1.0125,-1.1,-0.3725,-136.295,-38.910000000000004,389.7125
629,1715532453460,1.46,-0.84,-0.2,-234.74,-102.29,319.89
630,1715532453470,1.46,-0.84,-0.20000000000000004,-234.74,-102.29,319.89
631,1715532453480,1.5074999999999998,-0.86,-0.10750000000000001,-234.74,-102.29,319.89
632,1715532453490,1.65,-0.92,0.17,-264.815,-123.67250000000001,303.135
633,1715532453500,1.65,-0.92,0.17,-274.84,-130.8,297.55
634,1715532453510,1.65,-0.92,0.17,-274.84,-130.8,297.55
635,1715532453520,2.13,-0.88,0.46,-274.84,-130.8,297.55
636,1715532453530,3.09,-0.8,1.04,-276.25,-47.73,275.09
637,1715532453540,3.09,-0.8,1.04,-276.25,-47.73,275.09
638,1715532453550,3.09,-0.8,1.04,-276.25,-47.73,275.09
639,1715532453560,3.09,-0.8,1.04,-276.25,-47.73,275.09
640,1715532453570,3.51,-0.68,1.5,-300.6,44.37,112.55
641,1715532453580,3.51,-0.68,1.5,-300.6,44.37,112.55
642,1715532453590,3.51,-0.68,1.5,-300.6,44.37,112.55
643,1715532453600,2.9349999999999996,-0.405,1.5550000000000002,-233.705,77.145,61.495
644,1715532453610,2.36,-0.13,1.61,-166.81,109.92,10.44
645,1715532453620,2.36,-0.13,1.61,-166.81,109.92,10.44
646,1715532453630,2.36,-0.13,1.61,-166.81,109.92,10.44
647,1715532453640,2.57,0.11,1.79,-101.68,177.37,9.34
648,1715532453650,2.57,0.11,1.79,-101.68,177.37,9.34
649,1715532453660,2.57,0.11,1.79,-101.68,177.37,9.34
650,1715532453670,2.57,0.11,1.79,-101.68,177.37,9.34
651,1715532453680,2.33,-0.35,1.42,101.07,155.4,-89.48
652,1715532453690,2.33,-0.35,1.42,101.07,155.4,-89.48
653,1715532453700,2.33,-0.35,1.42,101.07,155.4,-89.48
654,1715532453710,2.33,-0.35,1.42,101.07,155.4,-89.48
655,1715532453720,2.33,-0.35,1.42,101.07,155.4,-89.48
656,1715532453730,2.33,-0.35,1.42,101.07,155.4,-89.48
657,1715532453740,2.33,-0.35,1.42,101.07,155.4,-89.48
658,1715532453750,2.33,-0.35,1.42,101.07,155.4,-89.48
659,1715532453760,2.33,-0.35,1.42,101.07,155.4,-89.48
660,1715532453770,2.33,-0.3499999999999999,1.42,101.07,155.4,-89.48
661,1715532453780,2.33,-0.35,1.42,101.07,155.4,-89.48
662,1715532453790,1.58,-1.2125,0.3175,404.385,128.4375,-224.06
663,1715532453800,1.33,-1.5,-0.05000000000000001,505.49,119.45,-268.92
664,1715532453810,1.33,-1.5,-0.05,505.48999999999995,119.45,-268.92
665,1715532453820,1.33,-1.5,-0.05000000000000001,505.49,119.45,-268.92
666,1715532453830,1.2375,-1.525,-0.16,493.65,119.1125,-273.375
667,1715532453840,0.96,-1.6,-0.49,458.13,118.1,-286.74
668,1715532453850,0.96,-1.6,-0.49,458.13,118.1,-286.74
669,1715532453860,0.96,-1.6,-0.49,458.13,118.1,-286.74
670,1715532453870,0.45,-1.02,-0.56,390.15,41.705,-305.01
671,1715532453880,0.45,-1.02,-0.56,367.49,16.24,-311.1
672,1715532453890,0.45,-1.02,-0.56,367.49,16.24,-311.1
673,1715532453900,0.45,-1.02,-0.56,367.49,16.24,-311.1
674,1715532453910,0.45,-1.02,-0.56,367.49,16.24,-311.1
675,1715532453920,0.45,-1.02,-0.56,367.49,16.24,-311.1
676,1715532453930,0.45,-1.02,-0.56,367.49,16.24,-311.1
677,1715532453940,0.45,-1.02,-0.56,367.49,16.24,-311.1
678,1715532453950,0.45,-1.02,-0.56,367.49,16.24,-311.1
679,1715532453960,0.45,-1.02,-0.56,367.49,16.24,-311.1
680,1715532453970,0.45,-1.02,-0.56,367.49,16.24,-311.1
681,1715532453980,0.5966666666666667,-0.9666666666666667,0.08666666666666663,119.42333333333333,5.209999999999998,-122.46
682,1715532453990,0.67,-0.94,0.41,-105.59,87.34,40.89
683,1715532454000,0.67,-0.94,0.41,-105.59,87.34,40.89
684,1715532454010,0.67,-0.94,0.41,-105.59,87.34,40.89
685,1715532454020,0.07,-1.14,-0.01,-109.7075,75.4375,117.705
686,1715532454030,0.07,-1.14,-0.01,-111.08,71.47,143.31
687,1715532454040,0.07,-1.14,-0.01,-111.08,71.47,143.31
688,1715532454050,0.07,-1.14,-0.01,-111.08,71.47,143.31
689,1715532454060,0.07,-1.14,-0.01,-111.08,71.47,143.31
690,1715532454070,0.42,-1.38,-0.16,-173.65,-73.91,266.3
691,1715532454080,0.42,-1.38,-0.16,-173.65,-73.91,266.3
692,1715532454090,0.42,-1.38,-0.16,-173.65,-73.91,266.3
693,1715532454100,1.16,-2.16,-0.08,-260.07,-81.85,409.61
694,1715532454110,1.16,-2.16,-0.08,-260.07,-81.85,409.61
695,1715532454120,1.16,-2.16,-0.08,-260.07,-81.85,409.61
696,1715532454130,1.16,-2.16,-0.08,-260.07,-81.85,409.61
697,1715532454140,1.89,-1.33,0.15,-353.64,-26.365,452.59250000000003
698,1715532454150,1.89,-1.33,0.15,-384.83,-7.87,466.92
699,1715532454160,1.89,-1.33,0.15,-384.83,-7.87,466.92
700,1715532454170,1.89,-1.33,0.15,-384.83,-7.87,466.92
701,1715532454180,1.73,-1.26,0.19,-366.62600000000003,1.1720000000000002,395.142
702,1715532454190,1.73,-1.26,0.19,-354.49,7.2,347.29
703,1715532454200,1.7299999999999998,-1.26,0.19000000000000003,-354.49,7.2,347.29
704,1715532454210,1.73,-1.26,0.19,-354.49,7.2,347.29
705,1715532454220,1.55,-0.58,0.36,-277.59,-33.63,242.0
706,1715532454230,1.55,-0.58,0.36,-277.59,-33.63,242.0
707,1715532454240,1.55,-0.58,0.36,-277.59,-33.63,242.0
708,1715532454250,1.55,-0.58,0.36000000000000004,-277.59,-33.63,242.0
709,1715532454260,1.55,-0.58,0.36,-277.59,-33.63,242.0
710,1715532454270,1.55,-0.58,0.36000000000000004,-277.59,-33.63,242.0
711,1715532454280,1.55,-0.58,0.36,-277.59,-33.63,242.0
712,1715532454290,1.55,-0.58,0.36,-277.59,-33.63,242.0
713,1715532454300,1.55,-0.58,0.36,-277.59,-33.63,242.0
714,1715532454310,1.825,-0.5974999999999999,0.5525,-261.2625,-54.3675,216.4125
715,1715532454320,2.65,-0.65,1.13,-212.28,-116.58,139.65
716,1715532454330,2.61,-0.49,1.09,-156.86,-19.53,24.05
717,1715532454340,2.61,-0.49,1.09,-156.86,-19.53,24.05
718,1715532454350,2.61,-0.49,1.09,-156.86,-19.53,24.05
719,1715532454360,2.61,-0.49,1.09,-156.86,-19.53,24.05
720,1715532454370,1.91,-0.27,1.14,-156.86,-19.53,24.05
721,1715532454380,1.91,-0.27,1.14,-93.69,-28.08,-43.03
722,1715532454390,1.91,-0.27,1.14,-93.69,-28.08,-43.03
723,1715532454400,1.91,-0.27,1.14,-93.69,-28.08,-43.03
724,1715532454410,2.77,-0.28,1.65,-56.09,124.69,-24.78
725,1715532454420,2.77,-0.28,1.65,-56.09,124.69,-24.78
726,1715532454430,2.77,-0.28,1.6499999999999997,-56.09,124.69,-24.78
727,1715532454440,2.77,-0.28,1.65,-56.09,124.69,-24.78
728,1715532454450,2.77,-0.28,1.6499999999999997,-56.09,124.69,-24.78
729,1715532454460,2.77,-0.28,1.65,-56.09,124.69,-24.78
730,1715532454470,2.77,-0.28,1.6499999999999997,-56.09,124.69,-24.78
731,1715532454480,2.77,-0.28,1.65,-56.09,124.69,-24.78
732,1715532454490,2.77,-0.28,1.65,-56.09,124.69,-24.78
733,1715532454500,2.77,-0.28,1.6499999999999997,-56.09,124.69,-24.78
734,1715532454510,2.07,-0.84,0.69,242.19,162.9,-146.06
735,1715532454520,1.9133333333333333,-0.9466666666666667,0.6133333333333333,242.18999999999997,162.9,-146.06
736,1715532454530,1.6,-1.16,0.46,353.52,124.15,-217.9
737,1715532454540,1.6,-1.16,0.46,353.52,124.15,-217.9
738,1715532454550,1.6000000000000003,-1.16,0.46,353.52,124.15000000000002,-217.9
739,1715532454560,1.3675000000000002,-1.4675,0.17500000000000002,435.17999999999995,87.07,-265.2775
740,1715532454570,1.29,-1.57,0.08,462.4,74.71,-281.07
741,1715532454580,1.29,-1.57,0.08,462.3999999999999,74.71,-281.07
742,1715532454590,1.29,-1.57,0.08,462.4,74.71,-281.07
743,1715532454600,0.9899999999999999,-1.62,-0.32,469.52,64.17,-296.2833333333333
744,1715532454610,0.99,-1.62,-0.32,473.08,58.9,-303.89
745,1715532454620,0.99,-1.62,-0.32,473.08,58.9,-303.89
746,1715532454630,0.88,-1.5275,-0.3575,461.4525,40.33,-310.48249999999996
747,1715532454640,0.55,-1.25,-0.47,426.57,-15.38,-330.26
748,1715532454650,0.55,-1.25,-0.47,426.57,-15.38,-330.26
749,1715532454660,0.55,-1.25,-0.47,426.57,-15.38,-330.26
750,1715532454670,0.4625,-1.155,-0.485,399.22749999999996,-32.775,-325.1475
751,1715532454680,0.2,-0.87,-0.53,317.2,-84.96,-309.81
752,1715532454690,0.2,-0.87,-0.53,317.2,-84.96,-309.81
753,1715532454700,0.2,-0.87,-0.53,317.2,-84.96,-309.81
754,1715532454710,0.12000000000000001,-0.735,-0.625,237.39499999999998,-123.01499999999999,-234.74
755,1715532454720,0.04,-0.6,-0.7200000000000001,157.59,-161.07,-159.67
756,1715532454730,0.04,-0.6,-0.72,157.59,-161.07,-159.67
757,1715532454740,0.04,-0.6,-0.72,157.59,-161.07,-159.67
758,1715532454750,0.04,-0.6,-0.72,157.59,-161.07,-159.67
759,1715532454760,0.04,-0.6,-0.72,157.59,-161.07,-159.67
760,1715532454770,0.04,-0.6,-0.72,157.59,-161.07,-159.67
761,1715532454780,0.04,-0.6,-0.7200000000000001,157.59,-161.07,-159.67
762,1715532454790,0.04,-0.6,-0.72,157.59,-161.07,-159.67
763,1715532454800,0.04,-0.6,-0.72,157.59,-161.07,-159.67
764,1715532454810,0.04,-0.6,-0.72,157.59,-161.07,-159.67
765,1715532454820,0.04,-0.6,-0.7200000000000001,157.59,-161.07,-159.67
766,1715532454830,0.215,-0.8325,-0.5525,89.0175,-169.6775,-44.2225
767,1715532454840,0.74,-1.53,-0.05,-116.7,-195.5,302.12
768,1715532454850,0.7399999999999999,-1.53,-0.05000000000000001,-116.7,-195.5,302.12
769,1715532454860,0.9199999999999999,-1.5525,-0.0050000000000000044,-115.785,-162.9225,337.0625
770,1715532454870,1.46,-1.62,0.13,-113.04,-65.19,441.89
771,1715532454880,1.46,-1.62,0.13,-113.04,-65.19,441.89000000000004
772,1715532454890,1.46,-1.62,0.13,-113.04,-65.19,441.89
773,1715532454900,1.6425,-1.475,0.0475,-136.23250000000002,-23.257499999999997,451.58
774,1715532454910,2.19,-1.04,-0.2,-205.81,102.54,480.65
775,1715532454920,2.19,-1.04,-0.20000000000000004,-205.81000000000003,102.54,480.6499999999999
776,1715532454930,2.19,-1.04,-0.20000000000000004,-205.81000000000003,102.54,480.6499999999999
777,1715532454940,2.19,-1.04,-0.2,-205.81,102.54,480.65
778,1715532454950,2.19,-1.04,-0.20000000000000004,-205.81000000000003,102.54,480.6499999999999
779,1715532454960,2.19,-1.04,-0.2,-205.81,102.54,480.65
780,1715532454970,2.19,-1.04,-0.2,-205.81,102.54,480.65
781,1715532454980,2.19,-1.04,-0.20000000000000004,-205.81000000000003,102.54,480.6499999999999
782,1715532454990,2.19,-1.04,-0.2,-205.81,102.54,480.65
783,1715532455000,2.19,-1.04,-0.20000000000000004,-205.81000000000003,102.54,480.6499999999999
784,1715532455010,2.19,-1.04,-0.2,-205.81,102.54,480.65
785,1715532455020,2.19,-1.04,-0.2,-205.81,102.54,480.65
786,1715532455030,1.6625,-0.4725,0.0725,-160.7925,-119.21499999999999,164.99
787,1715532455040,1.8,-0.49,0.15,-155.94,-165.89,142.33
788,1715532455050,1.8,-0.49,0.15,-155.94,-165.89,142.33
789,1715532455060,2.92,-0.12,1.0,-158.87333333333333,-106.84999999999998,134.4766666666667
790,1715532455070,2.92,-0.12,1.0,-160.34,-77.33,130.55
791,1715532455080,2.92,-0.12,1.0,-160.34,-77.33,130.55
792,1715532455090,2.92,-0.12,1.0,-160.34,-77.33,130.55
793,1715532455100,3.0199999999999996,0.15333333333333332,1.06,-150.45333333333335,-1.4033333333333313,55.93000000000001
794,1715532455110,3.07,0.29,1.09,-145.51,36.56,18.62
795,1715532455120,3.07,0.29,1.09,-145.51,36.56,18.62
796,1715532455130,3.07,0.29,1.09,-145.51,36.56,18.62
797,1715532455140,2.605,0.29,1.0975000000000001,-134.11,111.905,-15.3475
798,1715532455150,2.45,0.29,1.1,-130.31,137.02,-26.67
799,1715532455160,2.45,0.29,1.1,-130.31,137.02,-26.67
800,1715532455170,2.505,0.285,1.1825,-132.1875,170.85,-34.4075
801,1715532455180,2.67,0.27,1.43,-137.82,272.34,-57.62
802,1715532455190,2.67,0.27,1.43,-137.82,272.34,-57.62
803,1715532455200,2.67,0.27,1.43,-137.82,272.34,-57.62
804,1715532455210,2.4766666666666666,0.07,1.29,-74.66666666666667,262.1266666666666,-81.79
805,1715532455220,2.09,-0.33,1.01,51.64,241.7,-130.13
806,1715532455230,2.09,-0.33,1.01,51.64,241.7,-130.13
807,1715532455240,2.09,-0.33,1.01,51.64000000000001,241.69999999999996,-130.13
808,1715532455250,1.92,-0.47,0.97,109.03999999999999,224.425,-148.195
809,1715532455260,1.75,-0.61,0.93,166.44,207.15,-166.26
810,1715532455270,1.75,-0.61,0.93,166.44,207.15,-166.26
811,1715532455280,1.75,-0.61,0.93,166.44,207.15,-166.26
812,1715532455290,1.75,-0.61,0.93,166.44,207.15,-166.26
813,1715532455300,1.75,-0.61,0.93,166.44,207.15,-166.26
814,1715532455310,1.75,-0.61,0.93,166.44,207.15,-166.26
815,1715532455320,1.75,-0.61,0.93,166.44,207.15,-166.26
816,1715532455330,1.75,-0.61,0.93,166.44,207.15,-166.26
817,1715532455340,1.75,-0.61,0.93,166.44,207.15,-166.26
818,1715532455350,1.75,-0.61,0.93,166.44,207.15,-166.26
819,1715532455360,1.5,-1.145,0.395,318.235,149.96,-245.88
820,1715532455370,1.0474999999999999,-1.5375,-0.38749999999999996,450.47,72.05,-331.94
821,1715532455380,0.98,-1.49,-0.47,430.91,51.33,-338.38
822,1715532455390,0.98,-1.49,-0.47,430.91,51.33,-338.38
823,1715532455400,0.98,-1.49,-0.47,430.91,51.33,-338.38
824,1715532455410,0.7,-0.65,-0.7,280.94,50.11,-330.32
825,1715532455420,0.7,-0.65,-0.7,280.94,50.11,-330.32
826,1715532455430,0.6999999999999998,-0.65,-0.6999999999999998,280.94,50.10999999999999,-330.32
827,1715532455440,0.7,-0.65,-0.7,280.94,50.11,-330.32
828,1715532455450,0.06,-0.39,-0.51,133.0,21.36,-179.87
829,1715532455460,0.06,-0.39,-0.51,133.0,21.36,-179.87
830,1715532455470,0.06,-0.39,-0.51,133.0,21.36,-179.87
831,1715532455480,0.06,-0.39,-0.51,133.0,21.36,-179.87
832,1715532455490,0.06,-0.39,-0.51,133.0,21.36,-179.87
833,1715532455500,0.06,-0.39,-0.51,133.0,21.36,-179.87
834,1715532455510,0.06,-0.39,-0.51,133.0,21.36,-179.87
835,1715532455520,0.06,-0.39,-0.51,133.0,21.36,-179.87
836,1715532455530,0.06,-0.39,-0.51,133.0,21.36,-179.87
837,1715532455540,0.06,-0.39,-0.51,133.0,21.36,-179.87
838,1715532455550,0.17,-0.47333333333333333,-0.2866666666666667,52.39000000000001,27.2,-76.33333333333333
839,1715532455560,0.4,-0.99,-0.03,-132.14,22.4,266.17
840,1715532455570,0.4,-0.99,-0.03,-132.14,22.4,266.17
841,1715532455580,0.4,-0.99,-0.03,-132.14,22.4,266.17
842,1715532455590,0.4000000000000001,-0.9899999999999999,-0.03,-132.14,22.399999999999995,266.17
843,1715532455600,0.76,-1.58,-0.28,-149.17,-107.24,296.33
844,1715532455610,0.76,-1.58,-0.28,-149.17,-107.24,296.33
845,1715532455620,0.7600000000000001,-1.58,-0.28,-149.17,-107.24,296.33
846,1715532455630,0.8300000000000001,-1.5925,-0.31000000000000005,-149.90249999999997,-104.7375,308.9625
847,1715532455640,1.04,-1.63,-0.4,-152.1,-97.23,346.86
848,1715532455650,1.04,-1.63,-0.4000000000000001,-152.1,-97.23,346.85999999999996
849,1715532455660,1.04,-1.63,-0.4,-152.1,-97.23,346.86
850,1715532455670,1.05,-1.475,-0.29500000000000004,-152.1,-97.23,346.86
851,1715532455680,1.06,-1.32,-0.19,-241.52,-60.12,374.88
852,1715532455690,1.06,-1.32,-0.19000000000000003,-241.52,-60.12,374.87999999999994
853,1715532455700,1.06,-1.32,-0.19,-241.52,-60.12,374.88
854,1715532455710,1.275,-1.125,-0.13,-251.53000000000003,-73.17999999999999,372.13
855,1715532455720,1.49,-0.93,-0.07,-261.54,-86.24,369.38
856,1715532455730,1.49,-0.93,-0.07,-261.54,-86.24,369.38
857,1715532455740,1.49,-0.93,-0.07,-261.54,-86.24,369.37999999999994
858,1715532455750,1.6675,-0.91,-0.0050000000000000044,-270.26750000000004,-92.67999999999999,348.935
859,1715532455760,2.2,-0.85,0.19,-296.45,-112.0,287.6
860,1715532455770,2.2,-0.85,0.19,-296.45,-112.0,287.6
861,1715532455780,2.2,-0.85,0.19,-296.45,-112.0,287.6
862,1715532455790,2.7,-0.61,0.68,-238.34,-141.91,205.26
863,1715532455800,2.7000000000000006,-0.61,0.68,-238.34,-141.91,205.26
864,1715532455810,2.7,-0.61,0.68,-238.34,-141.91,205.26
865,1715532455820,2.7,-0.61,0.68,-238.34,-141.91,205.26
866,1715532455830,2.7,-0.61,0.68,-238.34,-141.91,205.26
867,1715532455840,2.7,-0.61,0.68,-238.34,-141.91,205.26
868,1715532455850,2.7000000000000006,-0.61,0.68,-238.34,-141.91,205.26
869,1715532455860,2.7,-0.61,0.68,-238.34,-141.91,205.26
870,1715532455870,2.7,-0.61,0.68,-238.34,-141.91,205.26
871,1715532455880,2.7000000000000006,-0.61,0.68,-238.34,-141.91,205.26
872,1715532455890,2.44,-0.21,0.83,-183.47,4.09,0.43
873,1715532455900,2.453333333333333,-0.2233333333333333,0.9633333333333333,-183.47,4.09,0.43
874,1715532455910,2.48,-0.25,1.23,-143.68,67.99,51.03
875,1715532455920,2.48,-0.25,1.23,-143.68,67.99,51.03
876,1715532455930,2.48,-0.25,1.23,-143.68,67.99,51.03
877,1715532455940,2.6399999999999997,-0.245,1.08,-112.2,105.0075,22.435000000000002
878,1715532455950,2.8,-0.24,0.93,-17.76,216.06,-63.35
879,1715532455960,2.8,-0.24,0.93,-17.76,216.06,-63.35
880,1715532455970,2.7999999999999994,-0.24,0.93,-17.76,216.06000000000003,-63.35
881,1715532455980,2.5599999999999996,-0.475,0.775,37.2925,196.1325,-91.275
882,1715532455990,2.32,-0.71,0.62,202.45,136.35,-175.05
883,1715532456000,2.32,-0.71,0.62,202.44999999999996,136.35,-175.05000000000004
884,1715532456010,2.32,-0.71,0.62,202.45,136.35,-175.05
885,1715532456020,2.32,-0.71,0.62,202.45,136.35,-175.05
886,1715532456030,2.32,-0.71,0.62,202.45,136.35,-175.05
887,1715532456040,2.32,-0.71,0.62,202.45,136.35,-175.05
888,1715532456050,2.32,-0.71,0.62,202.45,136.35,-175.05
889,1715532456060,2.32,-0.71,0.62,202.45,136.35,-175.05
890,1715532456070,2.32,-0.71,0.62,202.45,136.35,-175.05
891,1715532456080,2.13,-0.9125,0.45,258.07,144.14749999999998,-222.1225
892,1715532456090,1.4300000000000002,-1.6724999999999999,-0.14250000000000002,438.295,167.54,-376.935
893,1715532456100,1.04,-2.13,-0.38999999999999996,478.39000000000004,167.54,-417.72
894,1715532456110,1.04,-2.13,-0.39,478.39,167.54,-417.72
895,1715532456120,1.04,-2.13,-0.39,478.39,167.54,-417.72
896,1715532456130,0.8475,-1.9474999999999998,-0.545,463.1175,142.8675,-415.95000000000005
897,1715532456140,0.27,-1.4,-1.01,417.3,68.85,-410.64
898,1715532456150,0.27,-1.3999999999999997,-1.01,417.3,68.85,-410.64000000000004
899,1715532456160,0.27,-1.4,-1.01,417.3,68.85,-410.64
900,1715532456170,0.1366666666666667,-1.1633333333333333,-0.9033333333333333,372.62000000000006,17.84333333333333,-394.3233333333333
901,1715532456180,-0.13,-0.69,-0.69,283.26,-84.17,-361.69
902,1715532456190,-0.13,-0.69,-0.69,283.26,-84.17,-361.69
903,1715532456200,-0.13,-0.69,-0.69,283.26,-84.17,-361.69
904,1715532456210,-0.13,-0.69,-0.69,283.26,-84.17,-361.69
905,1715532456220,-0.41,-0.83,-0.79,126.46,-119.93,-108.28
906,1715532456230,-0.41,-0.83,-0.79,126.46,-119.93,-108.28
907,1715532456240,-0.41,-0.83,-0.79,126.46,-119.93,-108.28
908,1715532456250,0.8575,-0.83,0.027499999999999983,56.56,-109.4025,-40.7125
909,1715532456260,1.28,-0.83,0.3,-153.14,-77.82,161.99
910,1715532456270,1.28,-0.83,0.3,-153.14,-77.82,161.99
911,1715532456280,1.28,-0.83,0.3,-153.14,-77.82,161.99
912,1715532456290,0.73,-1.01,0.62,-108.6875,-68.7525,165.8825
913,1715532456300,0.73,-1.01,0.62,-93.87,-65.73,167.18
914,1715532456310,0.73,-1.01,0.62,-93.87,-65.73,167.18
915,1715532456320,0.73,-1.01,0.62,-93.87,-65.73,167.18
916,1715532456330,0.73,-1.01,0.62,-93.87,-65.73,167.18
917,1715532456340,0.73,-1.01,0.62,-93.87,-65.73,167.18
918,1715532456350,0.73,-1.01,0.62,-93.87,-65.73,167.18
919,1715532456360,0.73,-1.01,0.62,-93.87,-65.73,167.18
920,1715532456370,0.73,-1.01,0.62,-93.87,-65.73,167.18
921,1715532456380,0.73,-1.01,0.62,-93.87,-65.73,167.18
922,1715532456390,0.73,-1.01,0.62,-93.87,-65.73,167.18
923,1715532456400,0.73,-1.01,0.62,-93.87,-65.73,167.18
924,1715532456410,1.2325,-1.6775,-0.1825,-65.355,-12.450000000000001,391.4825
925,1715532456420,1.3999999999999997,-1.8999999999999997,-0.45,-55.85,5.31,466.25
926,1715532456430,1.4,-1.9,-0.45,-55.85,5.31,466.25
927,1715532456440,1.4075,-1.3375,-0.27,-143.435,83.405,463.16499999999996
928,1715532456450,1.41,-1.15,-0.21,-231.02,161.5,460.08
929,1715532456460,1.41,-1.15,-0.21,-231.02,161.5,460.08
930,1715532456470,1.41,-1.15,-0.21,-231.02,161.5,460.08
931,1715532456480,1.5033333333333332,-0.9899999999999999,-0.33666666666666667,-272.8066666666667,155.84666666666666,435.06
932,1715532456490,1.55,-0.91,-0.4,-293.7,153.02,422.55
933,1715532456500,1.55,-0.91,-0.4,-293.7,153.02,422.55
934,1715532456510,1.55,-0.91,-0.4000000000000001,-293.7,153.02,422.55
935,1715532456520,1.55,-0.91,-0.4,-293.7,153.02,422.55
936,1715532456530,1.55,-0.91,-0.4,-293.7,153.02,422.55
937,1715532456540,1.55,-0.91,-0.4000000000000001,-293.7,153.02,422.55
938,1715532456550,1.55,-0.91,-0.4,-293.7,153.02,422.55
939,1715532456560,1.55,-0.91,-0.4000000000000001,-293.7,153.02,422.55
940,1715532456570,1.55,-0.91,-0.4,-293.7,153.02,422.55
941,1715532456580,1.55,-0.91,-0.4,-293.7,153.02,422.55
942,1715532456590,1.55,-0.91,-0.4,-293.7,153.02,422.55
943,1715532456600,2.185,-0.915,0.065,-259.91999999999996,107.24000000000001,281.19
944,1715532456610,2.82,-0.92,0.53,-226.14,61.46,139.83
945,1715532456620,2.82,-0.92,0.53,-226.14,61.46,139.83
946,1715532456630,2.7999999999999994,-0.7733333333333334,0.6966666666666667,-226.14,61.46,139.83
947,1715532456640,2.76,-0.48,1.03,-228.915,79.07000000000001,103.85000000000001
948,1715532456650,2.76,-0.48,1.03,-231.69,96.68,67.87
949,1715532456660,2.76,-0.48,1.03,-231.69,96.68,67.87
950,1715532456670,2.76,-0.48,1.03,-231.69,96.68,67.87
951,1715532456680,2.505,0.06,1.33,-143.70749999999998,82.8575,46.9975
952,1715532456690,2.42,0.24,1.43,-114.38,78.25,40.04
953,1715532456700,2.42,0.24,1.43,-114.38,78.25,40.04
954,1715532456710,2.6266666666666665,0.18000000000000002,1.3966666666666665,-114.38,78.25,40.04
955,1715532456720,2.73,0.15,1.38,65.0,107.06,-78.12
956,1715532456730,2.73,0.15,1.38,65.0,107.06,-78.12
957,1715532456740,2.73,0.15,1.38,65.0,107.06,-78.12
958,1715532456750,2.263333333333333,-0.27666666666666667,1.3066666666666666,155.74,134.56666666666666,-130.77333333333334
959,1715532456760,2.03,-0.49,1.27,201.11,148.32,-157.1
960,1715532456770,2.03,-0.49000000000000005,1.27,201.11,148.32,-157.1
961,1715532456780,2.03,-0.49,1.27,201.11,148.32,-157.1
962,1715532456790,1.84,-0.92,0.61,392.21,138.98,-224.98
963,1715532456800,1.84,-0.92,0.61,392.21,138.98,-224.98
964,1715532456810,1.84,-0.92,0.61,392.21,138.98,-224.98
965,1715532456820,1.84,-0.92,0.61,392.21,138.98,-224.98
966,1715532456830,1.715,-1.075,0.21,418.03,123.02,-279.025
967,1715532456840,1.59,-1.23,-0.19,443.85,107.06,-333.07
968,1715532456850,1.59,-1.23,-0.19,443.85,107.06,-333.07
969,1715532456860,1.59,-1.23,-0.19,443.85,107.06,-333.07
970,1715532456870,1.59,-1.23,-0.19,443.85,107.06,-333.07
971,1715532456880,1.59,-1.23,-0.19000000000000003,443.8500000000001,107.06,-333.07
972,1715532456890,1.59,-1.23,-0.19,443.85,107.06,-333.07
973,1715532456900,1.59,-1.23,-0.19,443.85,107.06,-333.07
974,1715532456910,1.59,-1.23,-0.19,443.85,107.06,-333.07
975,1715532456920,1.59,-1.23,-0.19000000000000003,443.8500000000001,107.06,-333.07
976,1715532456930,1.49,-1.1975,-0.145,364.45750000000004,88.32000000000001,-348.48
977,1715532456940,1.19,-1.1,-0.01,126.28,32.1,-394.71
978,1715532456950,1.19,-1.1,-0.01,126.28000000000002,32.1,-394.71
979,1715532456960,1.19,-1.1,-0.01,126.28,32.1,-394.71
980,1715532456970,0.85,-1.02,-0.10333333333333333,90.75999999999999,0.853333333333334,-346.4166666666667
981,1715532456980,0.68,-0.98,-0.15,73.0,-14.770000000000001,-322.27
982,1715532456990,0.68,-0.98,-0.15,73.0,-14.77,-322.27
983,1715532457000,0.68,-0.98,-0.15,73.0,-14.77,-322.27
984,1715532457010,0.71,-1.2275,0.21000000000000002,73.0,-14.77,-322.27
985,1715532457020,0.72,-1.31,0.33,-27.935,-25.7575,-186.76749999999998
986,1715532457030,0.72,-1.31,0.33,-61.58,-29.42,-141.6
987,1715532457040,0.7200000000000001,-1.31,0.33,-61.580000000000005,-29.42,-141.6
988,1715532457050,0.72,-1.31,0.33,-61.58,-29.42,-141.6
989,1715532457060,0.72,-1.31,0.33,-61.58,-29.42,-141.6
990,1715532457070,0.72,-1.31,0.33,-61.58,-29.42,-141.6
991,1715532457080,0.72,-1.31,0.33,-61.58,-29.42,-141.6
992,1715532457090,0.72,-1.31,0.33,-61.58,-29.42,-141.6
993,1715532457100,0.72,-1.31,0.33,-61.58,-29.42,-141.6
994,1715532457110,0.72,-1.31,0.33,-61.58,-29.42,-141.6
995,1715532457120,0.72,-1.31,0.33,-61.58,-29.42,-141.6
996,1715532457130,0.69,-1.31,-0.29,-16.54,-38.64,373.72
997,1715532457140,0.69,-1.31,-0.29,-16.54,-38.64,373.72
998,1715532457150,0.69,-1.31,-0.29,-16.54,-38.64,373.72
999,1715532457160,0.7675,-1.3525,-0.3275,-33.8425,-39.6775,389.4975
1000,1715532457170,1.0,-1.48,-0.44,-85.75,-42.79,436.83
1001,1715532457180,1.0,-1.4799999999999998,-0.44,-85.75,-42.79,436.83
1002,1715532457190,1.0,-1.48,-0.44,-85.75,-42.79,436.83
1003,1715532457200,1.08,-1.3833333333333335,-0.41,-109.35333333333334,-43.52,436.58666666666664
1004,1715532457210,1.24,-1.19,-0.35,-156.56,-44.98,436.1
1005,1715532457220,1.24,-1.19,-0.35,-156.56,-44.98,436.1
1006,1715532457230,1.24,-1.19,-0.3499999999999999,-156.56,-44.98,436.1000000000001
1007,1715532457240,1.2225,-1.1675,-0.3075,-156.56,-44.98,436.1
1008,1715532457250,1.17,-1.1,-0.18,-176.12,-15.224999999999998,425.32500000000005
1009,1715532457260,1.17,-1.1,-0.18,-195.68,14.53,414.55
1010,1715532457270,1.17,-1.1,-0.18,-195.68,14.53,414.55
1011,1715532457280,1.2774999999999999,-1.1,-0.195,-206.97,-1.7975000000000012,402.64750000000004
1012,1715532457290,1.6,-1.1,-0.24,-240.84,-50.78,366.94
1013,1715532457300,1.6,-1.1,-0.24,-240.84,-50.78,366.94
1014,1715532457310,1.6,-1.1,-0.24,-240.84,-50.78,366.94
1015,1715532457320,2.4325,-1.1975,0.315,-211.36,-99.455,318.145
1016,1715532457330,2.71,-1.23,0.5,-181.88,-148.13,269.35
1017,1715532457340,2.71,-1.23,0.5,-181.88,-148.13,269.35
1018,1715532457350,2.71,-1.23,0.5,-181.88,-148.13,269.35
1019,1715532457360,2.89,-1.14,0.5575,-177.075,-118.8025,248.59750000000003
1020,1715532457370,3.43,-0.87,0.73,-162.66,-30.820000000000004,186.34
1021,1715532457380,3.43,-0.87,0.73,-162.66,-30.82,186.34
1022,1715532457390,3.43,-0.87,0.73,-162.66,-30.82,186.34
1023,1715532457400,3.43,-0.87,0.73,-162.66,-30.82,186.34
1024,1715532457410,3.43,-0.87,0.73,-162.66,-30.820000000000004,186.34
1025,1715532457420,3.4300000000000006,-0.8699999999999999,0.73,-162.66,-30.82,186.34
1026,1715532457430,3.43,-0.87,0.73,-162.66,-30.82,186.34
1027,1715532457440,3.43,-0.87,0.73,-162.66,-30.820000000000004,186.34
1028,1715532457450,3.43,-0.87,0.73,-162.66,-30.82,186.34
1029,1715532457460,2.605,-0.495,0.775,-130.155,123.905,49.285000000000004
1030,1715532457470,2.3600000000000003,-0.35,1.01,-92.13,183.35,-25.97
1031,1715532457480,2.39,-0.33,1.23,-64.94,191.22,-55.54
1032,1715532457490,2.39,-0.33,1.23,-64.94,191.22,-55.54
1033,1715532457500,2.39,-0.33,1.23,-64.94,191.22,-55.54
1034,1715532457510,2.2,-0.42500000000000004,0.98,34.03,178.25,-84.44
1035,1715532457520,2.01,-0.52,0.73,133.0,165.28,-113.34
1036,1715532457530,2.01,-0.52,0.73,133.0,165.28,-113.33999999999999
1037,1715532457540,2.01,-0.52,0.73,133.0,165.28,-113.34
1038,1715532457550,1.855,-0.455,0.475,205.05,133.575,-152.345
1039,1715532457560,1.7,-0.39,0.22,277.1,101.87,-191.35
1040,1715532457570,1.7,-0.39,0.22,277.1,101.87,-191.35
1041,1715532457580,1.7,-0.38999999999999996,0.22,277.1,101.87,-191.35
1042,1715532457590,1.7,-0.39,0.22,277.1,101.87,-191.35
1043,1715532457600,1.7,-0.39,0.22,277.1,101.87,-191.35
1044,1715532457610,1.7,-0.39,0.22,277.1,101.87,-191.35
1045,1715532457620,1.7,-0.38999999999999996,0.22,277.1,101.87,-191.35
1046,1715532457630,1.7,-0.39,0.22,277.1,101.87,-191.35
1047,1715532457640,1.7,-0.38999999999999996,0.22,277.1,101.87,-191.35
1048,1715532457650,1.3625,-0.96,-0.14750000000000002,356.525,40.347500000000004,-278.275
1049,1715532457660,1.25,-1.15,-0.27,383.0,19.84,-307.25
1050,1715532457670,1.29,-1.02,0.27,307.74,-85.69,-374.82
1051,1715532457680,1.29,-1.02,0.27,307.74,-85.69,-374.82
1052,1715532457690,1.29,-1.02,0.27,307.74,-85.69,-374.82
1053,1715532457700,1.1925000000000001,-1.045,0.2925,285.84250000000003,-71.8975,-376.7425
1054,1715532457710,0.9,-1.12,0.36000000000000004,220.15,-30.52,-382.51
1055,1715532457720,0.9,-1.12,0.36,220.15,-30.52,-382.51
1056,1715532457730,0.9,-1.12,0.36,220.15,-30.52,-382.51
1057,1715532457740,0.76,-1.08,0.22999999999999998,198.45499999999998,-51.85,-337.955
1058,1715532457750,0.62,-1.04,0.10000000000000002,176.76,-73.18,-293.4
1059,1715532457760,0.62,-1.04,0.1,176.76,-73.18,-293.4
1060,1715532457770,0.62,-1.04,0.1,176.76,-73.18,-293.4
1061,1715532457780,0.615,-1.12,0.21000000000000002,129.57999999999998,-64.545,-258.135
1062,1715532457790,0.6,-1.36,0.54,-11.96,-38.64,-152.34
1063,1715532457800,0.6,-1.36,0.54,-11.96,-38.64,-152.34
1064,1715532457810,0.6,-1.36,0.54,-11.96,-38.64,-152.34
1065,1715532457820,-0.18000000000000002,-1.3500000000000003,0.6999999999999998,-98.75333333333333,63.04666666666666,-15.666666666666666
1066,1715532457830,-0.18,-1.35,0.7,-142.15,113.89,52.67
1067,1715532457840,-0.18,-1.35,0.7,-142.15,113.89,52.67
1068,1715532457850,-0.18000000000000002,-1.3500000000000003,0.6999999999999998,-142.15,113.89,52.669999999999995
1069,1715532457860,-0.10999999999999999,-1.3425,0.605,-129.9575,107.8925,111.57
1070,1715532457870,0.1,-1.32,0.32,-93.38,89.9,288.27
1071,1715532457880,0.10000000000000002,-1.32,0.32,-93.38,89.90000000000002,288.27
1072,1715532457890,0.1,-1.32,0.32,-93.38,89.9,288.27
1073,1715532457900,0.10000000000000002,-1.32,0.32,-93.38,89.90000000000002,288.27
1074,1715532457910,0.1,-1.32,0.32,-93.38,89.9,288.27
1075,1715532457920,0.1,-1.32,0.32,-93.38,89.9,288.27
1076,1715532457930,0.1,-1.32,0.32,-93.38,89.9,288.27
1077,1715532457940,0.1,-1.32,0.32,-93.38,89.9,288.27
1078,1715532457950,0.1,-1.32,0.32,-93.38,89.9,288.27
1079,1715532457960,0.1,-1.32,0.32,-93.38,89.9,288.27
1080,1715532457970,0.1,-1.32,0.32,-93.38,89.9,288.27
1081,1715532457980,0.35000000000000003,-1.1300000000000001,0.09333333333333334,-159.26,93.87,263.75333333333333
1082,1715532457990,0.85,-0.75,-0.36,-291.02,101.81,214.72
1083,1715532458000,0.85,-0.75,-0.36,-291.02,101.81,214.72
1084,1715532458010,1.03,-0.9366666666666666,-0.21333333333333335,-321.08666666666664,-2.6833333333333322,225.22
1085,1715532458020,1.12,-1.03,-0.14,-336.12,-54.93,230.47
1086,1715532458030,1.12,-1.03,-0.14,-336.12,-54.93,230.47
1087,1715532458040,1.12,-1.03,-0.14,-336.12,-54.93,230.47
1088,1715532458050,1.83,-0.71,0.71,-342.41,-125.79,215.52
1089,1715532458060,1.83,-0.71,0.71,-342.41,-125.79,215.52
1090,1715532458070,1.83,-0.71,0.71,-342.41,-125.79,215.52
1091,1715532458080,1.83,-0.71,0.71,-342.41,-125.79,215.52
1092,1715532458090,1.83,-0.71,0.71,-342.41,-125.79,215.52
1093,1715532458100,1.83,-0.71,0.71,-342.41,-125.79,215.52
1094,1715532458110,1.83,-0.71,0.71,-342.41,-125.79,215.52
1095,1715532458120,1.83,-0.71,0.71,-342.41,-125.79,215.52
1096,1715532458130,1.83,-0.71,0.71,-342.41,-125.79,215.52
1097,1715532458140,1.83,-0.71,0.71,-342.41,-125.79,215.52
1098,1715532458150,1.83,-0.71,0.71,-342.41,-125.79,215.52
1099,1715532458160,1.83,-0.71,0.71,-342.41,-125.79,215.52
1100,1715532458170,1.8575,-0.5499999999999999,0.9199999999999999,-293.6275,-41.837500000000006,151.555
1101,1715532458180,1.9400000000000002,-0.07,1.55,-147.28,210.02,-40.34
1102,1715532458190,1.94,-0.07,1.55,-147.28,210.02,-40.34
1103,1715532458200,1.94,-0.07,1.55,-147.28,210.02,-40.34
1104,1715532458210,1.87,0.01,1.94,-91.37,107.91000000000001,-37.505
1105,1715532458220,1.87,0.01,1.94,-35.46,5.8,-34.67
1106,1715532458230,1.87,0.01,1.94,-35.46,5.8,-34.67
1107,1715532458240,1.8800000000000001,-0.027500000000000004,1.915,-14.465,11.5225,-31.115000000000002
1108,1715532458250,1.91,-0.14,1.84,48.52,28.69,-20.45
1109,1715532458260,1.91,-0.14,1.84,48.52,28.69,-20.45
1110,1715532458270,1.91,-0.14,1.84,48.52,28.69,-20.45
1111,1715532458280,1.69,-0.255,1.4300000000000002,48.52,28.69,-20.45
1112,1715532458290,1.47,-0.37,1.02,176.33,-8.91,-10.38
1113,1715532458300,1.47,-0.37,1.02,176.33,-8.91,-10.38
1114,1715532458310,1.47,-0.36999999999999994,1.02,176.33,-8.91,-10.38
1115,1715532458320,1.77,-0.0925,1.0875000000000001,222.0575,12.877500000000001,-90.945
1116,1715532458330,1.87,0.0,1.11,237.3,20.14,-117.8
1117,1715532458340,1.87,0.0,1.11,237.3,20.14,-117.8
1118,1715532458350,1.87,0.0,1.11,237.30000000000004,20.14,-117.8
1119,1715532458360,1.53,-0.455,0.75,291.38,107.30000000000001,-148.685
1120,1715532458370,1.19,-0.91,0.38999999999999996,345.46,194.46,-179.57000000000002
1121,1715532458380,1.19,-0.91,0.39,345.46,194.46,-179.57
1122,1715532458390,1.19,-0.91,0.39,345.46,194.46,-179.57
1123,1715532458400,0.9499999999999998,-0.94,-0.02,356.08,177.18666666666664,-186.34333333333333
1124,1715532458410,0.95,-0.94,-0.02,377.32,142.64,-199.89
1125,1715532458420,0.95,-0.94,-0.02,377.32,142.64,-199.89
1126,1715532458430,0.95,-0.94,-0.02,377.32,142.64,-199.89
1127,1715532458440,0.95,-0.94,-0.02,377.32,142.64,-199.89
1128,1715532458450,0.95,-0.94,-0.02,377.32,142.64,-199.89
1129,1715532458460,0.95,-0.94,-0.02,377.32,142.64,-199.89
1130,1715532458470,0.95,-0.94,-0.02,377.32,142.64,-199.89
1131,1715532458480,0.95,-0.94,-0.02,377.32,142.64,-199.89
1132,1715532458490,0.95,-0.94,-0.02,377.32,142.64,-199.89
1133,1715532458500,0.95,-0.94,-0.02,377.32,142.64,-199.89
1134,1715532458510,0.48666666666666664,-0.59,-0.16,244.54333333333332,-79.42666666666666,-222.39000000000001
1135,1715532458520,0.44,-0.6,-0.24,203.67,-94.24,-190.61
1136,1715532458530,0.44,-0.6,-0.24,203.67,-94.24,-190.61
1137,1715532458540,0.44000000000000006,-0.6,-0.24,203.67,-94.24,-190.61
1138,1715532458550,1.025,-0.615,0.135,5.047499999999999,-123.94749999999999,-116.18
1139,1715532458560,1.22,-0.62,0.26,-61.16,-133.85,-91.37
1140,1715532458570,1.22,-0.62,0.26,-61.16,-133.85,-91.37
1141,1715532458580,1.22,-0.62,0.26,-61.16,-133.85,-91.37
1142,1715532458590,0.9875,-1.4525000000000001,0.7775,-228.0575,63.9475,35.3875
1143,1715532458600,0.91,-1.73,0.95,-283.69,129.88,77.64
1144,1715532458610,0.91,-1.73,0.95,-283.69,129.88,77.64
1145,1715532458620,0.91,-1.7299999999999998,0.9499999999999998,-283.69,129.88,77.64
1146,1715532458630,0.91,-1.73,0.95,-283.69,129.88,77.64
1147,1715532458640,0.91,-1.73,0.95,-283.69,129.88,77.64
1148,1715532458650,0.91,-1.73,0.95,-283.69,129.88,77.64
1149,1715532458660,0.91,-1.73,0.95,-283.69,129.88,77.64
1150,1715532458670,0.91,-1.73,0.95,-283.69,129.88,77.64
1151,1715532458680,0.91,-1.7299999999999998,0.9499999999999998,-283.69,129.88,77.64
1152,1715532458690,0.91,-1.73,0.95,-283.69,129.88,77.64
1153,1715532458700,1.0975000000000001,-0.7,0.525,-205.92000000000002,46.34,107.13250000000001
1154,1715532458710,1.02,-0.41,0.45,-182.07000000000002,-74.04,140.81
1155,1715532458720,1.02,-0.41,0.45,-182.07,-74.04,140.81
1156,1715532458730,1.02,-0.41,0.45,-182.07,-74.04,140.81
1157,1715532458740,0.95,-0.3025,0.35000000000000003,-166.67249999999999,-82.035,140.9625
1158,1715532458750,0.74,0.02,0.05,-120.48,-106.02,141.42
1159,1715532458760,0.7399999999999999,0.02,0.05000000000000001,-120.48,-106.02,141.42
1160,1715532458770,0.74,0.02,0.05,-120.48,-106.02,141.42
1161,1715532458780,0.575,-0.09,0.010000000000000002,-121.1225,-125.84,146.65249999999997
1162,1715532458790,0.41,-0.20000000000000004,-0.03,-123.05,-185.30000000000004,162.35
1163,1715532458800,0.41,-0.2,-0.03,-123.05,-185.3,162.35
1164,1715532458810,0.41,-0.2,-0.03,-123.05,-185.3,162.35
1165,1715532458820,0.695,-0.065,0.085,-138.245,-176.145,189.36
1166,1715532458830,0.98,0.07,0.2,-153.44,-166.99,216.37
1167,1715532458840,0.98,0.07,0.20000000000000004,-153.44,-166.99,216.37
1168,1715532458850,0.98,0.07,0.2,-153.44,-166.99,216.37
1169,1715532458860,1.12,0.08750000000000001,0.29000000000000004,-191.9075,-156.41500000000002,209.7175
1170,1715532458870,1.54,0.14,0.56,-307.31,-124.69,189.76
1171,1715532458880,1.54,0.14,0.56,-307.31,-124.69,189.76
1172,1715532458890,1.9175,0.2475,1.0525,-307.31,-124.69,189.76
1173,1715532458900,3.0499999999999994,0.57,2.53,-307.31,-124.69,189.76
1174,1715532458910,3.05,0.57,2.53,-330.32,-97.47,87.65
1175,1715532458920,3.05,0.57,2.53,-330.32,-97.47,87.65
1176,1715532458930,2.9124999999999996,0.5675,2.675,-262.8625,-69.22749999999999,50.615
1177,1715532458940,2.5,0.56,3.11,-60.49,15.5,-60.49
1178,1715532458950,2.5,0.56,3.11,-60.49,15.5,-60.49
1179,1715532458960,2.5,0.56,3.11,-60.49,15.5,-60.49
1180,1715532458970,2.5,0.56,3.11,-60.49,15.5,-60.49
1181,1715532458980,2.5,0.56,3.11,-60.49,15.5,-60.49
1182,1715532458990,2.5,0.56,3.11,-60.49,15.5,-60.49
1183,1715532459000,2.5,0.56,3.11,-60.49,15.5,-60.49
1184,1715532459010,2.5,0.56,3.11,-60.49,15.5,-60.49
1185,1715532459020,2.5,0.56,3.11,-60.49,15.5,-60.49
1186,1715532459030,2.5,0.56,3.11,-60.49,15.5,-60.49
1187,1715532459040,2.28,0.12,1.75,147.64,182.5,-144.71
1188,1715532459050,2.34,-0.29333333333333333,1.3966666666666665,260.3533333333333,165.08,-178.73000000000002
1189,1715532459060,2.37,-0.5,1.22,316.71,156.37,-195.74
1190,1715532459070,2.37,-0.5,1.22,316.71,156.37,-195.74
1191,1715532459080,2.37,-0.5,1.22,316.71,156.37,-195.74
1192,1715532459090,2.255,-0.625,1.0325,328.52,164.0,-200.57750000000001
1193,1715532459100,1.91,-1.0,0.47,363.95,186.89,-215.09
1194,1715532459110,1.91,-1.0,0.47,363.95,186.89,-215.09
1195,1715532459120,1.91,-1.0,0.47,363.95,186.89,-215.09
1196,1715532459130,1.34,-1.3500000000000003,0.0,417.8500000000001,149.41,-230.1
1197,1715532459140,1.34,-1.35,0.0,417.85,149.41,-230.1
1198,1715532459150,1.34,-1.3500000000000003,0.0,417.8500000000001,149.41,-230.1
1199,1715532459160,1.34,-1.35,0.0,417.85,149.41,-230.1
1200,1715532459170,1.34,-1.35,0.0,417.85,149.41,-230.1
1201,1715532459180,1.34,-1.35,0.0,417.85,149.41,-230.1
1202,1715532459190,1.34,-1.35,0.0,417.85,149.41,-230.1
1203,1715532459200,1.34,-1.3500000000000003,0.0,417.8500000000001,149.41,-230.1
1204,1715532459210,1.34,-1.35,0.0,417.85,149.41,-230.1
1205,1715532459220,1.0833333333333333,-1.11,-0.05666666666666667,391.74666666666667,88.64,-244.26
1206,1715532459230,0.57,-0.63,-0.17,339.54,-32.9,-272.58
1207,1715532459240,0.57,-0.63,-0.17,339.54,-32.9,-272.58
1208,1715532459250,0.13,-0.27,-0.13,253.72,-58.47,-214.6
1209,1715532459260,0.13,-0.27,-0.13,253.72,-58.47,-214.6
1210,1715532459270,0.13,-0.27,-0.13,253.72,-58.47,-214.6
1211,1715532459280,0.15,-0.2866666666666667,-0.21,253.72,-58.47,-214.6
1212,1715532459290,0.19,-0.32,-0.37,113.16,-120.85,-17.52
1213,1715532459300,0.19,-0.32,-0.37,113.16,-120.85,-17.52
1214,1715532459310,0.19,-0.32,-0.37,113.16,-120.85,-17.52
1215,1715532459320,1.03,-0.42,0.3499999999999999,113.16000000000001,-120.84999999999998,-17.52
1216,1715532459330,1.03,-0.42,0.35,-157.1,-41.2,102.6
1217,1715532459340,1.03,-0.42,0.35,-157.1,-41.2,102.6
1218,1715532459350,0.7933333333333333,-0.6866666666666666,0.2833333333333333,-172.19666666666663,3.519999999999996,138.85333333333332
1219,1715532459360,0.32,-1.22,0.15,-202.39,92.96,211.36
1220,1715532459370,0.32,-1.22,0.15,-202.39,92.96,211.36
1221,1715532459380,0.32,-1.22,0.15,-202.39,92.96,211.36
1222,1715532459390,0.4466666666666666,-1.2633333333333334,0.13666666666666666,-202.39,92.96,211.36
1223,1715532459400,0.6999999999999998,-1.3500000000000003,0.11,-173.03,-91.67,326.29
1224,1715532459410,0.7,-1.35,0.11,-173.03,-91.67,326.29
1225,1715532459420,0.7,-1.35,0.11,-173.03,-91.67,326.29
1226,1715532459430,0.8049999999999999,-1.755,0.0725,-205.355,-88.3325,386.6725
1227,1715532459440,0.84,-1.89,0.06,-216.13,-87.22,406.8
1228,1715532459450,0.84,-1.89,0.06,-216.13,-87.21999999999998,406.8
1229,1715532459460,0.84,-1.89,0.06,-216.13,-87.22,406.8
1230,1715532459470,0.84,-1.89,0.06,-216.13,-87.22,406.8
1231,1715532459480,0.84,-1.89,0.06,-216.13,-87.22,406.8
1232,1715532459490,0.84,-1.89,0.06,-216.13,-87.21999999999998,406.8
1233,1715532459500,0.84,-1.89,0.06,-216.13,-87.22,406.8
1234,1715532459510,0.84,-1.89,0.06,-216.13,-87.22,406.8
1235,1715532459520,0.84,-1.89,0.06,-216.13,-87.21999999999998,406.8
1236,1715532459530,0.84,-1.89,0.06,-216.13,-87.22,406.8
1237,1715532459540,0.84,-1.89,0.06,-216.13,-87.22,406.8
1238,1715532459550,1.54,-0.98,0.095,-171.39,-85.66499999999999,363.58500000000004
1239,1715532459560,2.24,-0.07,0.13,-126.65,-84.11,320.37
1240,1715532459570,2.24,-0.07,0.13,-126.65000000000002,-84.11,320.37
1241,1715532459580,2.24,-0.07,0.13,-126.65,-84.11,320.37
1242,1715532459590,2.3,0.19,0.43,-199.83,-10.07,249.63
1243,1715532459600,2.3,0.19,0.43,-199.83,-10.07,249.63
1244,1715532459610,2.3,0.19000000000000003,0.43,-199.83,-10.07,249.63
1245,1715532459620,2.3,0.19,0.43,-199.83,-10.07,249.63
1246,1715532459630,2.64,0.5,0.58,-188.17,-70.8,192.08
1247,1715532459640,2.64,0.5,0.58,-188.17,-70.8,192.08
1248,1715532459650,2.64,0.5,0.58,-188.17,-70.8,192.08
1249,1715532459660,2.64,0.5,0.58,-188.17,-70.8,192.08
1250,1715532459670,2.64,0.5,0.58,-188.17,-70.8,192.08
1251,1715532459680,2.64,0.5,0.58,-188.17,-70.8,192.08
1252,1715532459690,2.64,0.5,0.58,-188.17,-70.8,192.08
1253,1715532459700,2.64,0.5,0.58,-188.17,-70.8,192.08
1254,1715532459710,2.64,0.5,0.58,-188.17,-70.8,192.08
1255,1715532459720,2.64,0.5,0.58,-188.17,-70.8,192.08
1256,1715532459730,2.64,0.5,0.58,-188.17,-70.8,192.08
1257,1715532459740,2.64,0.5,0.58,-188.17,-70.8,192.08
1258,1715532459750,3.12,1.08,1.28,-94.97,124.39,-122.25
1259,1715532459760,3.12,1.08,1.28,-94.97,124.39,-122.25
1260,1715532459770,3.12,1.08,1.28,-94.97,124.39,-122.25
1261,1715532459780,2.9975,0.89,1.155,-45.287499999999994,130.4925,-142.21
1262,1715532459790,2.63,0.32,0.7799999999999999,103.76,148.8,-202.09
1263,1715532459800,2.63,0.32,0.78,103.76,148.8,-202.09
1264,1715532459810,2.63,0.32,0.78,103.76,148.8,-202.09
1265,1715532459820,2.19,-0.29,0.28,103.76,148.8,-202.09
1266,1715532459830,2.19,-0.29,0.28,236.69,121.4,-265.99
1267,1715532459840,2.19,-0.29,0.28,236.69,121.4,-265.99
1268,1715532459850,2.19,-0.29,0.28,236.68999999999997,121.40000000000002,-265.99
1269,1715532459860,1.55,-0.81,-0.07,318.18,85.94,-334.59
1270,1715532459870,1.55,-0.81,-0.07,318.18,85.94,-334.59
1271,1715532459880,1.55,-0.81,-0.07,318.18,85.94,-334.59
1272,1715532459890,1.2866666666666668,-0.9833333333333334,-0.12333333333333334,337.8533333333333,52.26666666666666,-339.78
1273,1715532459900,0.76,-1.33,-0.23,377.2,-15.08,-350.16
1274,1715532459910,0.76,-1.33,-0.23,377.2,-15.08,-350.16
1275,1715532459920,0.76,-1.33,-0.23,377.2,-15.08,-350.16
1276,1715532459930,0.6933333333333334,-1.09,-0.25,348.26666666666665,-53.080000000000005,-314.1466666666667
1277,1715532459940,0.66,-0.97,-0.26,333.8,-72.08,-296.14
1278,1715532459950,0.66,-0.97,-0.26,333.8,-72.08,-296.14
1279,1715532459960,0.66,-0.97,-0.26,333.8,-72.08,-296.14
1280,1715532459970,0.73,-0.28,-0.25,235.6,-194.64,-278.99
1281,1715532459980,0.73,-0.28,-0.25,235.6,-194.64,-278.99
1282,1715532459990,0.73,-0.28,-0.25,235.6,-194.64,-278.99
1283,1715532460000,0.73,-0.28,-0.25,235.6,-194.64,-278.99
1284,1715532460010,0.73,-0.28,-0.25,235.6,-194.64,-278.99
1285,1715532460020,0.73,-0.28,-0.25,235.6,-194.64,-278.99
1286,1715532460030,0.73,-0.28,-0.25,235.6,-194.64,-278.99
1287,1715532460040,0.73,-0.28,-0.25,235.6,-194.64,-278.99
1288,1715532460050,0.73,-0.28,-0.25,235.6,-194.64,-278.99
1289,1715532460060,0.73,-0.28,-0.25,235.6,-194.64,-278.99
1290,1715532460070,0.73,-0.28,-0.25,235.6,-194.64,-278.99
1291,1715532460080,0.5566666666666666,-0.28,0.023333333333333334,89.60000000000001,-91.36666666666666,-137.47
1292,1715532460090,0.665,-0.625,0.43000000000000005,-72.4775,10.715000000000002,23.1475
1293,1715532460100,0.73,-0.74,0.52,-102.17,27.53,53.1
1294,1715532460110,0.73,-0.74,0.52,-102.17,27.53,53.1
1295,1715532460120,0.73,-0.7399999999999999,0.52,-102.17,27.53,53.1
1296,1715532460130,0.442,-1.252,0.32,-157.882,128.794,174.732
1297,1715532460140,0.37,-1.38,0.27,-171.81,154.11,205.14
1298,1715532460150,0.36999999999999994,-1.38,0.27,-171.81000000000003,154.11,205.14
1299,1715532460160,0.37,-1.38,0.27,-171.81,154.11,205.14
1300,1715532460170,0.55,-1.3725,0.1125,-157.0275,86.1375,296.9175
1301,1715532460180,0.61,-1.37,0.06,-152.1,63.48,327.51
1302,1715532460190,0.61,-1.37,0.06,-152.1,63.48,327.51
1303,1715532460200,0.61,-1.37,0.06,-152.1,63.48,327.51
1304,1715532460210,0.61,-1.37,0.06,-152.1,63.48,327.51
1305,1715532460220,0.61,-1.37,0.06,-152.1,63.48,327.51
1306,1715532460230,0.61,-1.37,0.06,-152.1,63.48,327.51
1307,1715532460240,0.61,-1.37,0.06,-152.1,63.48,327.51
1308,1715532460250,0.61,-1.37,0.06,-152.1,63.48,327.51
1309,1715532460260,0.61,-1.37,0.06,-152.1,63.48,327.51
1310,1715532460270,1.3099999999999998,-0.7633333333333333,-0.10666666666666667,-153.68666666666664,146.04,386.75666666666666
1311,1715532460280,1.29,-0.4,-0.61,-104.905,65.595,342.6325
1312,1715532460290,1.29,-0.4,-0.61,-88.38,25.02,318.05
1313,1715532460300,1.29,-0.4,-0.61,-88.38,25.02,318.05
1314,1715532460310,1.325,-0.255,-0.5525,-89.7525,3.8125,296.17
1315,1715532460320,1.43,0.18,-0.38,-93.87,-59.81,230.53
1316,1715532460330,1.43,0.18000000000000002,-0.38000000000000006,-93.87,-59.81,230.53
1317,1715532460340,1.43,0.18,-0.38,-93.87,-59.81,230.53
1318,1715532460350,1.37,-0.015,-0.26,-131.285,-41.775,227.05
1319,1715532460360,1.31,-0.21,-0.14,-168.7,-23.74,223.57
1320,1715532460370,1.31,-0.21,-0.14,-168.7,-23.74,223.57
1321,1715532460380,1.31,-0.21,-0.14,-168.7,-23.74,223.57000000000002
1322,1715532460390,1.7175,-0.155,-0.012500000000000011,-181.7325,-33.2475,224.12
1323,1715532460400,2.94,0.01,0.37,-220.83,-61.77,225.77
1324,1715532460410,2.94,0.01,0.37,-220.83,-61.77,225.77
1325,1715532460420,2.94,0.01,0.36999999999999994,-220.83,-61.77,225.77
1326,1715532460430,3.5475,0.34750000000000003,0.94,-224.4,51.39,143.0975
1327,1715532460440,3.75,0.46,1.13,-225.59,89.11,115.54
1328,1715532460450,3.75,0.46,1.13,-225.59,89.11,115.54
1329,1715532460460,3.75,0.46,1.13,-225.59,89.11,115.54
1330,1715532460470,3.33,0.4825,1.0025,-179.63,92.04249999999999,37.585
1331,1715532460480,3.19,0.49,0.96,-164.31,93.02,11.6
1332,1715532460490,3.19,0.49,0.96,-164.31,93.02,11.6
1333,1715532460500,3.19,0.49,0.96,-164.31,93.02,11.6
1334,1715532460510,3.06,0.485,1.065,-121.83,118.745,-34.025000000000006
1335,1715532460520,2.93,0.48,1.17,-79.35,144.47,-79.65
1336,1715532460530,2.93,0.48,1.17,-79.35,144.47,-79.65
1337,1715532460540,2.93,0.48,1.17,-79.35,144.47,-79.65
1338,1715532460550,2.93,0.48,1.17,-79.35,144.47,-79.65
1339,1715532460560,2.93,0.48,1.17,-79.35,144.47,-79.65
1340,1715532460570,2.93,0.48,1.17,-79.35,144.47,-79.65
1341,1715532460580,2.93,0.48,1.17,-79.35,144.47,-79.65
1342,1715532460590,2.93,0.48,1.17,-79.35,144.47,-79.65
1343,1715532460600,2.6275,0.34249999999999997,1.0325,-12.347499999999997,134.9475,-112.57750000000001
1344,1715532460610,1.72,-0.07,0.62,188.66,106.38,-211.36
1345,1715532460620,1.595,-0.35,0.44,257.235,107.41999999999999,-251.735
1346,1715532460630,1.47,-0.63,0.26,325.81,108.46,-292.11
1347,1715532460640,1.47,-0.63,0.26,325.81,108.46,-292.11
1348,1715532460650,1.47,-0.63,0.26,325.81,108.46,-292.11
1349,1715532460660,1.47,-0.63,0.26,325.81,108.46,-292.11
1350,1715532460670,1.325,-0.905,0.065,346.895,92.805,-322.14
1351,1715532460680,1.18,-1.18,-0.13,367.98,77.15,-352.17
1352,1715532460690,1.18,-1.18,-0.13,367.98,77.15,-352.17
1353,1715532460700,1.18,-1.18,-0.13,367.98,77.15,-352.17
1354,1715532460710,0.9475,-1.03,-0.28,352.23,42.86,-368.2875
1355,1715532460720,0.87,-0.98,-0.33,346.98,31.429999999999996,-373.66
1356,1715532460730,0.87,-0.98,-0.33,346.98,31.43,-373.66
1357,1715532460740,0.87,-0.98,-0.33,346.98,31.43,-373.66
1358,1715532460750,0.87,-0.98,-0.33,346.98,31.43,-373.66
1359,1715532460760,0.87,-0.98,-0.33,346.98,31.429999999999996,-373.66
1360,1715532460770,0.87,-0.98,-0.33,346.98,31.43,-373.66
1361,1715532460780,0.87,-0.98,-0.33,346.98,31.43,-373.66
1362,1715532460790,0.6775,-0.76,-0.28750000000000003,304.6675,-6.045000000000002,-354.295
1363,1715532460800,0.1,-0.1,-0.16,177.73,-118.47,-296.2
1364,1715532460810,0.35333333333333333,-0.3866666666666667,0.16666666666666666,47.19666666666666,-110.86333333333334,-163.34666666666666
1365,1715532460820,0.48,-0.53,0.33,-18.07,-107.06,-96.92
1366,1715532460830,0.48,-0.53,0.33,-18.07,-107.06,-96.92
1367,1715532460840,0.48,-0.53,0.33,-18.07,-107.06,-96.92
1368,1715532460850,0.565,-0.685,0.68,-91.42999999999999,-2.9299999999999997,-17.605
1369,1715532460860,0.65,-0.84,1.03,-164.79,101.2,61.71
1370,1715532460870,0.65,-0.84,1.03,-164.79,101.2,61.71
1371,1715532460880,0.65,-0.84,1.03,-164.79,101.2,61.71
1372,1715532460890,0.55,-1.65,0.24,-107.805,91.9525,200.82
1373,1715532460900,0.55,-1.6499999999999997,0.24,-88.81,88.87,247.18999999999997
1374,1715532460910,0.55,-1.65,0.24,-88.81,88.87,247.19
1375,1715532460920,0.55,-1.65,0.24,-88.81,88.87,247.19
1376,1715532460930,1.13,-2.05,0.71,-132.7075,106.2625,352.7975
1377,1715532460940,1.13,-2.05,0.71,-147.34,112.06,388.0
1378,1715532460950,1.13,-2.05,0.71,-147.34,112.06,388.0
1379,1715532460960,1.1099999999999999,-1.9375,0.47,-147.34,112.06,388.0
1380,1715532460970,1.05,-1.6000000000000003,-0.25,-141.6,127.75,489.75
1381,1715532460980,1.05,-1.6,-0.25,-141.6,127.75,489.75
1382,1715532460990,1.05,-1.6,-0.25,-141.6,127.75,489.75
1383,1715532461000,1.25,-1.4033333333333333,-0.26666666666666666,-141.6,127.75,489.75
1384,1715532461010,1.65,-1.01,-0.3,-167.36,-67.99,388.55
1385,1715532461020,1.6499999999999997,-1.01,-0.3,-167.36,-67.99,388.55
1386,1715532461030,1.65,-1.01,-0.3,-167.36,-67.99,388.55
1387,1715532461040,1.65,-1.01,-0.3,-167.36,-67.99,388.55
1388,1715532461050,1.6499999999999997,-1.01,-0.3,-167.36,-67.99,388.55
1389,1715532461060,1.65,-1.01,-0.3,-167.36,-67.99,388.55
1390,1715532461070,1.65,-1.01,-0.3,-167.36,-67.99,388.55
1391,1715532461080,1.65,-1.01,-0.3,-167.36,-67.99,388.55
1392,1715532461090,1.6499999999999997,-1.01,-0.3,-167.36,-67.99,388.55
1393,1715532461100,1.65,-1.01,-0.3,-167.36,-67.99,388.55
1394,1715532461110,1.65,-1.01,-0.3,-167.36,-67.99,388.55
1395,1715532461120,1.6499999999999997,-1.01,-0.3,-167.36,-67.99,388.55
1396,1715532461130,2.3099999999999996,-0.2,0.495,-269.9,-89.875,184.94
1397,1715532461140,2.53,0.07,0.7600000000000001,-304.08,-97.17,117.07
1398,1715532461150,2.53,0.07,0.76,-304.08,-97.17,117.07
1399,1715532461160,2.74,0.19000000000000003,1.71,-303.77,-16.91,66.77
1400,1715532461170,2.74,0.19,1.71,-303.77,-16.91,66.77
1401,1715532461180,2.74,0.19,1.71,-303.77,-16.91,66.77
1402,1715532461190,2.4333333333333336,0.29333333333333333,1.8266666666666669,-240.02999999999997,-12.066666666666668,38.65333333333333
1403,1715532461200,1.82,0.5,2.06,-112.55,-2.38,-17.58
1404,1715532461210,1.82,0.5,2.06,-112.55,-2.38,-17.58
1405,1715532461220,1.82,0.5,2.06,-112.55,-2.38,-17.58
1406,1715532461230,1.82,0.5,2.06,-112.55,-2.38,-17.58
1407,1715532461240,1.82,0.5,2.06,-112.55,-2.38,-17.58
1408,1715532461250,1.82,0.5,2.06,-112.55,-2.38,-17.58
1409,1715532461260,1.82,0.5,2.06,-112.55,-2.38,-17.58
1410,1715532461270,1.82,0.5,2.06,-112.55,-2.38,-17.58
1411,1715532461280,1.82,0.5,2.06,-112.55,-2.38,-17.58
1412,1715532461290,1.82,0.5,2.06,-112.55,-2.38,-17.58
1413,1715532461300,1.82,0.5,2.06,-112.55,-2.38,-17.58
1414,1715532461310,1.82,0.5,2.06,-112.55,-2.38,-17.58
1415,1715532461320,2.1266666666666665,-0.04666666666666667,1.2133333333333334,135.2566666666667,95.68,-116.58
1416,1715532461330,2.28,-0.32,0.79,259.16,144.71,-166.08
1417,1715532461340,2.28,-0.32,0.79,259.16,144.71,-166.08
1418,1715532461350,1.9133333333333333,-0.6066666666666667,0.44333333333333336,291.3866666666667,170.26333333333332,-200.09333333333333
1419,1715532461360,1.73,-0.75,0.27,307.5,183.04,-217.1
1420,1715532461370,1.73,-0.75,0.27,307.5,183.04,-217.1
1421,1715532461380,1.7299999999999998,-0.75,0.27,307.5,183.04,-217.1
1422,1715532461390,1.31,-1.0,-0.29,343.21999999999997,149.63333333333333,-250.58666666666667
1423,1715532461400,1.31,-1.0,-0.29,361.08,132.93,-267.33
1424,1715532461410,1.31,-1.0,-0.29,361.08,132.93,-267.33
1425,1715532461420,1.31,-1.0,-0.29,361.08,132.93,-267.33
1426,1715532461430,0.9499999999999998,-1.05,-0.17,329.1,39.49,-298.77
1427,1715532461440,0.95,-1.05,-0.17,329.1,39.49,-298.77
1428,1715532461450,0.9499999999999998,-1.05,-0.17,329.1,39.49,-298.77
1429,1715532461460,0.95,-1.05,-0.17,329.1,39.49,-298.77
1430,1715532461470,0.91,-0.9700000000000001,0.03,265.93,32.41,-286.74
1431,1715532461480,0.91,-0.97,0.03,265.93,32.41,-286.74
1432,1715532461490,0.91,-0.97,0.03,265.93,32.41,-286.74
1433,1715532461500,0.8425,-0.965,0.135,235.0475,40.345,-265.9725
1434,1715532461510,0.64,-0.9499999999999998,0.45,142.4,64.15,-203.67
1435,1715532461520,0.64,-0.95,0.45,142.4,64.15,-203.67
1436,1715532461530,0.64,-0.9499999999999998,0.45,142.4,64.15,-203.67
1437,1715532461540,0.64,-0.95,0.45,142.4,64.15,-203.67
1438,1715532461550,0.8,-1.04,0.43,-80.81,221.56,-27.95
1439,1715532461560,0.8000000000000002,-1.04,0.43,-80.81,221.56000000000003,-27.95
1440,1715532461570,0.8,-1.04,0.43,-80.81,221.56,-27.95
1441,1715532461580,0.8000000000000002,-1.04,0.43,-80.81,221.56000000000003,-27.95
1442,1715532461590,0.8,-1.04,0.43,-80.81,221.56,-27.95
1443,1715532461600,0.8000000000000002,-1.04,0.43,-80.81,221.56000000000003,-27.95
1444,1715532461610,0.8,-1.04,0.43,-80.81,221.56,-27.95
1445,1715532461620,0.8000000000000002,-1.04,0.43,-80.81,221.56000000000003,-27.95
1446,1715532461630,0.8,-1.04,0.43,-80.81,221.56,-27.95
1447,1715532461640,0.8,-1.04,0.43,-80.81,221.56,-27.95
1448,1715532461650,0.6433333333333334,-1.2433333333333334,0.13666666666666666,-152.03666666666666,113.54666666666667,82.72666666666666
1449,1715532461660,0.33,-1.65,-0.45,-294.49,-102.48,304.08
1450,1715532461670,0.33,-1.65,-0.45,-294.49,-102.48,304.08
1451,1715532461680,0.33,-1.65,-0.45,-294.49,-102.48,304.08
1452,1715532461690,0.9833333333333334,-1.67,-0.47,-333.92333333333335,-145.61333333333334,364.58666666666664
1453,1715532461700,1.31,-1.6800000000000002,-0.48,-353.64,-167.18,394.84
1454,1715532461710,1.31,-1.68,-0.48,-353.64000000000004,-167.18,394.84
1455,1715532461720,1.31,-1.68,-0.48,-353.64,-167.18,394.84
1456,1715532461730,1.95,-1.64,-0.34,-344.52750000000003,-235.29500000000002,375.34
1457,1715532461740,1.95,-1.64,-0.34,-341.49,-258.0,368.84
1458,1715532461750,1.95,-1.64,-0.34,-341.49,-258.0,368.84
1459,1715532461760,1.95,-1.64,-0.34,-341.49,-258.0,368.84
1460,1715532461770,1.95,-1.64,-0.34,-341.49,-258.0,368.84
1461,1715532461780,1.95,-1.64,-0.34,-341.49,-258.0,368.84
1462,1715532461790,1.95,-1.64,-0.34,-341.49,-258.0,368.84
1463,1715532461800,1.95,-1.64,-0.34,-341.49,-258.0,368.84
1464,1715532461810,1.95,-1.64,-0.34,-341.49,-258.0,368.84
1465,1715532461820,1.95,-1.64,-0.34,-341.49,-258.0,368.84
1466,1715532461830,1.95,-1.64,-0.34,-341.49,-258.0,368.84
1467,1715532461840,1.9525,-1.51,-0.18250000000000002,-338.225,-217.93,338.67249999999996
1468,1715532461850,1.96,-1.12,0.29,-328.43,-97.71999999999998,248.17
1469,1715532461860,1.94,-1.32,0.88,-246.15,-107.12,208.19
1470,1715532461870,1.94,-1.32,0.88,-246.15,-107.12,208.19
1471,1715532461880,2.415,-1.3599999999999999,1.11,-223.905,-70.86500000000001,229.155
1472,1715532461890,2.89,-1.4,1.34,-201.66,-34.61,250.12
1473,1715532461900,2.89,-1.3999999999999997,1.34,-201.66,-34.61,250.12
1474,1715532461910,2.89,-1.4,1.34,-201.66,-34.61,250.12
1475,1715532461920,2.56,-0.6275,1.6925000000000001,-181.2,116.8225,147.535
1476,1715532461930,2.45,-0.36999999999999994,1.8099999999999998,-174.38,167.3,113.33999999999999
1477,1715532461940,2.45,-0.37,1.81,-174.38,167.3,113.34
1478,1715532461950,2.45,-0.37,1.81,-174.38,167.3,113.34
1479,1715532461960,1.71,-0.83,1.26,-174.38,167.3,113.34
1480,1715532461970,1.71,-0.83,1.26,-34.2575,129.215,30.900000000000002
1481,1715532461980,1.71,-0.83,1.26,12.449999999999998,116.52,3.42
1482,1715532461990,2.035,-0.7,1.3599999999999999,19.1325,121.875,-2.515
1483,1715532462000,2.36,-0.57,1.46,39.18,137.94,-20.32
1484,1715532462010,2.36,-0.57,1.46,39.18,137.94,-20.32
1485,1715532462020,2.36,-0.57,1.46,39.18,137.94,-20.32
1486,1715532462030,2.2525,-0.6275,1.33,81.7375,131.3025,-43.4225
1487,1715532462040,1.93,-0.8,0.94,209.41,111.39,-112.73
1488,1715532462050,1.93,-0.8000000000000002,0.94,209.41,111.39,-112.73
1489,1715532462060,1.93,-0.8,0.94,209.41,111.39,-112.73
1490,1715532462070,1.69,-0.64,0.7849999999999999,209.41,111.39,-112.73
1491,1715532462080,1.45,-0.48,0.63,305.97,80.26,-161.19
1492,1715532462090,1.45,-0.48,0.63,305.97,80.26,-161.19
1493,1715532462100,1.45,-0.48,0.63,305.97,80.26,-161.19
1494,1715532462110,1.45,-0.48,0.63,305.97,80.26,-161.19
1495,1715532462120,1.45,-0.48,0.63,305.97,80.26,-161.19
1496,1715532462130,1.45,-0.48,0.63,305.97,80.26,-161.19
1497,1715532462140,1.45,-0.48,0.63,305.97,80.26,-161.19
1498,1715532462150,1.45,-0.48,0.63,305.97,80.26,-161.19
1499,1715532462160,1.45,-0.48,0.63,305.97,80.26,-161.19
1500,1715532462170,1.45,-0.48,0.63,305.97,80.26,-161.19
1501,1715532462180,1.25,-1.14,0.4,382.14,206.6,-161.5
1502,1715532462190,1.04,-1.31,0.08,407.685,157.805,-197.905
1503,1715532462200,1.04,-1.31,0.08,433.23,109.01,-234.31000000000003
1504,1715532462210,1.04,-1.31,0.08,433.23,109.01,-234.31
1505,1715532462220,1.04,-1.31,0.08,433.23,109.01,-234.31
1506,1715532462230,0.9125,-1.1824999999999999,0.0875,423.1125,-2.0425000000000004,-253.40499999999997
1507,1715532462240,0.87,-1.14,0.09000000000000001,419.74,-39.06,-259.77
1508,1715532462250,0.87,-1.14,0.09,419.74,-39.06,-259.77
1509,1715532462260,0.87,-1.14,0.09,419.74,-39.06,-259.77
1510,1715532462270,0.7600000000000001,-0.9499999999999998,-0.21,327.09,-186.4,-256.23
1511,1715532462280,0.7600000000000001,-0.9499999999999998,-0.21,327.09,-186.4,-256.23
1512,1715532462290,0.76,-0.95,-0.21,327.09,-186.4,-256.23
1513,1715532462300,0.76,-0.95,-0.21,327.09,-186.4,-256.23
1514,1715532462310,0.76,-0.95,-0.21,327.09,-186.4,-256.23
1515,1715532462320,0.7600000000000001,-0.9499999999999998,-0.21,327.09,-186.4,-256.23
1516,1715532462330,0.76,-0.95,-0.21,327.09,-186.4,-256.23
1517,1715532462340,0.76,-0.95,-0.21,327.09,-186.4,-256.23
1518,1715532462350,0.76,-0.95,-0.21,327.09,-186.4,-256.23
1519,1715532462360,0.7600000000000001,-0.9499999999999998,-0.21,327.09,-186.4,-256.23
1520,1715532462370,0.265,-1.235,0.4425,-11.977500000000006,-54.745000000000005,1.124999999999993
1521,1715532462380,0.4000000000000001,-1.13,0.23,-66.83,-10.99,273.86
1522,1715532462390,0.4,-1.13,0.23,-66.83,-10.99,273.86
1523,1715532462400,0.4,-1.13,0.23,-66.83,-10.99,273.86
1524,1715532462410,0.4000000000000001,-1.13,0.23,-66.83,-10.99,273.86
1525,1715532462420,0.62,-1.09,-0.18,-112.92,-20.69,292.85
1526,1715532462430,0.62,-1.09,-0.18000000000000002,-112.92,-20.69,292.85
1527,1715532462440,0.62,-1.09,-0.18,-112.92,-20.69,292.85
1528,1715532462450,0.665,-1.135,-0.35,-114.78,-42.61750000000001,299.41
1529,1715532462460,0.71,-1.18,-0.52,-120.36,-108.4,319.09
1530,1715532462470,0.71,-1.18,-0.52,-120.36,-108.40000000000002,319.09
1531,1715532462480,0.71,-1.18,-0.52,-120.36,-108.4,319.09
1532,1715532462490,0.77,-1.13,-0.4033333333333333,-144.65333333333334,-97.90000000000002,324.0133333333333
1533,1715532462500,0.89,-1.03,-0.17,-193.24,-76.9,333.86
1534,1715532462510,0.89,-1.03,-0.17,-193.24,-76.9,333.86
1535,1715532462520,0.89,-1.03,-0.17,-193.24,-76.9,333.86
1536,1715532462530,0.905,-1.03,-0.14,-222.47500000000002,-38.115,333.22
1537,1715532462540,0.91,-1.03,-0.13,-251.71,0.67,332.58
1538,1715532462550,0.91,-1.03,-0.13,-251.71,0.67,332.58
1539,1715532462560,0.91,-1.03,-0.13,-251.71,0.67,332.58
1540,1715532462570,1.33,-1.2025000000000001,0.034999999999999996,-276.065,-21.15,336.21
1541,1715532462580,1.47,-1.26,0.09000000000000001,-300.42,-42.97,339.84
1542,1715532462590,1.47,-1.26,0.09,-300.42,-42.97,339.84
1543,1715532462600,1.47,-1.26,0.09000000000000001,-300.42,-42.97,339.84
1544,1715532462610,1.47,-1.26,0.09,-300.42,-42.97,339.84
1545,1715532462620,1.47,-1.26,0.09000000000000001,-300.42,-42.97,339.84
1546,1715532462630,1.47,-1.26,0.09000000000000001,-300.42,-42.97,339.84
1547,1715532462640,1.47,-1.26,0.09,-300.42,-42.97,339.84
1548,1715532462650,1.47,-1.26,0.09,-300.42,-42.97,339.84
1549,1715532462660,1.47,-1.26,0.09000000000000001,-300.42,-42.97,339.84
1550,1715532462670,1.47,-1.26,0.09,-300.42,-42.97,339.84
1551,1715532462680,1.47,-1.26,0.09000000000000001,-300.42,-42.97,339.84
1552,1715532462690,1.47,-1.26,0.09,-300.42,-42.97,339.84
1553,1715532462700,2.125,-1.05,0.6599999999999999,-219.24,-46.51,145.355
1554,1715532462710,2.78,-0.84,1.23,-138.06,-50.05,-49.13
1555,1715532462720,2.9466666666666668,-0.68,1.01,-138.06,-50.04999999999999,-49.13
1556,1715532462730,3.03,-0.6,0.9,-68.79,161.38,-28.08
1557,1715532462740,3.03,-0.6,0.9,-68.79,161.38,-28.08
1558,1715532462750,3.03,-0.6,0.9,-68.79,161.38,-28.08
1559,1715532462760,2.8366666666666664,-0.59,0.7333333333333334,-37.193333333333335,188.9466666666667,-64.8
1560,1715532462770,2.45,-0.57,0.4,26.0,244.08,-138.24
1561,1715532462780,2.45,-0.57,0.4000000000000001,26.0,244.08,-138.24
1562,1715532462790,2.45,-0.57,0.4,26.0,244.08,-138.24
1563,1715532462800,2.075,-0.5475,0.265,96.68,239.93,-177.305
1564,1715532462810,1.95,-0.54,0.22,167.36,235.78,-216.37
1565,1715532462820,1.95,-0.54,0.22,167.36,235.78,-216.37
1566,1715532462830,1.95,-0.54,0.22,167.36,235.78,-216.37
1567,1715532462840,1.95,-0.54,0.22,167.36,235.78,-216.37
1568,1715532462850,1.95,-0.54,0.22,167.36,235.78,-216.37
1569,1715532462860,1.95,-0.54,0.22,167.36,235.78,-216.37
1570,1715532462870,1.95,-0.54,0.22,167.36,235.78,-216.37
1571,1715532462880,1.95,-0.54,0.22,167.36,235.78,-216.37
1572,1715532462890,1.545,-0.72,-0.009999999999999995,235.9,196.87,-259.855
1573,1715532462900,1.14,-0.9,-0.24,304.44,157.96,-303.34
1574,1715532462910,1.14,-0.9,-0.24,304.44,157.96,-303.34
1575,1715532462920,0.84,-1.47,-0.18,354.74,148.99,-283.81
1576,1715532462930,0.84,-1.47,-0.18000000000000002,354.74,148.99,-283.81
1577,1715532462940,0.84,-1.47,-0.18,354.74,148.99,-283.81
1578,1715532462950,0.84,-1.47,-0.18000000000000002,354.74,148.99,-283.81
1579,1715532462960,0.55,-0.96,-0.27,372.99,51.7,-289.61
1580,1715532462970,0.55,-0.96,-0.27,372.99,51.7,-289.61
1581,1715532462980,0.55,-0.96,-0.27,372.99,51.7,-289.61
1582,1715532462990,0.43,-0.8266666666666667,-0.22333333333333336,343.99666666666667,25.17,-275.37
1583,1715532463000,0.19,-0.56,-0.13,286.01,-27.89,-246.89
1584,1715532463010,0.19,-0.56,-0.13,286.01,-27.89,-246.89
1585,1715532463020,0.19000000000000003,-0.56,-0.13,286.01,-27.89,-246.89
1586,1715532463030,0.225,-0.515,-0.255,257.72,-90.41999999999999,-184.17499999999998
1587,1715532463040,0.26,-0.47,-0.38,229.43,-152.95,-121.46
1588,1715532463050,0.26,-0.47,-0.38000000000000006,229.42999999999998,-152.95,-121.46
1589,1715532463060,0.26,-0.47,-0.38,229.43,-152.95,-121.46
1590,1715532463070,0.77,-0.7925,0.2425,-31.404999999999994,-113.3125,0.4450000000000003
1591,1715532463080,0.94,-0.9,0.45,-118.35,-100.1,41.08
1592,1715532463090,0.94,-0.9,0.45,-118.34999999999998,-100.09999999999998,41.08
1593,1715532463100,0.94,-0.9,0.45,-118.35,-100.1,41.08
1594,1715532463110,0.85,-1.2,0.5775,-150.255,-5.937499999999999,122.92750000000001
1595,1715532463120,0.82,-1.3,0.62,-160.89,25.45,150.21
1596,1715532463130,0.82,-1.3,0.62,-160.89,25.45,150.21
1597,1715532463140,0.82,-1.3,0.62,-160.89,25.45,150.21
1598,1715532463150,0.82,-1.3,0.62,-160.89,25.45,150.21
1599,1715532463160,0.82,-1.3,0.62,-160.89,25.45,150.21
1600,1715532463170,0.82,-1.3,0.62,-160.89,25.45,150.21
1601,1715532463180,0.82,-1.3,0.62,-160.89,25.45,150.21
1602,1715532463190,0.82,-1.3,0.62,-160.89,25.45,150.21
1603,1715532463200,0.82,-1.3,0.62,-160.89,25.45,150.21
1604,1715532463210,0.82,-1.3,0.62,-160.89,25.45,150.21
1605,1715532463220,0.8925,-1.0975000000000001,0.4075,-118.02749999999999,-17.93,171.51
1606,1715532463230,1.11,-0.49,-0.23,10.56,-148.07,235.41
1607,1715532463240,1.11,-0.49,-0.23,10.56,-148.07,235.41
1608,1715532463250,1.11,-0.49,-0.23,10.56,-148.07,235.41
1609,1715532463260,1.11,-0.49,-0.23,10.56,-148.07,235.41
1610,1715532463270,0.915,-0.47,-0.335,-35.125,-83.435,237.09
1611,1715532463280,0.7200000000000001,-0.45,-0.44,-80.81,-18.8,238.77
1612,1715532463290,0.72,-0.45,-0.44,-80.81,-18.8,238.77
1613,1715532463300,0.755,-0.47,-0.41000000000000003,-142.485,6.254999999999999,262.51
1614,1715532463310,0.79,-0.49,-0.38000000000000006,-204.16,31.31,286.25
1615,1715532463320,0.79,-0.49,-0.38,-204.16,31.31,286.25
1616,1715532463330,0.79,-0.49,-0.38,-204.16,31.31,286.25
1617,1715532463340,0.79,-0.49,-0.38000000000000006,-204.16,31.31,286.25
1618,1715532463350,0.79,-0.49,-0.38,-204.16,31.31,286.25
1619,1715532463360,0.79,-0.49,-0.38,-204.16,31.31,286.25
1620,1715532463370,0.79,-0.49,-0.38,-204.16,31.31,286.25
1621,1715532463380,0.79,-0.49,-0.38,-204.16,31.31,286.25
1622,1715532463390,0.79,-0.49,-0.38,-204.16,31.31,286.25
1623,1715532463400,0.79,-0.49,-0.38,-204.16,31.31,286.25
1624,1715532463410,0.79,-0.49,-0.38,-204.16,31.31,286.25
1625,1715532463420,3.91,0.02,1.19,-209.84,91.37,75.07
1626,1715532463430,3.91,0.02,1.19,-209.84,91.37,75.07
1627,1715532463440,3.91,0.02,1.19,-209.84,91.37,75.07
1628,1715532463450,3.34,0.14666666666666667,1.02,-183.79666666666665,80.52666666666667,30.209999999999997
1629,1715532463460,2.2,0.4,0.68,-131.71,58.84,-59.51
1630,1715532463470,2.2,0.4,0.68,-131.71,58.84,-59.51
1631,1715532463480,2.2,0.4,0.68,-131.71,58.84,-59.51
1632,1715532463490,2.2825,0.36250000000000004,0.8825000000000001,-117.6575,56.75,-69.795
1633,1715532463500,2.53,0.25,1.49,-75.5,50.48,-100.65000000000002
1634,1715532463510,2.53,0.25,1.49,-75.5,50.48,-100.65
1635,1715532463520,2.53,0.25,1.49,-75.5,50.48,-100.65
1636,1715532463530,2.53,0.25,1.49,-75.5,50.48,-100.65000000000002
1637,1715532463540,1.79,-0.29,1.2,54.99,186.22,-173.46
1638,1715532463550,1.79,-0.29,1.2,54.99,186.22,-173.46
1639,1715532463560,1.79,-0.29,1.2,54.99,186.22,-173.46
1640,1715532463570,1.7525,-0.7775,1.02,130.46,189.635,-150.91000000000003
1641,1715532463580,1.74,-0.94,0.96,205.92999999999998,193.05000000000004,-128.36
1642,1715532463590,1.74,-0.94,0.96,205.93,193.05,-128.36
1643,1715532463600,1.74,-0.94,0.96,205.92999999999998,193.05000000000004,-128.36
1644,1715532463610,1.88,-1.1866666666666668,0.6133333333333333,293.09,277.1566666666667,-156.23333333333332
1645,1715532463620,1.95,-1.31,0.44,336.67,319.21,-170.17
1646,1715532463630,1.95,-1.31,0.44,336.67,319.21,-170.17
1647,1715532463640,1.95,-1.31,0.44,336.67,319.21,-170.17
1648,1715532463650,1.26,-1.59,-0.68,479.68,237.12,-227.54
1649,1715532463660,1.26,-1.59,-0.68,479.68,237.12,-227.54
1650,1715532463670,1.26,-1.59,-0.68,479.68,237.12,-227.54
1651,1715532463680,1.26,-1.59,-0.68,479.68,237.12,-227.54
1652,1715532463690,1.26,-1.59,-0.68,479.68,237.12,-227.54
1653,1715532463700,1.26,-1.59,-0.68,479.68,237.12,-227.54
1654,1715532463710,1.26,-1.59,-0.68,479.68,237.12,-227.54
1655,1715532463720,1.26,-1.59,-0.68,479.68,237.12,-227.54
1656,1715532463730,1.26,-1.59,-0.68,479.68,237.12,-227.54
1657,1715532463740,1.26,-1.59,-0.68,479.68,237.12,-227.54
1658,1715532463750,0.6825,-0.8175000000000001,-0.5675,359.28249999999997,-3.344999999999999,-317.39750000000004
1659,1715532463760,0.18999999999999997,-0.45999999999999996,-0.37666666666666665,272.90666666666664,-89.33666666666666,-318.6233333333334
1660,1715532463770,0.04,-0.41,-0.3,180.42,-101.01,-261.17
1661,1715532463780,0.04,-0.41,-0.3,180.42,-101.01,-261.17
1662,1715532463790,0.04,-0.41,-0.3,180.42,-101.01,-261.17
1663,1715532463800,0.64,-1.05,0.09000000000000001,67.25999999999999,-89.53666666666668,-119.36333333333334
1664,1715532463810,0.64,-1.05,0.09,10.68,-83.8,-48.46
1665,1715532463820,0.64,-1.05,0.09000000000000001,10.68,-83.8,-48.46
1666,1715532463830,0.64,-1.05,0.09,10.68,-83.8,-48.46
1667,1715532463840,0.36999999999999994,-1.06,0.36000000000000004,-108.40000000000002,62.62,76.17
1668,1715532463850,0.37,-1.06,0.36,-108.4,62.62,76.17
1669,1715532463860,0.36999999999999994,-1.06,0.36000000000000004,-108.40000000000002,62.62,76.17
1670,1715532463870,0.37,-1.06,0.36,-108.4,62.62,76.17
1671,1715532463880,0.36999999999999994,-1.06,0.36000000000000004,-108.40000000000002,62.62,76.17
1672,1715532463890,0.36999999999999994,-1.06,0.36000000000000004,-108.40000000000002,62.62,76.17
1673,1715532463900,0.37,-1.06,0.36,-108.4,62.62,76.17
1674,1715532463910,0.36999999999999994,-1.06,0.36000000000000004,-108.40000000000002,62.62,76.17
1675,1715532463920,0.37,-1.06,0.36,-108.4,62.62,76.17
1676,1715532463930,0.36999999999999994,-1.06,0.36000000000000004,-108.40000000000002,62.62,76.17
1677,1715532463940,0.5166666666666667,-1.3233333333333335,0.16666666666666666,-136.41333333333333,23.313333333333333,171.69000000000003
1678,1715532463950,1.425,-2.105,-0.235,-212.2475,-62.5175,407.0875
1679,1715532463960,2.04,-2.36,-0.25,-271.67,-84.17,540.16
1680,1715532463970,2.04,-2.36,-0.25,-271.67,-84.17,540.16
1681,1715532463980,2.04,-2.36,-0.25,-271.67,-84.17,540.16
1682,1715532463990,2.21,-1.685,0.12,-325.71500000000003,-21.150000000000002,505.125
1683,1715532464000,2.38,-1.01,0.49,-379.76,41.87,470.09
1684,1715532464010,2.38,-1.01,0.49,-379.76,41.87,470.09
1685,1715532464020,2.38,-1.01,0.49,-379.76,41.87,470.09
1686,1715532464030,1.8325,-0.9125,0.2125,-312.7475,35.277499999999996,346.82
1687,1715532464040,1.6499999999999997,-0.88,0.12,-290.41,33.08,305.73
1688,1715532464050,1.6499999999999997,-0.88,0.12,-290.41,33.08,305.73
1689,1715532464060,1.65,-0.88,0.12,-290.41,33.08,305.73
1690,1715532464070,1.4833333333333332,-0.7933333333333333,0.13333333333333333,-275.5166666666667,-19.71666666666667,272.3
1691,1715532464080,1.3999999999999997,-0.75,0.14,-245.73,-125.31,205.43999999999997
1692,1715532464090,1.4,-0.75,0.14,-245.73,-125.31,205.44
1693,1715532464100,1.3999999999999997,-0.75,0.14,-245.73,-125.31,205.43999999999997
1694,1715532464110,1.3999999999999997,-0.75,0.14,-245.73,-125.31,205.43999999999997
1695,1715532464120,1.91,-0.76,0.43,-212.46,-214.05,185.3
1696,1715532464130,1.91,-0.7600000000000001,0.43,-212.46,-214.05000000000004,185.30000000000004
1697,1715532464140,1.91,-0.76,0.43,-212.46,-214.05,185.3
1698,1715532464150,3.09,-0.27,1.1,-202.94000000000003,-205.50333333333333,152.54666666666665
1699,1715532464160,3.09,-0.27,1.1,-198.18,-201.23,136.17
1700,1715532464170,3.09,-0.27,1.1,-198.17999999999998,-201.23,136.17
1701,1715532464180,3.09,-0.27,1.1,-198.18,-201.23,136.17
1702,1715532464190,3.09,-0.27,1.1,-198.18,-201.23,136.17
1703,1715532464200,3.09,-0.27,1.1,-198.17999999999998,-201.23,136.17
1704,1715532464210,3.09,-0.27,1.1,-198.18,-201.23,136.17
1705,1715532464220,3.09,-0.27,1.1,-198.18,-201.23,136.17
1706,1715532464230,3.09,-0.27,1.1,-198.17999999999998,-201.23,136.17
1707,1715532464240,3.09,-0.27,1.1,-198.18,-201.23,136.17
1708,1715532464250,3.09,-0.27,1.1,-198.17999999999998,-201.23,136.17
1709,1715532464260,3.09,-0.27,1.1,-198.18,-201.23,136.17
1710,1715532464270,3.123333333333333,-0.22333333333333336,1.0766666666666669,-144.85666666666665,-35.76333333333332,30.76333333333332
1711,1715532464280,3.19,-0.13,1.03,-38.21,295.17,-180.05000000000004
1712,1715532464290,3.19,-0.13,1.03,-38.21,295.17,-180.05
1713,1715532464300,2.64,-0.7799999999999999,0.3499999999999999,62.01,318.48333333333335,-190.06333333333336
1714,1715532464310,2.64,-0.7799999999999999,0.3499999999999999,112.12,330.14,-195.07000000000002
1715,1715532464320,2.64,-0.78,0.35,112.12,330.14,-195.07
1716,1715532464330,2.64,-0.7799999999999999,0.3499999999999999,112.12,330.14,-195.07000000000002
1717,1715532464340,2.49,-1.12,0.37,186.46,266.8325,-211.3675
1718,1715532464350,2.49,-1.12,0.36999999999999994,211.24,245.73,-216.80000000000004
1719,1715532464360,2.49,-1.12,0.36999999999999994,211.24,245.73,-216.80000000000004
1720,1715532464370,2.4400000000000004,-1.2650000000000001,0.35,211.24,245.73,-216.8
1721,1715532464380,2.29,-1.7,0.29,336.85,238.94999999999996,-275.27
1722,1715532464390,2.29,-1.7,0.29,336.85,238.95,-275.27
1723,1715532464400,2.29,-1.7,0.29,336.85,238.95,-275.27
1724,1715532464410,2.29,-1.7,0.29,336.85,238.94999999999996,-275.27
1725,1715532464420,2.29,-1.7,0.29,336.85,238.94999999999996,-275.27
1726,1715532464430,2.29,-1.7,0.29,336.85,238.95,-275.27
1727,1715532464440,2.29,-1.7,0.29,336.85,238.94999999999996,-275.27
1728,1715532464450,2.29,-1.7,0.29,336.85,238.95,-275.27
1729,1715532464460,2.29,-1.7,0.29,336.85,238.94999999999996,-275.27
1730,1715532464470,1.08,-1.57,-0.97,431.64,-47.42,-423.58
1731,1715532464480,1.08,-1.57,-0.9700000000000001,431.64000000000004,-47.419999999999995,-423.58
1732,1715532464490,0.96,-1.4700000000000002,-0.59,303.62,-41.44,-400.36
1733,1715532464500,0.84,-1.37,-0.21,175.6,-35.46,-377.14000000000004
1734,1715532464510,0.84,-1.37,-0.21,175.6,-35.46,-377.14
1735,1715532464520,0.84,-1.37,-0.21,175.6,-35.46,-377.14000000000004
1736,1715532464530,0.2475,-1.415,-0.345,138.855,-11.81,-300.05
1737,1715532464540,0.05000000000000001,-1.43,-0.38999999999999996,102.11,11.839999999999998,-222.96
1738,1715532464550,0.05,-1.43,-0.39,102.11,11.84,-222.96
1739,1715532464560,0.05000000000000001,-1.43,-0.38999999999999996,102.11,11.839999999999998,-222.96
1740,1715532464570,0.14,-1.315,-0.225,102.11,11.84,-222.96
1741,1715532464580,0.23,-1.2,-0.06,41.44,12.82,-47.73
1742,1715532464590,0.23,-1.2,-0.06,41.44,12.82,-47.73
1743,1715532464600,0.10250000000000001,-1.105,-0.0875,25.557499999999997,30.305,-9.277499999999996
1744,1715532464610,-0.28,-0.82,-0.17,-22.09,82.76,106.08
1745,1715532464620,-0.28,-0.82,-0.17,-22.09,82.76,106.08
1746,1715532464630,-0.28,-0.82,-0.17,-22.09,82.76,106.08
1747,1715532464640,-0.28,-0.82,-0.17,-22.09,82.76,106.08
1748,1715532464650,-0.1566666666666667,-0.9166666666666666,-0.16,-39.50666666666667,67.17666666666666,171.51
1749,1715532464660,0.09000000000000001,-1.11,-0.14,-74.34,36.01,302.37
1750,1715532464670,0.09,-1.11,-0.14,-74.34,36.01,302.37
1751,1715532464680,0.8633333333333333,-1.39,-0.060000000000000005,-74.34,36.01,302.37
1752,1715532464690,1.25,-1.53,-0.02,-100.235,34.545,345.8275
1753,1715532464700,1.25,-1.53,-0.02,-177.92,30.149999999999995,476.2
1754,1715532464710,1.25,-1.53,-0.02,-177.92,30.149999999999995,476.2
1755,1715532464720,1.25,-1.53,-0.02,-177.92,30.15,476.2
1756,1715532464730,1.25,-1.53,-0.02,-177.92,30.149999999999995,476.2
1757,1715532464740,1.25,-1.53,-0.02,-177.92,30.15,476.2
1758,1715532464750,1.25,-1.53,-0.02,-177.92,30.149999999999995,476.2
1759,1715532464760,1.25,-1.53,-0.02,-177.92,30.149999999999995,476.2
1760,1715532464770,1.25,-1.53,-0.02,-177.92,30.15,476.2
1761,1715532464780,1.25,-1.53,-0.02,-177.92,30.15,476.2
1762,1715532464790,1.25,-1.53,-0.02,-177.92,30.149999999999995,476.2
1763,1715532464800,1.2875,-0.9525,-0.05,-182.8175,-14.7525,351.73
1764,1715532464810,1.3,-0.7600000000000001,-0.06,-184.44999999999996,-29.72,310.24
1765,1715532464820,1.3,-0.76,-0.06,-184.45,-29.72,310.24
1766,1715532464830,1.4100000000000001,-0.6933333333333334,0.016666666666666673,-187.62333333333333,-56.169999999999995,312.2966666666667
1767,1715532464840,1.63,-0.56,0.17,-193.97,-109.07,316.41
1768,1715532464850,1.63,-0.56,0.17,-193.97,-109.07,316.41
1769,1715532464860,1.63,-0.56,0.17,-193.97,-109.07,316.41
1770,1715532464870,2.21,-0.5533333333333333,0.42333333333333334,-198.36333333333334,-100.88999999999999,304.77000000000004
1771,1715532464880,2.5,-0.55,0.55,-207.15,-84.53,281.49
1772,1715532464890,2.5,-0.55,0.55,-207.15,-84.53,281.49
1773,1715532464900,2.5,-0.55,0.55,-207.15,-84.53,281.49
1774,1715532464910,2.5,-0.55,0.55,-207.15,-84.53,281.49
1775,1715532464920,2.5,-0.55,0.55,-207.15,-84.53,281.49
1776,1715532464930,2.5,-0.55,0.55,-207.15,-84.53,281.49
1777,1715532464940,2.5,-0.55,0.55,-207.15,-84.53,281.49
1778,1715532464950,2.5,-0.55,0.55,-207.15,-84.53,281.49
1779,1715532464960,2.5,-0.55,0.55,-207.15,-84.53,281.49
1780,1715532464970,2.5,-0.55,0.55,-207.15,-84.53,281.49
1781,1715532464980,2.5,-0.55,0.55,-207.15,-84.53,281.49
1782,1715532464990,2.92,0.1133333333333333,1.01,-156.13,103.74333333333334,89.14999999999999
1783,1715532465000,3.23,0.32,1.24,-94.12,201.54,-104.61
1784,1715532465010,3.23,0.32,1.24,-94.12,201.54,-104.61
1785,1715532465020,3.23,0.32,1.24,-94.12,201.54,-104.61
1786,1715532465030,2.9499999999999997,-0.2333333333333333,1.24,-94.12,201.54,-104.61
1787,1715532465040,2.81,-0.51,1.24,63.17,231.32,-201.42
1788,1715532465050,2.81,-0.51,1.24,63.169999999999995,231.32000000000002,-201.42
1789,1715532465060,2.81,-0.51,1.24,63.169999999999995,231.32000000000002,-201.42
1790,1715532465070,2.32,-0.85,0.59,202.44999999999996,212.1,-255.80000000000004
1791,1715532465080,2.32,-0.85,0.59,202.44999999999996,212.1,-255.80000000000004
1792,1715532465090,2.32,-0.85,0.59,202.45,212.1,-255.8
1793,1715532465100,2.1466666666666665,-0.9733333333333333,0.5333333333333333,202.44999999999996,212.1,-255.80000000000004
1794,1715532465110,1.8,-1.22,0.42,237.4433333333333,183.4333333333333,-271.14000000000004
1795,1715532465120,1.8,-1.22,0.42,307.43,126.1,-301.82
1796,1715532465130,1.8,-1.22,0.42,307.43,126.09999999999998,-301.82
1797,1715532465140,1.7000000000000002,-1.345,0.21,345.33500000000004,119.08,-336.365
1798,1715532465150,1.6000000000000003,-1.47,0.0,383.24,112.06,-370.91
1799,1715532465160,1.6,-1.47,0.0,383.24,112.06,-370.91
1800,1715532465170,1.6000000000000003,-1.47,0.0,383.24,112.06,-370.91
1801,1715532465180,1.435,-1.4849999999999999,-0.195,343.235,124.375,-377.915
1802,1715532465190,1.38,-1.49,-0.26,329.9,128.48,-380.25
1803,1715532465200,1.38,-1.49,-0.26,329.9,128.48,-380.25
1804,1715532465210,1.38,-1.49,-0.26,329.9,128.48,-380.25
1805,1715532465220,1.16,-1.25,-0.12,255.86,135.5,-351.01
1806,1715532465230,1.16,-1.25,-0.12,255.86,135.5,-351.01
1807,1715532465240,1.16,-1.25,-0.12,255.86,135.5,-351.01
1808,1715532465250,1.16,-1.25,-0.12,255.86,135.5,-351.01
1809,1715532465260,1.16,-1.25,-0.12,255.86,135.5,-351.01
1810,1715532465270,1.16,-1.25,-0.12,255.86,135.5,-351.01
1811,1715532465280,1.16,-1.25,-0.12,255.86,135.5,-351.01
1812,1715532465290,1.16,-1.25,-0.12,255.86,135.5,-351.01
1813,1715532465300,1.16,-1.25,-0.12,255.86,135.5,-351.01
1814,1715532465310,1.16,-1.25,-0.12,255.86,135.5,-351.01
1815,1715532465320,0.7466666666666666,-1.1733333333333333,-0.2233333333333333,228.61666666666667,57.90333333333333,-285.68333333333334
1816,1715532465330,0.016666666666666663,-0.91,-0.24333333333333332,174.13,-97.29,-155.03
1817,1715532465340,0.21,-0.69,0.13,97.625,-88.745,-79.865
1818,1715532465350,0.21,-0.69,0.13,21.12,-80.2,-4.7
1819,1715532465360,0.21,-0.69,0.13,21.12,-80.2,-4.7
1820,1715532465370,0.003333333333333336,-0.7466666666666666,0.09666666666666668,-12.409999999999998,-31.08666666666667,60.60666666666666
1821,1715532465380,-0.41,-0.86,0.03,-79.47,67.14,191.22
1822,1715532465390,-0.41,-0.86,0.03,-79.47,67.14,191.22
1823,1715532465400,-0.41,-0.86,0.03,-79.47,67.14,191.22
1824,1715532465410,-0.20333333333333334,-1.0533333333333335,-0.10666666666666667,-126.63,50.416666666666664,265.21666666666664
1825,1715532465420,0.21,-1.44,-0.38,-220.95,16.97,413.21
1826,1715532465430,0.21,-1.4400000000000002,-0.38000000000000006,-220.94999999999996,16.97,413.21
1827,1715532465440,0.21,-1.4400000000000002,-0.38000000000000006,-220.94999999999996,16.97,413.21
1828,1715532465450,0.21,-1.44,-0.38,-220.95,16.97,413.21
1829,1715532465460,0.21,-1.4400000000000002,-0.38000000000000006,-220.94999999999996,16.97,413.21
1830,1715532465470,0.21,-1.4400000000000002,-0.38000000000000006,-220.94999999999996,16.97,413.21
1831,1715532465480,0.21,-1.44,-0.38,-220.95,16.97,413.21
1832,1715532465490,0.21,-1.4400000000000002,-0.38000000000000006,-220.94999999999996,16.97,413.21
1833,1715532465500,0.21,-1.44,-0.38,-220.95,16.97,413.21
1834,1715532465510,0.8999999999999999,-1.5466666666666666,-0.22333333333333336,-217.04333333333332,-25.756666666666664,408.6933333333333
1835,1715532465520,2.28,-1.76,0.09,-209.23,-111.21,399.66
1836,1715532465530,2.42,-0.86,0.29,-298.0566666666667,32.836666666666666,437.7066666666667
1837,1715532465540,2.49,-0.41,0.39,-342.47,104.86,456.73
1838,1715532465550,2.49,-0.41,0.38999999999999996,-342.47,104.86,456.73
1839,1715532465560,2.49,-0.41,0.39,-342.47,104.86,456.73
1840,1715532465570,1.9700000000000002,-0.295,0.20500000000000002,-306.365,37.905,366.15
1841,1715532465580,1.45,-0.18000000000000002,0.02,-270.26,-29.05,275.57
1842,1715532465590,1.45,-0.18,0.02,-270.26,-29.05,275.57
1843,1715532465600,1.45,-0.18000000000000002,0.02,-270.26,-29.05,275.57
1844,1715532465610,1.77,-0.17,0.4,-270.26,-29.05,275.57
1845,1715532465620,1.7700000000000002,-0.17,0.4000000000000001,-153.38,-264.04,105.41000000000001
1846,1715532465630,1.77,-0.17,0.4,-153.38,-264.04,105.41
1847,1715532465640,1.9666666666666668,-0.2333333333333333,0.5433333333333333,-166.95000000000002,-224.18333333333337,106.75333333333333
1848,1715532465650,2.36,-0.36000000000000004,0.83,-194.09,-144.47,109.44
1849,1715532465660,2.36,-0.36,0.83,-194.09,-144.47,109.44
1850,1715532465670,2.36,-0.36000000000000004,0.83,-194.09,-144.47,109.44
1851,1715532465680,3.0875,0.007500000000000007,1.3775,-203.93,-65.5025,89.8875
1852,1715532465690,3.33,0.13,1.56,-207.21,-39.18,83.37
1853,1715532465700,3.33,0.13,1.5599999999999998,-207.21,-39.18,83.37
1854,1715532465710,3.33,0.13,1.5599999999999998,-207.21,-39.18,83.37
1855,1715532465720,2.49,0.05,1.31,-112.79,66.89,-22.64
1856,1715532465730,2.49,0.05000000000000001,1.31,-112.79,66.89,-22.64
1857,1715532465740,2.49,0.05,1.31,-112.79,66.89,-22.64
1858,1715532465750,2.626666666666667,0.08,1.4400000000000002,-112.79,66.89,-22.64
1859,1715532465760,2.9,0.14,1.7,-112.79,66.89,-22.64
1860,1715532465770,2.9,0.14,1.7,-112.79,66.89,-22.64
1861,1715532465780,2.9,0.14,1.7,-112.79,66.89,-22.64
1862,1715532465790,2.9,0.14,1.7,-112.79,66.89,-22.64
1863,1715532465800,2.9,0.14,1.7,-112.79,66.89,-22.64
1864,1715532465810,2.9,0.14,1.7,-112.79,66.89,-22.64
1865,1715532465820,2.9,0.14,1.7,-112.79,66.89,-22.64
1866,1715532465830,2.9,0.14,1.7,-112.79,66.89,-22.64
1867,1715532465840,2.9,0.14,1.7,-112.79,66.89,-22.64
1868,1715532465850,2.18,-0.53,0.46,341.43,158.87,-147.4
1869,1715532465860,2.18,-0.53,0.46,341.43,158.87,-147.4
