id,timestamp,acc_x,acc_y,acc_z,gyro_x,gyro_y,gyro_z
0,1715532696240,-0.49,-0.57,1.43,-32.20333333333333,114.60333333333334,-43.946666666666665
1,1715532696250,-0.9399999999999998,-0.31,1.37,-44.13,178.71,-38.76
2,1715532696260,-0.94,-0.31,1.37,-44.13,178.71,-38.76
3,1715532696270,-0.94,-0.31,1.37,-44.13,178.71,-38.76
4,1715532696280,-0.9399999999999998,-0.31,1.37,-44.13,178.71,-38.76
5,1715532696290,-0.6983333333333334,-0.20166666666666666,1.1116666666666666,-131.66333333333333,97.22666666666667,-46.593333333333334
6,1715532696300,-0.65,-0.18000000000000002,1.06,-149.17,80.93,-48.16
7,1715532696310,-0.65,-0.18,1.06,-149.17,80.93,-48.16
8,1715532696320,-0.6266666666666666,-0.18999999999999997,0.9533333333333335,-153.42166666666665,81.29666666666667,-42.13666666666666
9,1715532696330,-0.58,-0.21,0.7399999999999999,-174.67999999999998,83.13,-12.020000000000001
10,1715532696340,-0.58,-0.21,0.7399999999999999,-174.67999999999998,83.13,-12.020000000000001
11,1715532696350,-0.58,-0.21000000000000002,0.74,-174.68,83.13,-12.02
12,1715532696360,-0.44999999999999996,-0.19000000000000003,0.69,-142.3,105.41000000000001,6.23
13,1715532696370,-0.32,-0.17,0.64,-109.92,127.69,24.48
14,1715532696380,-0.32,-0.17,0.64,-109.92,127.69000000000001,24.48
15,1715532696390,-0.32,-0.17,0.64,-109.92,127.69000000000001,24.48
16,1715532696400,-0.42,-0.19666666666666666,0.7866666666666666,-105.04,81.17666666666666,32.28666666666667
17,1715532696410,-0.4699999999999999,-0.21000000000000002,0.86,-102.6,57.92,36.19
18,1715532696420,-0.4699999999999999,-0.21000000000000002,0.86,-102.6,57.92,36.19
19,1715532696430,-0.4699999999999999,-0.21000000000000002,0.86,-102.6,57.92,36.19
20,1715532696440,-0.39,-0.06599999999999999,0.804,-89.46400000000001,8.016,40.39
21,1715532696450,-0.37,-0.03,0.79,-86.18,-4.46,41.44
22,1715532696460,-0.37,-0.03,0.79,-86.18,-4.46,41.44
23,1715532696470,-0.37,-0.03,0.79,-86.18,-4.46,41.44
24,1715532696480,-0.37,-0.03,0.79,-86.18,-4.46,41.44
25,1715532696490,-0.37,-0.03,0.79,-86.18,-4.46,41.44
26,1715532696500,-0.37,-0.03,0.79,-86.18,-4.46,41.44
27,1715532696510,-0.37,-0.03,0.79,-86.18,-4.46,41.44
28,1715532696520,-0.37,-0.03,0.79,-86.18,-4.46,41.44
29,1715532696530,-0.37,-0.03,0.79,-86.18,-4.46,41.44
30,1715532696540,-0.25,0.67,2.36,-219.3,-5.98,107.23999999999998
31,1715532696550,-0.25,0.67,2.36,-219.3,-5.98,107.24
32,1715532696560,-0.76,0.475,2.8025,-98.4975,33.709999999999994,69.7025
33,1715532696570,-0.93,0.41,2.95,-58.23,46.94,57.19
34,1715532696580,-0.93,0.41,2.95,-58.23,46.94,57.19
35,1715532696590,-0.7250000000000001,0.495,2.8,-52.614999999999995,-17.759999999999998,45.745
36,1715532696600,-0.52,0.58,2.65,-47.0,-82.46,34.3
37,1715532696610,-0.52,0.58,2.65,-47.0,-82.46,34.3
38,1715532696620,-0.52,0.58,2.65,-47.0,-82.46,34.3
39,1715532696630,-0.544,0.554,2.538,-10.963999999999999,-65.36999999999999,23.522
40,1715532696640,-0.64,0.45,2.09,133.18,2.99,-19.59
41,1715532696650,-0.64,0.45,2.09,133.18,2.99,-19.59
42,1715532696660,-0.64,0.45,2.09,133.18,2.99,-19.59
43,1715532696670,-0.64,0.45,2.09,133.18,2.99,-19.59
44,1715532696680,-0.64,0.45,2.09,133.18,2.99,-19.59
45,1715532696690,-0.64,0.45,2.09,133.18,2.99,-19.59
46,1715532696700,-0.64,0.45,2.09,133.18,2.99,-19.59
47,1715532696710,-0.64,0.45,2.09,133.18,2.99,-19.59
48,1715532696720,-0.64,0.45,2.09,133.18,2.99,-19.59
49,1715532696730,-0.7,0.1875,1.0325,242.72500000000002,-25.9825,-22.6125
50,1715532696740,-0.72,0.1,0.68,279.24,-35.64,-23.62
51,1715532696750,-0.69,-0.25,0.48,325.01,-50.42,2.99
52,1715532696760,-0.69,-0.25,0.48,325.01,-50.42,2.99
53,1715532696770,-0.69,-0.25,0.48,325.01,-50.42,2.99
54,1715532696780,-0.57,-0.29,0.476,313.462,-67.06800000000001,21.35
55,1715532696790,-0.39,-0.35,0.47,296.14,-92.04,48.89
56,1715532696800,-0.39,-0.35,0.47,296.14,-92.04,48.89
57,1715532696810,-0.39,-0.35,0.47,296.14,-92.04,48.89
58,1715532696820,-0.2966666666666667,-0.24666666666666667,0.5,289.1433333333333,-59.38666666666668,52.916666666666664
59,1715532696830,-0.11,-0.04,0.56,275.15,5.92,60.97
60,1715532696840,-0.11,-0.04,0.56,275.15,5.92,60.97
61,1715532696850,-0.11,-0.04,0.56,275.15,5.92,60.97
62,1715532696860,-0.11,-0.04,0.56,275.15,5.92,60.97
63,1715532696870,-0.69,-0.28,0.94,58.9,76.23,33.87
64,1715532696880,-0.69,-0.28,0.94,58.9,76.23,33.87
65,1715532696890,-0.69,-0.28,0.94,58.9,76.23,33.87
66,1715532696900,-0.54,-0.7,1.26,-52.31,-21.18,46.02
67,1715532696910,-0.54,-0.7,1.26,-52.31,-21.18,46.02
68,1715532696920,-0.54,-0.7,1.26,-52.31,-21.18,46.02
69,1715532696930,-0.36750000000000005,-0.585,1.1075,-52.31,-21.18,46.02
70,1715532696940,0.15,-0.24,0.65,-145.2,-25.02,-39.12
71,1715532696950,0.15,-0.24,0.65,-145.2,-25.02,-39.12
72,1715532696960,0.15,-0.24,0.65,-145.2,-25.02,-39.12
73,1715532696970,0.15,-0.24,0.65,-145.2,-25.02,-39.12
74,1715532696980,0.15,-0.24,0.65,-145.2,-25.02,-39.12
75,1715532696990,0.15,-0.24,0.65,-145.2,-25.02,-39.12
76,1715532697000,0.15,-0.24,0.65,-145.2,-25.02,-39.12
77,1715532697010,0.15,-0.24,0.65,-145.2,-25.02,-39.12
78,1715532697020,0.15,-0.24,0.65,-145.2,-25.02,-39.12
79,1715532697030,0.15,-0.24,0.65,-145.2,-25.02,-39.12
80,1715532697040,0.15,-0.24,0.65,-145.2,-25.02,-39.12
81,1715532697050,0.15,-0.24,0.65,-145.2,-25.02,-39.12
82,1715532697060,-0.33999999999999997,-0.275,0.555,-149.72,66.195,-71.045
83,1715532697070,-0.83,-0.31,0.46,-154.24,157.41,-102.97
84,1715532697080,-0.83,-0.31,0.46,-154.24,157.41,-102.97
85,1715532697090,-0.8975,-0.0775,0.2575,-147.6025,75.6525,-101.5975
86,1715532697100,-0.92,0.0,0.19000000000000003,-145.39,48.4,-101.14
87,1715532697110,-0.9200000000000002,0.0,0.19,-145.39,48.4,-101.14
88,1715532697120,-0.92,0.0,0.19000000000000003,-145.39,48.4,-101.14
89,1715532697130,-0.88,0.025,0.255,-177.39999999999998,18.98,-73.12
90,1715532697140,-0.84,0.05,0.32,-209.41,-10.44,-45.1
91,1715532697150,-0.84,0.05000000000000001,0.32,-209.41,-10.44,-45.1
92,1715532697160,-0.84,0.05,0.32,-209.41,-10.44,-45.1
93,1715532697170,-0.84,0.05,0.32,-209.41,-10.44,-45.1
94,1715532697180,-0.84,0.05,0.32,-209.41,-10.44,-45.1
95,1715532697190,-0.84,0.05,0.32,-209.41,-10.44,-45.1
96,1715532697200,-0.84,0.05,0.32,-209.41,-10.44,-45.1
97,1715532697210,-0.84,0.05,0.32,-209.41,-10.44,-45.1
98,1715532697220,-0.84,0.05,0.32,-209.41,-10.44,-45.1
99,1715532697230,-0.84,0.05000000000000001,0.32,-209.41,-10.44,-45.1
100,1715532697240,-0.84,0.05,0.32,-209.41,-10.44,-45.1
101,1715532697250,-0.815,0.535,1.255,-149.32,-89.965,14.404999999999998
102,1715532697260,-0.79,1.02,2.19,-89.23,-169.49,73.91
103,1715532697270,-0.79,1.02,2.19,-89.23,-169.49,73.91
104,1715532697280,-0.6725,0.9475,2.2275,-74.55250000000001,-121.7925,60.955
105,1715532697290,-0.32,0.73,2.34,-30.52,21.3,22.09
106,1715532697300,-0.32,0.73,2.34,-30.52,21.3,22.09
107,1715532697310,-0.32,0.73,2.34,-30.52,21.3,22.09
108,1715532697320,-0.725,0.725,2.1799999999999997,50.809999999999995,-7.540000000000001,6.65
109,1715532697330,-1.13,0.72,2.02,132.14,-36.38,-8.79
110,1715532697340,-1.13,0.72,2.02,132.14,-36.38,-8.79
111,1715532697350,-1.13,0.72,2.02,132.14,-36.38,-8.79
112,1715532697360,-0.6950000000000001,0.3825,1.3675,172.08999999999997,-117.405,7.57
113,1715532697370,-0.55,0.27,1.15,212.04,-198.43,23.93
114,1715532697380,-0.55,0.27,1.15,212.04,-198.43,23.93
115,1715532697390,-0.55,0.27,1.15,212.04,-198.43,23.93
116,1715532697400,-0.71,-0.09,0.63,283.08,-125.965,-3.8125000000000004
117,1715532697410,-0.71,-0.09,0.63,306.76,-101.81,-13.06
118,1715532697420,-0.71,-0.09000000000000001,0.63,306.76,-101.81,-13.06
119,1715532697430,-0.71,-0.09,0.63,306.76,-101.81,-13.06
120,1715532697440,-0.8,-0.46,0.44,341.49,-80.2,15.169999999999998
121,1715532697450,-0.8,-0.46,0.44,376.22,-58.59,43.4
122,1715532697460,-0.8,-0.46,0.44,376.22,-58.59,43.4
123,1715532697470,-0.8000000000000002,-0.46,0.44,376.22,-58.59,43.4
124,1715532697480,-0.845,-0.24000000000000002,0.42000000000000004,359.255,-49.405,70.435
125,1715532697490,-0.89,-0.02,0.4,342.29,-40.22,97.47
126,1715532697500,-0.89,-0.02,0.4,342.29,-40.22,97.47
127,1715532697510,-0.89,-0.02,0.4,342.29,-40.22,97.47
128,1715532697520,-0.89,-0.02,0.4,342.29,-40.22,97.47
129,1715532697530,-0.89,-0.02,0.4,342.29,-40.22,97.47
130,1715532697540,-0.89,-0.02,0.4,342.29,-40.22,97.47
131,1715532697550,-0.89,-0.02,0.4,342.29,-40.22,97.47
132,1715532697560,-0.89,-0.02,0.4,342.29,-40.22,97.47
133,1715532697570,-0.89,-0.02,0.4000000000000001,342.29,-40.22,97.46999999999998
134,1715532697580,-0.9325,-0.0475,0.6,282.81,12.972500000000004,90.2225
135,1715532697590,-0.88,-0.11,1.015,59.175000000000004,47.395,46.11
136,1715532697600,-0.7,-0.09,0.83,13.98,-77.76,23.74
137,1715532697610,-0.7,-0.09,0.83,13.98,-77.76,23.74
138,1715532697620,-0.7,-0.09,0.83,13.98,-77.76,23.74
139,1715532697630,-0.12249999999999998,-0.015,0.5825,-116.07,-161.985,-25.235000000000003
140,1715532697640,0.07,0.01,0.5,-159.42,-190.06000000000003,-41.56
141,1715532697650,0.07,0.01,0.5,-159.42,-190.06,-41.56
142,1715532697660,0.07,0.01,0.5,-159.42,-190.06,-41.56
143,1715532697670,0.09,-0.31,0.57,-191.64749999999998,-6.91,-75.5275
144,1715532697680,0.09000000000000001,-0.31,0.57,-202.39,54.14000000000001,-86.84999999999998
145,1715532697690,0.09,-0.31,0.57,-202.39,54.14,-86.85
146,1715532697700,0.09,-0.31,0.57,-202.39,54.14,-86.85
147,1715532697710,0.09,-0.31,0.57,-202.39,54.14,-86.85
148,1715532697720,0.09000000000000001,-0.31,0.57,-202.39,54.14000000000001,-86.84999999999998
149,1715532697730,0.09,-0.31,0.57,-202.39,54.14,-86.85
150,1715532697740,0.09,-0.31,0.57,-202.39,54.14,-86.85
151,1715532697750,0.09000000000000001,-0.31,0.57,-202.39,54.14000000000001,-86.84999999999998
152,1715532697760,0.09,-0.31,0.57,-202.39,54.14,-86.85
153,1715532697770,0.09,-0.31,0.57,-202.39,54.14,-86.85
154,1715532697780,-0.4425,-0.25,0.3375,-204.2725,17.15,-77.835
155,1715532697790,-0.4266666666666667,-0.09666666666666668,0.21333333333333335,-208.79999999999998,-32.45333333333334,-44.15
156,1715532697800,-0.33,-0.03,0.19,-210.75,-51.09,-28.81
157,1715532697810,-0.33,-0.03,0.19,-210.75,-51.09,-28.81
158,1715532697820,-0.36,0.0075,0.24,-215.755,-48.862500000000004,-19.96
159,1715532697830,-0.45,0.12,0.39,-230.77,-42.18,6.59
160,1715532697840,-0.45,0.12,0.39,-230.77,-42.18,6.59
161,1715532697850,-0.45,0.12,0.39,-230.77,-42.18,6.59
162,1715532697860,-0.505,0.23,0.6575,-240.5975,-33.5275,9.6275
163,1715532697870,-0.67,0.56,1.46,-270.08,-7.57,18.74
164,1715532697880,-0.67,0.56,1.46,-270.08,-7.57,18.74
165,1715532697890,-0.67,0.56,1.46,-270.08,-7.57,18.74
166,1715532697900,-1.3,0.5900000000000001,2.565,-240.295,118.47,18.465
167,1715532697910,-1.93,0.62,3.67,-210.51,244.51,18.19
168,1715532697920,-1.93,0.62,3.67,-210.51,244.51,18.19
169,1715532697930,-1.93,0.62,3.67,-210.51,244.51,18.19
170,1715532697940,-1.87,0.9125000000000001,2.98,-26.947499999999998,-26.900000000000006,34.345
171,1715532697950,-1.8500000000000003,1.01,2.75,34.24,-117.37,39.73
172,1715532697960,-1.85,1.01,2.75,34.24,-117.37,39.73
173,1715532697970,-1.85,1.01,2.75,34.24,-117.37,39.73
174,1715532697980,-0.9500000000000001,0.89,2.435,51.4525,-57.355000000000004,67.705
175,1715532697990,-0.65,0.85,2.33,57.19,-37.35,77.03
176,1715532698000,-0.65,0.85,2.33,57.19,-37.35,77.03
177,1715532698010,-0.65,0.85,2.33,57.19,-37.35,77.03
178,1715532698020,-1.06,0.7200000000000001,1.5599999999999998,177.80000000000004,96.01,42.42
179,1715532698030,-1.06,0.72,1.56,177.8,96.01,42.42
180,1715532698040,-1.06,0.72,1.56,177.8,96.01,42.42
181,1715532698050,-1.06,0.72,1.56,177.8,96.01,42.42
182,1715532698060,-1.06,0.72,1.56,177.8,96.01,42.42
183,1715532698070,-1.06,0.72,1.56,177.8,96.01,42.42
184,1715532698080,-1.06,0.7200000000000001,1.5599999999999998,177.80000000000004,96.01,42.42
185,1715532698090,-1.06,0.72,1.56,177.8,96.01,42.42
186,1715532698100,-1.06,0.72,1.56,177.8,96.01,42.42
187,1715532698110,-0.5275,0.052499999999999984,0.735,196.51999999999998,-54.6425,76.89
188,1715532698120,-0.35,-0.17,0.46,202.76,-104.86,88.38
189,1715532698130,-0.39,-0.315,0.385,226.535,-101.22999999999999,91.83
190,1715532698140,-0.43,-0.46,0.31,250.31,-97.6,95.28
191,1715532698150,-0.43,-0.46,0.31,250.31,-97.6,95.28
192,1715532698160,-0.43,-0.46,0.31,250.31,-97.6,95.28
193,1715532698170,-0.345,-0.42500000000000004,0.29500000000000004,258.06,-100.56,86.33500000000001
194,1715532698180,-0.26,-0.39,0.28,265.81,-103.52,77.39
195,1715532698190,-0.26,-0.39,0.28,265.81,-103.52,77.39
196,1715532698200,-0.26,-0.39,0.28,265.81,-103.52,77.39
197,1715532698210,-0.396,0.29799999999999993,0.43200000000000005,251.11399999999998,-13.575999999999999,36.278
198,1715532698220,-0.43,0.47,0.47,247.44,8.91,26.0
199,1715532698230,-0.43,0.47,0.47,247.44,8.91,26.0
200,1715532698240,-0.43,0.47,0.47,247.44,8.91,26.0
201,1715532698250,-0.43,0.47,0.47,247.44,8.91,26.0
202,1715532698260,-0.43,0.47,0.47,247.44,8.91,26.0
203,1715532698270,-0.43,0.47,0.47,247.44,8.91,26.0
204,1715532698280,-0.43,0.47,0.47,247.44,8.91,26.0
205,1715532698290,-0.43,0.47,0.47,247.44,8.91,26.0
206,1715532698300,-0.4766666666666666,0.4166666666666667,1.0233333333333334,112.71333333333332,-4.07,9.966666666666667
207,1715532698310,-0.5,0.39,1.3,45.35,-10.56,1.95
208,1715532698320,-0.3833333333333333,0.3166666666666667,1.16,9.523333333333333,4.759999999999999,2.6233333333333335
209,1715532698330,-0.15,0.17,0.8800000000000001,-62.13000000000001,35.4,3.97
210,1715532698340,-0.15,0.17,0.88,-62.13,35.4,3.97
211,1715532698350,-0.15,0.17,0.88,-62.13,35.4,3.97
212,1715532698360,-0.12,-0.10750000000000001,0.8200000000000001,-96.95,83.525,-27.465
213,1715532698370,-0.11,-0.2,0.8,-131.77,131.65,-58.9
214,1715532698380,-0.11,-0.20000000000000004,0.8000000000000002,-131.77,131.65,-58.9
215,1715532698390,-0.11,-0.2,0.8,-131.77,131.65,-58.9
216,1715532698400,-0.22999999999999998,-0.25,0.56,-125.42500000000001,131.16500000000002,-79.345
217,1715532698410,-0.35,-0.3,0.32,-119.08,130.68,-99.79
218,1715532698420,-0.35,-0.3,0.32,-119.08,130.68,-99.79
219,1715532698430,-0.35,-0.3,0.32,-119.08,130.68,-99.79
220,1715532698440,-0.38,-0.3075,0.1775,-160.555,59.175000000000004,-110.45500000000001
221,1715532698450,-0.39,-0.31,0.13,-174.38,35.34,-114.01
222,1715532698460,-0.39,-0.31,0.13,-174.38,35.34,-114.01
223,1715532698470,-0.38999999999999996,-0.31,0.13,-174.38,35.34,-114.01
224,1715532698480,-0.2625,-0.2125,0.0775,-174.47,-1.237499999999999,-89.28999999999999
225,1715532698490,-0.22,-0.18,0.06,-174.5,-13.43,-81.05
226,1715532698500,-0.22,-0.18,0.06,-174.5,-13.43,-81.05
227,1715532698510,-0.22,-0.18,0.06,-174.5,-13.43,-81.05
228,1715532698520,-0.26,0.01,0.05,-194.15,5.13,-49.44
229,1715532698530,-0.26,0.01,0.05,-194.15,5.13,-49.44
230,1715532698540,-0.26,0.01,0.05,-194.15,5.13,-49.44
231,1715532698550,-0.26,0.01,0.05,-194.15,5.13,-49.44
232,1715532698560,-0.26,0.01,0.05,-194.15,5.13,-49.44
233,1715532698570,-0.26,0.01,0.05,-194.15,5.13,-49.44
234,1715532698580,-0.26,0.01,0.05,-194.15,5.13,-49.44
235,1715532698590,-0.26,0.01,0.05,-194.15,5.13,-49.44
236,1715532698600,-0.26,0.01,0.05000000000000001,-194.15,5.13,-49.44
237,1715532698610,-0.26,0.01,0.05,-194.15,5.13,-49.44
238,1715532698620,-0.26,0.01,0.05,-194.15,5.13,-49.44
239,1715532698630,-0.335,0.11249999999999999,0.255,-217.07,11.4775,-46.785
240,1715532698640,-2.83,1.28,3.49,-83.37,-14.34,-26.18
241,1715532698650,-2.83,1.28,3.49,-83.37,-14.34,-26.18
242,1715532698660,-2.83,1.28,3.49,-83.37,-14.34,-26.18
243,1715532698670,-1.585,1.1675,2.9425,-27.892500000000002,-158.9025,33.6025
244,1715532698680,-1.17,1.13,2.76,-9.4,-207.09,53.53
245,1715532698690,-1.17,1.13,2.76,-9.4,-207.09,53.529999999999994
246,1715532698700,-1.17,1.13,2.76,-9.4,-207.09,53.53
247,1715532698710,-1.335,0.9275,1.8900000000000001,157.2725,-20.370000000000005,60.67
248,1715532698720,-1.39,0.86,1.6,212.83,41.87,63.05
249,1715532698730,-1.39,0.86,1.6000000000000003,212.83,41.87,63.04999999999999
250,1715532698740,-1.39,0.86,1.6,212.83,41.87,63.05
251,1715532698750,-1.39,0.86,1.6000000000000003,212.83,41.87,63.04999999999999
252,1715532698760,-1.39,0.86,1.6,212.83,41.87,63.05
253,1715532698770,-1.39,0.86,1.6,212.83,41.87,63.05
254,1715532698780,-1.39,0.86,1.6,212.83,41.87,63.05
255,1715532698790,-1.39,0.86,1.6,212.83,41.87,63.05
256,1715532698800,-1.39,0.86,1.6,212.83,41.87,63.05
257,1715532698810,-1.39,0.86,1.6,212.83,41.87,63.05
258,1715532698820,-1.39,0.86,1.6,212.83,41.87,63.05
259,1715532698830,-0.22,-0.47,-0.13,295.65,-11.66,119.02
260,1715532698840,-0.22,-0.47,-0.13,295.65,-11.660000000000002,119.02
261,1715532698850,-0.22,-0.47,-0.13,295.65,-11.66,119.02
262,1715532698860,-0.14500000000000002,-0.36,-0.12,288.05499999999995,-23.284999999999997,108.43
263,1715532698870,-0.07,-0.25,-0.11,280.46,-34.91,97.84
264,1715532698880,-0.07,-0.25,-0.11,280.46,-34.91,97.83999999999999
265,1715532698890,-0.07,-0.25,-0.11,280.46,-34.91,97.84
266,1715532698900,-0.2,0.1,-0.05,258.21,-0.42499999999999716,94.755
267,1715532698910,-0.33,0.45,0.01,235.96,34.06,91.67
268,1715532698920,-0.33,0.45,0.01,235.96,34.06,91.67
269,1715532698930,-0.33,0.45,0.01,235.96,34.06,91.67
270,1715532698940,-0.315,0.8025,0.5875,100.0075,36.5275,104.1725
271,1715532698950,-0.31,0.92,0.78,54.69,37.35,108.34
272,1715532698960,-0.31,0.92,0.78,54.69,37.35,108.34
273,1715532698970,-0.31,0.92,0.78,54.69,37.35,108.34
274,1715532698980,0.05000000000000001,0.45,1.1,-23.56,47.49,79.96
275,1715532698990,0.05,0.45,1.1,-23.56,47.49,79.96
276,1715532699000,0.05000000000000001,0.45,1.1,-23.56,47.49,79.96
277,1715532699010,0.05,0.45,1.1,-23.56,47.49,79.96
278,1715532699020,0.43,0.25,0.79,-142.4,-18.37,-59.2
279,1715532699030,0.43,0.25,0.79,-142.4,-18.37,-59.2
280,1715532699040,0.43,0.25,0.79,-142.4,-18.37,-59.2
281,1715532699050,0.29,0.057499999999999996,0.855,-164.7675,35.265,-88.10000000000001
282,1715532699060,-0.13,-0.52,1.05,-231.87,196.17,-174.8
283,1715532699070,-0.13,-0.52,1.05,-231.87,196.17,-174.8
284,1715532699080,-0.13,-0.52,1.05,-231.86999999999998,196.17,-174.8
285,1715532699090,-0.13,-0.52,1.05,-231.87,196.17,-174.80000000000004
286,1715532699100,-0.13,-0.52,1.05,-231.87,196.17,-174.8
287,1715532699110,-0.13,-0.52,1.05,-231.87,196.17,-174.8
288,1715532699120,-0.13,-0.52,1.05,-231.86999999999998,196.17,-174.8
289,1715532699130,-0.13,-0.52,1.05,-231.87,196.17,-174.8
290,1715532699140,-0.13,-0.52,1.05,-231.87,196.17,-174.8
291,1715532699150,-0.13,-0.52,1.05,-231.87,196.17,-174.8
292,1715532699160,-0.98,-0.21,0.71,-161.87,-117.74,-195.31
293,1715532699170,-0.42,-0.02,0.3,-141.035,-79.145,-138.3625
294,1715532699180,-0.42,-0.02,0.3,-134.09,-66.28,-119.38
295,1715532699190,-0.42,-0.02,0.3,-134.09,-66.28,-119.38
296,1715532699200,-0.42,-0.02,0.3,-134.09,-66.28,-119.38
297,1715532699210,-0.405,0.0475,0.21,-115.8275,-5.125,-123.73
298,1715532699220,-0.4,0.07,0.18,-109.74,15.26,-125.18
299,1715532699230,-0.4,0.07,0.18,-109.74,15.26,-125.18
300,1715532699240,-0.4,0.07,0.18,-109.74,15.26,-125.18
301,1715532699250,-0.7399999999999999,0.65,0.32,-116.58,-10.07,-89.78000000000002
302,1715532699260,-0.74,0.65,0.32,-116.58,-10.07,-89.78
303,1715532699270,-0.74,0.65,0.32,-116.58,-10.07,-89.78
304,1715532699280,-0.74,0.65,0.32,-116.58,-10.07,-89.78
305,1715532699290,-0.74,0.65,0.32,-116.58,-10.07,-89.78
306,1715532699300,-0.74,0.65,0.32,-116.58,-10.07,-89.78
307,1715532699310,-0.74,0.65,0.32,-116.58,-10.07,-89.78
308,1715532699320,-0.74,0.65,0.32,-116.58,-10.07,-89.78
309,1715532699330,-0.74,0.65,0.32,-116.58,-10.07,-89.78
310,1715532699340,-0.74,0.65,0.32,-116.58,-10.07,-89.78
311,1715532699350,-2.45,1.1974999999999998,2.5175,-87.6,75.625,-30.365000000000002
312,1715532699360,-2.335,1.2799999999999998,2.885,-54.504999999999995,-34.515,28.655
313,1715532699370,-1.65,1.18,2.52,-31.07,-173.22,67.87
314,1715532699380,-1.65,1.18,2.52,-31.07,-173.22,67.87
315,1715532699390,-1.65,1.18,2.52,-31.07,-173.22,67.87
316,1715532699400,-1.365,0.985,2.12,47.025000000000006,-97.625,70.31
317,1715532699410,-1.08,0.79,1.72,125.12,-22.03,72.75
318,1715532699420,-1.08,0.79,1.72,125.12,-22.03,72.75
319,1715532699430,-1.08,0.79,1.72,125.12,-22.03,72.75
320,1715532699440,-0.93,0.5425,1.06,159.025,-34.485,75.405
321,1715532699450,-0.88,0.46,0.84,192.93,-46.94,78.06
322,1715532699460,-0.88,0.46,0.84,192.93,-46.94,78.06
323,1715532699470,-0.7675,0.30000000000000004,0.745,192.93,-46.94,78.06
324,1715532699480,-0.43,-0.18,0.46,232.18,-77.45,91.06
325,1715532699490,-0.43,-0.18,0.46,232.18,-77.45,91.06
326,1715532699500,-0.43,-0.18,0.46,232.18,-77.45,91.06
327,1715532699510,-0.4075,-0.26,0.40750000000000003,249.97,-68.92,91.9625
328,1715532699520,-0.34,-0.5,0.25,303.34,-43.33,94.67
329,1715532699530,-0.34,-0.5,0.25,303.34,-43.33,94.67
330,1715532699540,-0.34,-0.5,0.25,303.34,-43.33,94.67
331,1715532699550,-0.2725,-0.47250000000000003,0.23,309.4,-50.1975,94.5325
332,1715532699560,-0.07,-0.39,0.17,327.58,-70.8,94.12
333,1715532699570,-0.07,-0.39,0.17,327.58,-70.8,94.12
334,1715532699580,-0.07,-0.39,0.17,327.58,-70.8,94.12
335,1715532699590,0.035,-0.11,0.255,327.58,-70.8,94.12
336,1715532699600,0.14,0.17,0.34,327.58,-70.8,94.12
337,1715532699610,0.14,0.17,0.34,327.58,-70.8,94.12
338,1715532699620,0.14,0.17,0.34,327.58,-70.8,94.12
339,1715532699630,0.14,0.17,0.34,327.58,-70.8,94.12
340,1715532699640,0.14,0.17,0.34,327.58,-70.8,94.12
341,1715532699650,0.14,0.17,0.34,327.58,-70.8,94.12
342,1715532699660,0.14,0.17,0.34,327.58,-70.8,94.12
343,1715532699670,0.14,0.17,0.34,327.58,-70.8,94.12
344,1715532699680,-0.155,0.10500000000000001,0.78,207.125,-9.154999999999998,17.915000000000003
345,1715532699690,-0.45,0.04,1.22,86.67,52.49,-58.29
346,1715532699700,-0.45,0.04,1.22,86.67,52.49,-58.29
347,1715532699710,-0.34,0.3,0.28,10.912500000000001,-94.0825,-76.41749999999999
348,1715532699720,-0.34,0.3,0.28,-14.34,-142.94,-82.46
349,1715532699730,-0.34,0.3,0.28,-14.34,-142.94,-82.46
350,1715532699740,-0.34,0.3,0.28,-14.34,-142.94,-82.46
351,1715532699750,-0.07,-0.21,0.25,-247.8,-75.93,-62.99
352,1715532699760,-0.07,-0.21,0.25,-247.8,-75.93,-62.99
353,1715532699770,-0.07,-0.21,0.25,-247.8,-75.93,-62.99
354,1715532699780,-0.2775,-0.3125,0.385,-279.555,-42.4675,-81.055
355,1715532699790,-0.9,-0.62,0.79,-374.82,57.92,-135.25
356,1715532699800,-0.9,-0.62,0.79,-374.82,57.92,-135.25
357,1715532699810,-0.9,-0.62,0.79,-374.82,57.919999999999995,-135.25
358,1715532699820,-0.9,-0.62,0.79,-374.82,57.92,-135.25
359,1715532699830,-0.9,-0.62,0.79,-374.82,57.919999999999995,-135.25
360,1715532699840,-0.9,-0.62,0.79,-374.82,57.92,-135.25
361,1715532699850,-0.9,-0.62,0.79,-374.82,57.92,-135.25
362,1715532699860,-0.9,-0.62,0.79,-374.82,57.92,-135.25
363,1715532699870,-1.0425,-0.45999999999999996,0.6950000000000001,-327.12,39.84,-128.5675
364,1715532699880,-1.06,-0.13,0.49,-291.08,-16.72,-95.09
365,1715532699890,-1.06,-0.13,0.49,-291.08,-16.72,-95.09
366,1715532699900,-0.78,0.01,0.73,-256.565,14.270000000000001,-89.3225
367,1715532699910,-0.78,0.01,0.73,-245.06,24.6,-87.4
368,1715532699920,-0.78,0.01,0.73,-245.06,24.6,-87.4
369,1715532699930,-0.78,0.01,0.73,-245.06,24.6,-87.4
370,1715532699940,-0.86,0.45,0.69,-194.2025,41.58,-70.1875
371,1715532699950,-0.86,0.45,0.69,-177.25,47.24,-64.45
372,1715532699960,-0.86,0.45,0.69,-177.25,47.24,-64.45
373,1715532699970,-0.9425,0.5725,1.0125,-175.845,58.96,-64.8175
374,1715532699980,-1.19,0.94,1.9799999999999998,-171.63,94.12,-65.92
375,1715532699990,-1.19,0.9399999999999998,1.98,-171.63,94.12,-65.92
376,1715532700000,-1.19,0.94,1.98,-171.63,94.12,-65.92
377,1715532700010,-1.19,0.94,1.98,-171.63,94.12,-65.92
378,1715532700020,-1.875,1.1400000000000001,2.335,-98.265,88.505,-44.04
379,1715532700030,-2.56,1.34,2.69,-24.9,82.89,-22.16
380,1715532700040,-2.56,1.34,2.69,-24.9,82.89,-22.16
381,1715532700050,-1.83,1.27,2.3449999999999998,-10.315,-76.22999999999999,14.799999999999999
382,1715532700060,-1.1,1.2,2.0,4.27,-235.35,51.76
383,1715532700070,-1.1,1.2,2.0,4.27,-235.35,51.76
384,1715532700080,-1.1,1.2,2.0,4.27,-235.35,51.76
385,1715532700090,-1.0950000000000002,1.065,1.995,64.08500000000001,-88.96,55.605000000000004
386,1715532700100,-1.09,0.93,1.99,123.9,57.43,59.45
387,1715532700110,-1.09,0.93,1.99,123.9,57.43,59.45
388,1715532700120,-1.09,0.93,1.99,123.9,57.43,59.45
389,1715532700130,-1.09,0.93,1.99,123.9,57.43,59.45
390,1715532700140,-1.09,0.93,1.99,123.9,57.43,59.45
391,1715532700150,-1.09,0.93,1.99,123.9,57.43,59.45
392,1715532700160,-1.09,0.93,1.99,123.9,57.43,59.45
393,1715532700170,-1.09,0.93,1.99,123.9,57.43,59.45
394,1715532700180,-1.09,0.93,1.99,123.9,57.43,59.45
395,1715532700190,-1.09,0.93,1.99,123.9,57.43,59.45
396,1715532700200,-1.09,0.93,1.99,123.9,57.43,59.45
397,1715532700210,-1.23,0.56,1.5525,182.1425,12.739999999999998,101.5025
398,1715532700220,-0.97,-0.37,0.71,308.35,-46.81,180.48
399,1715532700230,-0.97,-0.37,0.71,308.35,-46.81,180.48
400,1715532700240,-0.97,-0.37,0.71,308.35,-46.81,180.48
401,1715532700250,-0.9,-0.59,0.68,313.66,-59.88,212.95
402,1715532700260,-0.9,-0.59,0.68,313.66,-59.88,212.95
403,1715532700270,-0.9,-0.59,0.68,313.66,-59.88,212.95
404,1715532700280,-0.66,-0.42,0.66,302.43,-80.66,199.095
405,1715532700290,-0.42,-0.25,0.64,291.2,-101.44,185.24
406,1715532700300,-0.42,-0.25,0.64,291.2,-101.44,185.24
407,1715532700310,-0.42,-0.25,0.64,291.2,-101.44,185.24
408,1715532700320,-0.42,-0.25,0.64,291.2,-101.44,185.24
409,1715532700330,-0.42,-0.25,0.64,291.2,-101.44,185.24
410,1715532700340,-0.42,-0.25,0.64,291.2,-101.44,185.24
411,1715532700350,-0.42,-0.25,0.64,291.2,-101.44,185.24
412,1715532700360,-0.42,-0.25,0.64,291.2,-101.44,185.24
413,1715532700370,-0.42,-0.25,0.64,291.2,-101.44,185.24
414,1715532700380,-0.42,-0.25,0.64,291.2,-101.44,185.24
415,1715532700390,-0.42,-0.25,0.64,291.2,-101.44,185.24
416,1715532700400,-0.255,-0.1675,0.52,26.75,-58.824999999999996,11.427500000000004
417,1715532700410,-0.2,-0.14,0.48,-61.4,-44.62,-46.51
418,1715532700420,-0.2,-0.14,0.48,-61.4,-44.62,-46.51
419,1715532700430,-0.2,-0.14,0.48,-61.4,-44.62,-46.51
420,1715532700440,0.17,-0.13,0.37,-152.58499999999998,-31.9375,-119.52250000000001
421,1715532700450,0.17,-0.13,0.37,-182.98,-27.71,-143.86
422,1715532700460,0.17,-0.13,0.37,-182.98,-27.71,-143.86
423,1715532700470,-0.0050000000000000044,-0.21000000000000002,0.47750000000000004,-204.26749999999998,23.925000000000004,-158.03500000000003
424,1715532700480,-0.53,-0.45,0.8000000000000002,-268.13,178.83,-200.56000000000003
425,1715532700490,-0.53,-0.45,0.8,-268.13,178.83,-200.56
426,1715532700500,-0.53,-0.45,0.8,-268.13,178.83,-200.56
427,1715532700510,-0.63,-0.47250000000000003,0.8075,-268.13,178.83,-200.56
428,1715532700520,-0.93,-0.54,0.83,-168.46,137.63,-269.29
429,1715532700530,-0.93,-0.54,0.83,-168.46,137.63,-269.29
430,1715532700540,-0.93,-0.54,0.83,-168.46,137.63,-269.29
431,1715532700550,-0.8925000000000001,-0.4575,0.7075,-169.04000000000002,113.2775,-260.6675
432,1715532700560,-0.78,-0.21,0.34,-170.78,40.22,-234.8
433,1715532700570,-0.78,-0.21,0.34,-170.78,40.22,-234.8
434,1715532700580,-0.78,-0.21,0.34,-170.78,40.22,-234.8
435,1715532700590,-0.595,-0.265,0.37,-170.78,40.22,-234.8
436,1715532700600,-0.41,-0.32,0.4,-243.41,-1.4,-192.75
437,1715532700610,-0.41,-0.32,0.4,-243.41,-1.4,-192.75
438,1715532700620,-0.41,-0.32,0.4,-243.41,-1.4,-192.75
439,1715532700630,-0.59,-0.065,0.5800000000000001,-214.29500000000002,55.45,-193.1175
440,1715532700640,-0.65,0.02,0.64,-204.59,74.4,-193.24
441,1715532700650,-0.65,0.02,0.64,-204.59,74.4,-193.24
442,1715532700660,-0.65,0.02,0.64,-204.59,74.4,-193.24
443,1715532700670,-0.65,0.02,0.64,-204.59,74.4,-193.24
444,1715532700680,-0.65,0.02,0.64,-204.59,74.4,-193.24
445,1715532700690,-0.65,0.02,0.64,-204.59,74.4,-193.24
446,1715532700700,-0.65,0.02,0.64,-204.59,74.4,-193.24
447,1715532700710,-0.65,0.02,0.64,-204.59,74.4,-193.24
448,1715532700720,-0.65,0.02,0.64,-204.59,74.4,-193.24
449,1715532700730,-2.175,0.745,1.61,-144.225,38.27,-127.87
450,1715532700740,-3.7,1.47,2.58,-83.86,2.14,-62.5
451,1715532700750,-1.66,1.19,1.51,-30.85,-143.3825,47.0
452,1715532700760,-1.66,1.19,1.51,-13.18,-191.89,83.5
453,1715532700770,-1.66,1.19,1.51,-13.18,-191.89,83.5
454,1715532700780,-1.51,1.1099999999999999,1.53,-13.18,-191.89,83.5
455,1715532700790,-1.36,1.03,1.55,12.2225,-44.169999999999995,116.59
456,1715532700800,-1.36,1.03,1.55,20.69,5.07,127.62
457,1715532700810,-1.36,1.03,1.55,20.69,5.07,127.62
458,1715532700820,-1.455,0.875,1.495,41.197500000000005,3.375,135.555
459,1715532700830,-1.55,0.72,1.44,102.72,-1.71,159.36
460,1715532700840,-1.55,0.72,1.44,102.72,-1.71,159.36
461,1715532700850,-1.55,0.72,1.44,102.72,-1.71,159.36
462,1715532700860,-1.55,0.72,1.44,102.72,-1.71,159.36
463,1715532700870,-1.55,0.72,1.44,102.72,-1.7100000000000002,159.36
464,1715532700880,-1.55,0.7200000000000001,1.4400000000000002,102.71999999999998,-1.71,159.36
465,1715532700890,-1.55,0.72,1.44,102.72,-1.71,159.36
466,1715532700900,-1.55,0.72,1.44,102.72,-1.71,159.36
467,1715532700910,-1.55,0.72,1.44,102.72,-1.71,159.36
468,1715532700920,-1.3,0.15,1.06,190.91500000000002,-40.254999999999995,197.445
469,1715532700930,-1.0025,-0.5025,0.6425000000000001,294.15500000000003,-63.57,242.61
470,1715532700940,-0.86,-0.75,0.53,339.29,-17.88,263.85
471,1715532700950,-0.86,-0.75,0.53,339.29,-17.88,263.85
472,1715532700960,-0.86,-0.75,0.53,339.29,-17.88,263.85
473,1715532700970,-0.81,-0.72,0.535,339.29,-17.88,263.85
474,1715532700980,-0.66,-0.63,0.55,321.1625,-28.545,262.845
475,1715532700990,-0.66,-0.63,0.55,315.12,-32.1,262.51
476,1715532701000,-0.66,-0.63,0.55,315.12,-32.1,262.51
477,1715532701010,-0.4833333333333334,-0.4766666666666666,0.48000000000000004,315.12,-32.1,262.51
478,1715532701020,-0.13,-0.17,0.34,291.44,-24.84,221.25
479,1715532701030,-0.13,-0.17,0.34,291.44,-24.84,221.25
480,1715532701040,-0.13,-0.17,0.34,291.44,-24.84,221.25
481,1715532701050,-0.18,-0.04000000000000001,0.41500000000000004,229.9775,-6.559999999999999,179.93
482,1715532701060,-0.23,0.09,0.49,45.59,48.28,55.97
483,1715532701070,-0.23,0.09,0.49,45.59,48.28,55.97
484,1715532701080,-0.23,0.09,0.49,45.59,48.28,55.97
485,1715532701090,-0.23,0.09,0.49,45.59,48.28,55.97
486,1715532701100,-0.4699999999999999,-0.51,1.09,-87.04,50.66,1.59
487,1715532701110,-0.47,-0.51,1.09,-87.04,50.66,1.59
488,1715532701120,-0.47,-0.51,1.09,-87.04,50.66,1.59
489,1715532701130,0.02,-0.28,0.52,-72.5275,-37.87,-110.97749999999999
490,1715532701140,0.02,-0.28,0.52,-67.69,-67.38,-148.5
491,1715532701150,0.02,-0.28,0.52,-67.69,-67.38,-148.5
492,1715532701160,0.02,-0.28,0.52,-67.69,-67.38,-148.5
493,1715532701170,0.02,-0.28,0.52,-67.69,-67.38,-148.5
494,1715532701180,0.02,-0.28,0.52,-67.69,-67.38,-148.5
495,1715532701190,0.02,-0.28,0.52,-67.69,-67.38,-148.5
496,1715532701200,0.02,-0.28,0.52,-67.69,-67.38,-148.5
497,1715532701210,0.02,-0.28,0.52,-67.69,-67.38,-148.5
498,1715532701220,0.02,-0.28,0.52,-67.69,-67.38,-148.5
499,1715532701230,0.02,-0.28,0.52,-67.69,-67.38,-148.5
500,1715532701240,0.02,-0.28,0.52,-67.69,-67.38,-148.5
501,1715532701250,0.02,-0.28,0.52,-67.69,-67.38,-148.5
502,1715532701260,-1.1575,-0.2,0.605,-286.13,0.5500000000000003,-265.735
503,1715532701270,-1.41,-0.17,0.67,-315.67,-8.85,-275.7
504,1715532701280,-1.33,-0.035,0.7250000000000001,-311.8575,1.3575,-254.535
505,1715532701290,-1.25,0.1,0.78,-300.42,31.98,-191.04
506,1715532701300,-1.25,0.1,0.78,-300.42,31.98,-191.04
507,1715532701310,-1.25,0.1,0.78,-300.42,31.98,-191.04
508,1715532701320,-1.0325,0.33999999999999997,0.7575000000000001,-223.83,61.50749999999999,-122.4675
509,1715532701330,-0.96,0.42,0.75,-198.3,71.35,-99.61
510,1715532701340,-0.96,0.42,0.75,-198.3,71.35,-99.61
511,1715532701350,-0.96,0.42,0.75,-198.3,71.35,-99.61
512,1715532701360,-0.78,0.7050000000000001,0.7875000000000001,-174.6825,33.309999999999995,-57.4
513,1715532701370,-0.72,0.8,0.8,-166.81,20.63,-43.33
514,1715532701380,-0.72,0.8,0.8,-166.81,20.63,-43.33
515,1715532701390,-0.72,0.8,0.8,-166.81,20.63,-43.33
516,1715532701400,-0.72,0.8,0.8,-166.81,20.63,-43.33
517,1715532701410,-0.72,0.8,0.8,-166.81,20.63,-43.33
518,1715532701420,-0.72,0.8,0.8,-166.81,20.63,-43.33
519,1715532701430,-0.72,0.8,0.8,-166.81,20.63,-43.33
520,1715532701440,-0.72,0.8,0.8,-166.81,20.63,-43.33
521,1715532701450,-2.73,1.5125,2.9,-42.7075,115.16,12.47
522,1715532701460,-3.4,1.75,3.6,-1.34,146.67,31.07
523,1715532701470,-3.4,1.75,3.6,-1.34,146.67,31.070000000000004
524,1715532701480,-2.83,1.09,2.83,162.17,-266.85,126.1
525,1715532701490,-2.83,1.09,2.83,162.17,-266.85,126.1
526,1715532701500,-2.83,1.09,2.83,162.17,-266.85,126.09999999999998
527,1715532701510,-2.522,0.786,2.482,209.266,-220.39000000000001,134.744
528,1715532701520,-2.06,0.33,1.96,279.91,-150.7,147.71
529,1715532701530,-2.06,0.33,1.96,279.91,-150.7,147.71
530,1715532701540,-2.06,0.33,1.96,279.91,-150.7,147.71
531,1715532701550,-1.8250000000000002,0.115,1.405,291.3525,-134.58499999999998,151.875
532,1715532701560,-1.59,-0.10000000000000002,0.85,325.68,-86.24,164.37
533,1715532701570,-1.59,-0.1,0.85,325.68,-86.24,164.37
534,1715532701580,-1.59,-0.1,0.85,325.68,-86.24,164.37
535,1715532701590,-1.1325,-0.4225,0.565,295.775,-109.28,172.39499999999998
536,1715532701600,-0.98,-0.53,0.47,265.87,-132.32,180.42
537,1715532701610,-0.9800000000000001,-0.53,0.4699999999999999,265.87,-132.32,180.42
538,1715532701620,-0.98,-0.53,0.47,265.87,-132.32,180.42
539,1715532701630,-0.7200000000000001,-0.6999999999999998,0.27,274.05,-48.1,187.62
540,1715532701640,-0.72,-0.7,0.27,274.05,-48.1,187.62
541,1715532701650,-0.72,-0.7,0.27,274.05,-48.1,187.62
542,1715532701660,-0.72,-0.7,0.27,274.05,-48.1,187.62
543,1715532701670,-0.48,-0.58,0.33,251.83,-39.06,171.94
544,1715532701680,-0.48,-0.58,0.33,251.83,-39.06,171.93999999999997
545,1715532701690,-0.48,-0.58,0.33,251.83,-39.06,171.94
546,1715532701700,-0.48,-0.58,0.33,251.83,-39.06,171.94
547,1715532701710,-0.48,-0.58,0.33,251.83,-39.06,171.94
548,1715532701720,-0.48,-0.58,0.33,251.83,-39.06,171.94
549,1715532701730,-0.48,-0.58,0.33,251.83,-39.06,171.94
550,1715532701740,-0.48,-0.58,0.33,251.83,-39.06,171.94
551,1715532701750,-0.48,-0.58,0.33,251.83,-39.06,171.93999999999997
552,1715532701760,-0.48,-0.58,0.33,251.83,-39.06,171.94
553,1715532701770,-0.48,-0.58,0.33,251.83,-39.06,171.94
554,1715532701780,-0.38,-0.315,0.335,235.015,-7.080000000000002,122.47
555,1715532701790,-0.27,-0.01,0.4,106.2,23.5,-11.84
556,1715532701800,-0.27,-0.01,0.4000000000000001,106.2,23.5,-11.839999999999998
557,1715532701810,-0.27,-0.01,0.4,106.2,23.5,-11.84
558,1715532701820,-0.2625,-0.015,0.36750000000000005,89.125,5.875,-26.9775
559,1715532701830,-0.24,-0.03,0.27,37.9,-47.0,-72.39
560,1715532701840,-0.24,-0.03,0.27,37.9,-47.0,-72.39
561,1715532701850,-0.24,-0.03,0.27,37.9,-47.0,-72.39
562,1715532701860,0.022500000000000003,0.052500000000000005,0.060000000000000005,-82.49000000000001,-136.07750000000001,-112.8075
563,1715532701870,0.11,0.08,-0.01,-122.62,-165.77,-126.28
564,1715532701880,0.11,0.08,-0.01,-122.62,-165.77,-126.28
565,1715532701890,0.11000000000000001,0.08,-0.01,-122.62,-165.77,-126.28
566,1715532701900,0.11,0.08,-0.01,-122.62,-165.77,-126.28000000000002
567,1715532701910,0.11000000000000001,0.08,-0.01,-122.62,-165.77,-126.28
568,1715532701920,0.11,0.08,-0.01,-122.62,-165.77,-126.28000000000002
569,1715532701930,0.11,0.08,-0.01,-122.62,-165.77,-126.28
570,1715532701940,0.11,0.08,-0.01,-122.62,-165.77,-126.28
571,1715532701950,0.11,0.08,-0.01,-122.62,-165.77,-126.28
572,1715532701960,0.11000000000000001,0.08,-0.01,-122.62,-165.77,-126.28
573,1715532701970,-0.5249999999999999,-0.18,0.535,-263.61,-88.105,-162.84
574,1715532701980,-1.16,-0.44,1.08,-404.6000000000001,-10.44,-199.4
575,1715532701990,-1.16,-0.44,1.08,-404.6,-10.44,-199.4
576,1715532702000,-1.16,-0.44,1.08,-404.6,-10.44,-199.4
577,1715532702010,-1.02,-0.09,1.03,-350.585,27.42,-162.7325
578,1715532702020,-1.02,-0.09,1.03,-332.58,40.04,-150.51
579,1715532702030,-1.02,-0.09,1.03,-332.58,40.04,-150.51
580,1715532702040,-1.02,-0.09000000000000001,1.03,-332.58,40.04,-150.51
581,1715532702050,-1.1775,0.39,1.135,-285.525,73.3625,-134.265
582,1715532702060,-1.23,0.55,1.17,-269.84,84.47,-128.85
583,1715532702070,-1.23,0.55,1.17,-269.84,84.47,-128.85
584,1715532702080,-1.23,0.55,1.17,-269.84,84.47,-128.85
585,1715532702090,-1.71,1.1575000000000002,1.9275000000000002,-310.0775,70.925,-71.2575
586,1715532702100,-1.87,1.36,2.18,-323.49,66.41,-52.06
587,1715532702110,-1.87,1.36,2.18,-323.49,66.41,-52.06
588,1715532702120,-1.9666666666666668,1.3266666666666669,2.4066666666666667,-259.1766666666667,65.02666666666666,-36.720000000000006
589,1715532702130,-2.16,1.26,2.86,-130.55,62.26,-6.04
590,1715532702140,-2.16,1.26,2.86,-130.55,62.26,-6.04
591,1715532702150,-2.16,1.26,2.86,-130.55,62.26,-6.04
592,1715532702160,-1.855,1.3125,2.5949999999999998,-96.76750000000001,13.1875,-0.13500000000000068
593,1715532702170,-0.94,1.47,1.8,4.58,-134.03,17.58
594,1715532702180,-0.94,1.47,1.8,4.58,-134.03,17.58
595,1715532702190,-0.94,1.47,1.8,4.58,-134.03,17.58
596,1715532702200,-1.025,1.4075,1.9175,13.215,-89.795,17.93
597,1715532702210,-1.28,1.22,2.27,39.12,42.91,18.98
598,1715532702220,-1.28,1.22,2.27,39.12,42.91,18.98
599,1715532702230,-1.28,1.22,2.27,39.12,42.91,18.98
600,1715532702240,-1.28,1.22,2.27,39.12,42.91,18.98
601,1715532702250,-1.28,1.22,2.27,39.12,42.91,18.98
602,1715532702260,-1.28,1.22,2.27,39.12,42.91,18.98
603,1715532702270,-1.28,1.22,2.27,39.12,42.91,18.98
604,1715532702280,-1.28,1.22,2.27,39.12,42.91,18.98
605,1715532702290,-1.28,1.22,2.27,39.12,42.91,18.98
606,1715532702300,-1.3,0.955,1.88,103.7425,-2.730000000000004,51.4825
607,1715532702310,-1.36,0.16,0.71,297.61,-139.65,148.99
608,1715532702320,-0.86,-0.44,0.52,340.27,-73.49,167.05
609,1715532702330,-0.86,-0.44,0.52,340.27,-73.49,167.05
610,1715532702340,-0.86,-0.44,0.52,340.27,-73.49,167.05
611,1715532702350,-0.86,-0.44,0.52,340.27,-73.49,167.05
612,1715532702360,-0.845,-0.5975,0.46,365.2225,-9.627499999999998,193.9675
613,1715532702370,-0.84,-0.65,0.44,373.54,11.66,202.94
614,1715532702380,-0.84,-0.65,0.44,373.54,11.66,202.94
615,1715532702390,-0.84,-0.65,0.44,373.54,11.66,202.94
616,1715532702400,-0.7,-0.485,0.43,332.615,6.015,207.67000000000002
617,1715532702410,-0.56,-0.32,0.42,291.69,0.37,212.4
618,1715532702420,-0.56,-0.32,0.42,291.69,0.37,212.4
619,1715532702430,-0.56,-0.32,0.42,291.69,0.37,212.4
620,1715532702440,-0.56,-0.32,0.42,291.69,0.37,212.4
621,1715532702450,-0.56,-0.32,0.42,291.69,0.37,212.4
622,1715532702460,-0.56,-0.32,0.42,291.69,0.37,212.4
623,1715532702470,-0.56,-0.32,0.42,291.69,0.37,212.4
624,1715532702480,-0.56,-0.32,0.42,291.69,0.37,212.4
625,1715532702490,-0.56,-0.32,0.42,291.69,0.36999999999999994,212.4
626,1715532702500,-0.85,0.25,0.43,-14.28,123.05,92.22
627,1715532702510,-0.23,-0.12,0.84,-106.79249999999999,-29.387500000000003,38.985
628,1715532702520,-0.23,-0.12,0.84,-137.63,-80.2,21.24
629,1715532702530,-0.23,-0.12,0.84,-137.63,-80.2,21.24
630,1715532702540,-0.23,-0.12,0.84,-137.63,-80.2,21.24
631,1715532702550,0.11,-0.07,0.44,-154.85,2.32,-119.87
632,1715532702560,0.11,-0.07,0.44,-154.85,2.32,-119.87
633,1715532702570,0.11,-0.07,0.44,-154.85,2.32,-119.87
634,1715532702580,0.11,-0.07,0.44,-154.85,2.32,-119.87
635,1715532702590,0.11,-0.07,0.44,-154.85,2.32,-119.87
636,1715532702600,-0.295,-0.235,0.5825,-214.7225,88.5625,-138.73250000000002
637,1715532702610,-0.43,-0.29,0.63,-234.68,117.31,-145.02
638,1715532702620,-0.43,-0.29,0.63,-234.68,117.31,-145.02
639,1715532702630,-0.85,-0.45,0.9,-277.16,52.37,-239.32
640,1715532702640,-0.85,-0.45,0.9,-277.16,52.37,-239.32
641,1715532702650,-0.85,-0.45,0.9,-277.16,52.37,-239.32000000000002
642,1715532702660,-0.7825,-0.375,0.7050000000000001,-269.745,43.762499999999996,-242.31
643,1715532702670,-0.76,-0.35,0.64,-247.5,17.94,-251.28
644,1715532702680,-0.76,-0.35,0.64,-247.5,17.94,-251.28
645,1715532702690,-0.76,-0.35,0.64,-247.5,17.94,-251.28
646,1715532702700,-0.655,-0.31,0.525,-242.22,26.305,-240.51
647,1715532702710,-0.55,-0.27,0.41,-236.94,34.67,-229.74
648,1715532702720,-0.55,-0.27,0.41,-236.94,34.67,-229.74
649,1715532702730,-0.62,-0.1975,0.45999999999999996,-236.94,34.67,-229.74
650,1715532702740,-0.83,0.02,0.61,-200.07,78.8,-226.68
651,1715532702750,-0.83,0.02,0.61,-200.07000000000002,78.8,-226.67999999999998
652,1715532702760,-0.83,0.02,0.61,-200.07,78.8,-226.68
653,1715532702770,-0.83,0.02,0.61,-200.07,78.8,-226.68
654,1715532702780,-0.83,0.02,0.61,-200.07,78.8,-226.68
655,1715532702790,-0.83,0.02,0.61,-200.07,78.8,-226.68
656,1715532702800,-0.83,0.02,0.61,-200.07,78.8,-226.68
657,1715532702810,-0.83,0.02,0.61,-200.07,78.8,-226.68
658,1715532702820,-0.83,0.02,0.61,-200.07,78.8,-226.68
659,1715532702830,-2.1233333333333335,0.98,2.043333333333333,-138.95666666666668,55.24,-156.9
660,1715532702840,-2.77,1.46,2.76,-108.4,43.46,-122.01000000000002
661,1715532702850,-2.51,1.6733333333333331,2.06,26.813333333333333,-40.446666666666665,-10.963333333333333
662,1715532702860,-2.38,1.78,1.71,94.42,-82.4,44.56
663,1715532702870,-2.38,1.78,1.71,94.42,-82.4,44.56
664,1715532702880,-2.38,1.78,1.71,94.42,-82.4,44.56
665,1715532702890,-2.065,1.24,1.98,81.725,-70.01,79.00999999999999
666,1715532702900,-1.96,1.06,2.07,69.03,-57.62,113.46
667,1715532702910,-1.9600000000000002,1.06,2.07,69.03,-57.61999999999999,113.46
668,1715532702920,-1.96,1.06,2.07,69.03,-57.62,113.46
669,1715532702930,-2.095,0.7225,1.875,194.0475,-11.5175,154.98
670,1715532702940,-2.14,0.61,1.81,235.72,3.85,168.82
671,1715532702950,-2.14,0.61,1.8099999999999998,235.72,3.85,168.82
672,1715532702960,-2.14,0.61,1.81,235.72,3.85,168.82
673,1715532702970,-2.14,0.61,1.81,235.72,3.85,168.82
674,1715532702980,-2.14,0.61,1.81,235.72,3.85,168.82
675,1715532702990,-2.14,0.61,1.81,235.72,3.85,168.82
676,1715532703000,-2.14,0.61,1.81,235.72,3.85,168.82
677,1715532703010,-2.14,0.61,1.81,235.72,3.85,168.82
678,1715532703020,-1.3825,-0.024999999999999994,1.1175000000000002,255.90750000000003,-75.09,189.4075
679,1715532703030,-0.97,-0.42,0.77,285.22,-76.42,199.28
680,1715532703040,-0.97,-0.42,0.77,285.22,-76.42,199.28
681,1715532703050,-0.88,-0.84,0.5,330.69,-76.23,221.13
682,1715532703060,-0.88,-0.84,0.5,330.69,-76.23,221.13
683,1715532703070,-0.88,-0.84,0.5,330.69,-76.23,221.13
684,1715532703080,-0.6266666666666666,-0.8466666666666667,0.38000000000000006,335.67333333333335,-80.11666666666667,227.17333333333332
685,1715532703090,-0.5,-0.85,0.32,345.64,-87.89,239.26
686,1715532703100,-0.5,-0.85,0.32,345.64,-87.89,239.26
687,1715532703110,-0.5,-0.85,0.32,345.64,-87.89,239.26
688,1715532703120,-0.33,-0.655,0.28,342.405,-34.76,233.125
689,1715532703130,-0.16,-0.46,0.24,339.17,18.37,226.99
690,1715532703140,-0.16,-0.46,0.24,339.17,18.37,226.99
691,1715532703150,-0.16,-0.46,0.24,339.17,18.37,226.99
692,1715532703160,0.27,0.28,0.01,244.87,57.19,135.86
693,1715532703170,0.27,0.28,0.01,244.87,57.19,135.86
694,1715532703180,0.27,0.28,0.01,244.87,57.19,135.86
695,1715532703190,0.27,0.28,0.01,244.87,57.19,135.86
696,1715532703200,-0.27,-0.03,0.37,4.33,73.06,-6.96
697,1715532703210,-0.27,-0.03,0.36999999999999994,4.33,73.06,-6.96
698,1715532703220,-0.27,-0.03,0.37,4.33,73.06,-6.96
699,1715532703230,-0.2475,-0.024999999999999998,0.365,-0.5674999999999999,58.625,-30.32
700,1715532703240,-0.18,-0.01,0.35,-15.26,15.32,-100.4
701,1715532703250,-0.18,-0.01,0.35,-15.26,15.32,-100.4
702,1715532703260,-0.18,-0.01,0.35,-15.26,15.32,-100.4
703,1715532703270,-0.18,-0.01,0.35,-15.26,15.32,-100.4
704,1715532703280,-0.18,-0.01,0.35,-15.26,15.32,-100.4
705,1715532703290,-0.18,-0.01,0.35,-15.26,15.32,-100.4
706,1715532703300,-0.18,-0.01,0.35,-15.26,15.32,-100.4
707,1715532703310,-0.18,-0.01,0.35,-15.26,15.32,-100.4
708,1715532703320,-0.18,-0.01,0.35,-15.26,15.32,-100.4
709,1715532703330,-0.18000000000000002,-0.01,0.3499999999999999,-15.26,15.32,-100.40000000000002
710,1715532703340,-0.18,-0.01,0.35,-15.26,15.319999999999999,-100.4
711,1715532703350,-0.64,-0.51,0.75,-217.16666666666666,16.94666666666667,-228.41333333333333
712,1715532703360,-0.87,-0.7600000000000001,0.9499999999999998,-318.12,17.76,-292.42
713,1715532703370,-0.87,-0.76,0.95,-318.12,17.76,-292.42
714,1715532703380,-0.915,-0.7075,0.9275,-318.12,17.76,-292.42
715,1715532703390,-1.05,-0.55,0.86,-309.81,24.05,-259.52
716,1715532703400,-1.05,-0.55,0.86,-309.81,24.05,-259.52
717,1715532703410,-1.05,-0.55,0.86,-309.81,24.05,-259.52
718,1715532703420,-1.4325,-0.3025,1.0175,-341.8125,83.0075,-211.55
719,1715532703430,-1.56,-0.22,1.07,-352.48,102.66,-195.56
720,1715532703440,-1.56,-0.22,1.07,-352.48,102.66,-195.56
721,1715532703450,-1.5625,-0.12,1.15,-349.795,69.22749999999999,-182.39
722,1715532703460,-1.57,0.18,1.39,-341.74,-31.07,-142.88
723,1715532703470,-1.57,0.18,1.39,-341.74,-31.07,-142.88
724,1715532703480,-1.57,0.18000000000000002,1.39,-341.74,-31.070000000000004,-142.88
725,1715532703490,-1.57,0.18,1.39,-341.74,-31.07,-142.88
726,1715532703500,-1.57,0.18000000000000002,1.39,-341.74,-31.070000000000004,-142.88
727,1715532703510,-1.57,0.18,1.39,-341.74,-31.07,-142.88
728,1715532703520,-1.57,0.18000000000000002,1.39,-341.74,-31.070000000000004,-142.88
729,1715532703530,-1.57,0.18,1.39,-341.74,-31.07,-142.88
730,1715532703540,-1.83,0.54,1.51,-330.92,-19.7625,-112.3175
731,1715532703550,-2.61,1.62,1.87,-298.46,14.16,-20.63
732,1715532703560,-2.61,1.62,1.87,-298.46,14.160000000000002,-20.63
733,1715532703570,-1.99,1.79,1.99,-158.75,-71.78,108.95
734,1715532703580,-1.99,1.79,1.99,-158.75,-71.78,108.95
735,1715532703590,-1.99,1.79,1.99,-158.75,-71.78,108.95
736,1715532703600,-1.99,1.79,1.99,-158.75,-71.78,108.95
737,1715532703610,-1.52,1.71,1.98,-78.37,-26.43,164.86
738,1715532703620,-1.5200000000000002,1.71,1.9799999999999998,-78.37,-26.429999999999996,164.86
739,1715532703630,-1.52,1.7100000000000002,1.98,-78.37,-26.43,164.86
740,1715532703640,-1.52,1.71,1.98,-78.37,-26.43,164.86
741,1715532703650,-1.72,1.18,2.13,71.35,-23.62,184.14
742,1715532703660,-1.72,1.18,2.13,71.35,-23.62,184.14
743,1715532703670,-1.72,1.18,2.13,71.35,-23.62,184.14
744,1715532703680,-1.6233333333333333,0.8999999999999999,1.8699999999999999,126.87333333333333,-43.49666666666667,191.12
745,1715532703690,-1.43,0.34,1.35,237.92,-83.25,205.08
746,1715532703700,-1.43,0.34,1.3500000000000003,237.92,-83.25,205.08
747,1715532703710,-1.43,0.34,1.35,237.92,-83.25,205.08
748,1715532703720,-1.07,-0.27999999999999997,0.9500000000000001,237.92,-83.25,205.08
749,1715532703730,-0.89,-0.59,0.75,331.73,-141.48,220.52
750,1715532703740,-0.89,-0.59,0.75,331.73,-141.48,220.52
751,1715532703750,-0.89,-0.59,0.75,331.73,-141.48,220.52
752,1715532703760,-0.6766666666666666,-0.8433333333333333,0.57,345.44000000000005,-131.69333333333333,223.53
753,1715532703770,-0.57,-0.97,0.48,372.86,-112.12,229.55
754,1715532703780,-0.57,-0.97,0.48,372.86,-112.12,229.55
755,1715532703790,-0.57,-0.97,0.48,372.86,-112.12,229.55
756,1715532703800,-0.57,-0.97,0.48,372.86,-112.12,229.55
757,1715532703810,-0.57,-0.97,0.48,372.86,-112.12,229.55
758,1715532703820,-0.57,-0.97,0.48,372.86,-112.12,229.55
759,1715532703830,-0.57,-0.9700000000000001,0.48,372.85999999999996,-112.12,229.55000000000004
760,1715532703840,-0.57,-0.97,0.48,372.86,-112.12,229.55
761,1715532703850,-0.57,-0.97,0.48,372.86,-112.12,229.55
762,1715532703860,-0.57,-0.97,0.48,372.86,-112.12,229.55
763,1715532703870,-0.57,-0.97,0.48,372.86,-112.12,229.55
764,1715532703880,-0.1,0.2,0.24,221.19,41.08,30.46
765,1715532703890,-0.1,0.2,0.24,221.19,41.08,30.46
766,1715532703900,-0.1,0.2,0.24,221.19,41.08,30.46
767,1715532703910,-0.21666666666666667,0.22333333333333336,0.27666666666666667,161.15333333333334,46.69333333333333,19.08666666666667
768,1715532703920,-0.45,0.27,0.35,41.08,57.92,-3.66
769,1715532703930,-0.45,0.27,0.35,41.08,57.92,-3.66
770,1715532703940,-0.45,0.27,0.35,41.08,57.92,-3.66
771,1715532703950,-0.45,0.27,0.3499999999999999,41.08,57.919999999999995,-3.66
772,1715532703960,-0.2,0.13,0.14,-80.69,-110.11,-85.27
773,1715532703970,-0.2,0.13,0.14,-80.69,-110.11,-85.27
774,1715532703980,-0.2,0.13,0.14,-80.69,-110.11,-85.27
775,1715532703990,-0.2,0.13,0.14,-80.69,-110.11,-85.27
776,1715532704000,-0.20000000000000004,0.13,0.14,-80.69,-110.11,-85.27
777,1715532704010,-0.2,0.13,0.14,-80.69,-110.11,-85.27
778,1715532704020,-0.20000000000000004,0.13,0.14,-80.69,-110.11,-85.27
779,1715532704030,-0.20000000000000004,0.13,0.14,-80.69,-110.11,-85.27
780,1715532704040,-0.2,0.13,0.14,-80.69,-110.10999999999999,-85.27
781,1715532704050,-0.20000000000000004,0.13,0.14,-80.69,-110.11,-85.27
782,1715532704060,-0.2,0.13,0.14,-80.69,-110.11,-85.27
783,1715532704070,-0.8675,-0.425,0.5,-291.89750000000004,-21.5275,-218.065
784,1715532704080,-1.09,-0.61,0.62,-362.3,8.0,-262.33
785,1715532704090,-1.09,-0.61,0.62,-362.3,8.0,-262.33
786,1715532704100,-1.09,-0.61,0.62,-362.3,8.0,-262.33
787,1715532704110,-1.17,-0.39,0.73,-339.505,20.175,-258.36
788,1715532704120,-1.17,-0.38999999999999996,0.73,-316.71,32.35,-254.39
789,1715532704130,-1.17,-0.39,0.73,-316.71,32.35,-254.39
790,1715532704140,-1.1575,-0.2625,0.6925,-289.3675,48.3875,-231.65499999999997
791,1715532704150,-1.12,0.12,0.58,-207.34,96.5,-163.45
792,1715532704160,-1.12,0.12,0.58,-207.34,96.5,-163.45
793,1715532704170,-1.12,0.12,0.58,-207.34,96.5,-163.45
794,1715532704180,-1.09,0.26,0.5333333333333333,-198.71333333333334,57.64000000000001,-156.63666666666666
795,1715532704190,-1.03,0.54,0.44,-181.46,-20.08,-143.01
796,1715532704200,-1.03,0.54,0.44,-181.46,-20.08,-143.01
797,1715532704210,-1.03,0.54,0.44,-181.46,-20.08,-143.01
798,1715532704220,-1.33,0.92,0.78,-195.13,32.835,-112.42999999999999
799,1715532704230,-1.63,1.3,1.12,-208.80000000000004,85.75,-81.85
800,1715532704240,-1.63,1.3,1.12,-208.8,85.75,-81.85
801,1715532704250,-1.63,1.3,1.12,-208.8,85.75,-81.85
802,1715532704260,-2.676666666666667,1.5599999999999998,1.82,-167.3,72.12333333333333,-56.169999999999995
803,1715532704270,-3.2,1.69,2.17,-146.55,65.31,-43.33
804,1715532704280,-3.2,1.69,2.17,-146.55,65.31,-43.33
805,1715532704290,-3.2,1.69,2.17,-146.55,65.31,-43.33
806,1715532704300,-2.9175,1.5899999999999999,2.12,-111.56,18.51,-14.552499999999998
807,1715532704310,-2.07,1.29,1.97,-6.59,-121.89,71.78
808,1715532704320,-2.07,1.29,1.97,-6.59,-121.89,71.78
809,1715532704330,-2.07,1.29,1.97,-6.59,-121.89,71.78
810,1715532704340,-2.07,1.29,1.97,-6.59,-121.89,71.78
811,1715532704350,-2.07,1.29,1.97,-6.59,-121.89,71.78
812,1715532704360,-2.07,1.29,1.97,-6.59,-121.89,71.78
813,1715532704370,-2.07,1.29,1.97,-6.59,-121.89,71.78
814,1715532704380,-2.07,1.29,1.97,-6.59,-121.89,71.78
815,1715532704390,-2.07,1.29,1.97,-6.59,-121.89,71.78
816,1715532704400,-1.825,0.96,1.575,72.725,-83.53,103.305
817,1715532704410,-1.27,0.39,0.96,159.83749999999998,-60.1225,140.445
818,1715532704420,-0.96,0.15,0.74,183.23,-104.98,157.29
819,1715532704430,-0.96,0.15,0.74,183.23,-104.98,157.29
820,1715532704440,-0.96,0.15,0.74,183.23,-104.98,157.29
821,1715532704450,-0.8533333333333334,-0.07666666666666667,0.5466666666666667,232.83,-44.593333333333334,168.1966666666667
822,1715532704460,-0.8,-0.19,0.45,257.63,-14.4,173.65
823,1715532704470,-0.8,-0.19,0.45,257.63,-14.4,173.65
824,1715532704480,-0.8,-0.19,0.45,257.63,-14.4,173.65
825,1715532704490,-0.77,-0.32,0.445,272.4,-12.48,196.84
826,1715532704500,-0.7399999999999999,-0.45,0.44,287.17,-10.56,220.03
827,1715532704510,-0.74,-0.45,0.44,287.17,-10.56,220.03
828,1715532704520,-0.74,-0.45,0.44,287.17,-10.56,220.03
829,1715532704530,-0.74,-0.45,0.44,287.17,-10.56,220.03
830,1715532704540,-0.74,-0.45,0.44,287.17,-10.56,220.03
831,1715532704550,-0.74,-0.45,0.44,287.17,-10.56,220.03
832,1715532704560,-0.74,-0.45,0.44,287.17,-10.56,220.03
833,1715532704570,-0.74,-0.45,0.44,287.17,-10.56,220.03
834,1715532704580,-0.74,-0.45,0.44,287.17,-10.56,220.03
835,1715532704590,-0.49,-0.255,0.29000000000000004,287.935,44.495,232.24
836,1715532704600,-0.315,0.0050000000000000044,0.05500000000000001,218.75,126.92500000000001,168.43
837,1715532704610,-0.39,0.07,-0.03,148.8,154.3,92.41
838,1715532704620,-0.39,0.07,-0.03,148.8,154.3,92.41
839,1715532704630,-0.38999999999999996,0.07,-0.03,148.8,154.3,92.41000000000001
840,1715532704640,-0.4275,0.07500000000000001,0.060000000000000005,73.54500000000002,114.9175,61.48
841,1715532704650,-0.54,0.09,0.33,-152.22,-3.23,-31.31
842,1715532704660,-0.54,0.09,0.33,-152.22,-3.23,-31.31
843,1715532704670,-0.54,0.09,0.33,-152.22,-3.23,-31.31
844,1715532704680,-0.2733333333333334,-0.06999999999999999,0.4633333333333334,-220.38,-90.46999999999998,-94.17666666666666
845,1715532704690,-0.14,-0.15,0.53,-254.46,-134.09,-125.61
846,1715532704700,-0.14,-0.15,0.53,-254.46,-134.09,-125.61
847,1715532704710,-0.14,-0.15,0.53,-254.46,-134.09,-125.61
848,1715532704720,-0.29,-0.37,0.7,-225.7575,-19.512500000000003,-166.215
849,1715532704730,-0.29,-0.37,0.7,-216.19,18.68,-179.75
850,1715532704740,-0.29,-0.37,0.7,-216.19,18.68,-179.75
851,1715532704750,-0.485,-0.36,0.735,-201.6625,56.9775,-195.26749999999998
852,1715532704760,-1.07,-0.33,0.84,-158.08,171.87,-241.82000000000002
853,1715532704770,-1.07,-0.33,0.84,-158.08,171.87,-241.82
854,1715532704780,-1.07,-0.33,0.84,-158.08,171.87,-241.82
855,1715532704790,-1.07,-0.33,0.84,-158.08,171.87,-241.82
856,1715532704800,-1.26,-0.02,0.59,-167.11,-80.75,-255.13
857,1715532704810,-1.26,-0.02,0.59,-167.11,-80.75,-255.13
858,1715532704820,-1.26,-0.02,0.59,-167.11,-80.75,-255.13
859,1715532704830,-1.26,-0.02,0.59,-167.11,-80.75,-255.13
860,1715532704840,-1.26,-0.02,0.59,-167.11,-80.75,-255.13
861,1715532704850,-1.26,-0.02,0.59,-167.11,-80.75,-255.13
862,1715532704860,-1.26,-0.02,0.59,-167.11,-80.75,-255.13
863,1715532704870,-1.26,-0.02,0.59,-167.11,-80.75,-255.13
864,1715532704880,-1.26,-0.02,0.59,-167.11,-80.75,-255.13
865,1715532704890,-1.26,-0.02,0.59,-167.11,-80.75,-255.13
866,1715532704900,-1.26,-0.02,0.59,-167.11,-80.75,-255.13
867,1715532704910,-1.26,-0.02,0.59,-167.11,-80.75,-255.13
868,1715532704920,-1.26,-0.02,0.59,-167.11,-80.75,-255.13
869,1715532704930,-0.7,0.64,0.25,-155.88,89.42,-117.25
870,1715532704940,-0.6999999999999998,0.64,0.25,-155.88,89.42,-117.25
871,1715532704950,-0.6999999999999998,0.64,0.25,-155.88,89.42,-117.25
872,1715532704960,-2.69,0.91,1.51,-68.18,418.03,-211.55000000000004
873,1715532704970,-2.69,0.91,1.51,-68.18,418.03,-211.55
874,1715532704980,-2.69,0.91,1.51,-68.18,418.03,-211.55000000000004
875,1715532704990,-3.83,1.85,0.7,-95.4,-34.42,-37.23
876,1715532705000,-3.83,1.85,0.7,-95.4,-34.42,-37.23
877,1715532705010,-3.83,1.85,0.7,-95.4,-34.42,-37.23
878,1715532705020,-3.4579999999999997,1.704,0.8140000000000001,-95.4,-34.42,-37.23
879,1715532705030,-1.97,1.12,1.27,-166.5,-287.6,-0.92
880,1715532705040,-1.97,1.12,1.27,-166.5,-287.6,-0.9200000000000002
881,1715532705050,-1.97,1.12,1.27,-166.5,-287.6,-0.9200000000000002
882,1715532705060,-1.97,1.12,1.27,-166.5,-287.6,-0.92
883,1715532705070,-1.97,1.12,1.27,-166.5,-287.6,-0.9200000000000002
884,1715532705080,-1.97,1.12,1.27,-166.5,-287.6,-0.92
885,1715532705090,-1.97,1.12,1.27,-166.5,-287.6,-0.92
886,1715532705100,-1.97,1.12,1.27,-166.5,-287.6,-0.92
887,1715532705110,-1.97,1.12,1.27,-166.5,-287.6,-0.92
888,1715532705120,-1.09,0.69,0.38,140.69,-82.7,135.56
889,1715532705130,-1.09,0.69,0.38000000000000006,140.69,-82.7,135.56
890,1715532705140,-0.865,0.355,0.3,155.3375,-84.455,143.0375
891,1715532705150,-0.64,0.02,0.22,199.28,-89.72,165.47
892,1715532705160,-0.64,0.02,0.22,199.28,-89.72,165.47
893,1715532705170,-0.64,0.02,0.22,199.28,-89.71999999999998,165.47
894,1715532705180,-0.5800000000000001,-0.3175,0.115,287.81,-21.8825,199.5725
895,1715532705190,-0.56,-0.43,0.08,317.32,0.73,210.94
896,1715532705200,-0.56,-0.43,0.08,317.32,0.73,210.93999999999997
897,1715532705210,-0.56,-0.43,0.08,317.32,0.73,210.94
898,1715532705220,-0.335,-0.385,0.005,327.5725,26.229999999999997,253.51
899,1715532705230,-0.26,-0.37,-0.02,330.99,34.73,267.7
900,1715532705240,-0.26,-0.36999999999999994,-0.02,330.99,34.73,267.7
901,1715532705250,-0.26,-0.37,-0.02,330.99,34.73,267.7
902,1715532705260,-0.11,-0.2075,-0.0225,309.935,37.262499999999996,261.1225
903,1715532705270,0.34,0.28,-0.03,246.77,44.86,241.39
904,1715532705280,0.34,0.28,-0.03,246.77,44.86,241.39
905,1715532705290,0.17250000000000001,0.37250000000000005,0.035,246.77,44.86,241.39
906,1715532705300,-0.33,0.65,0.23,175.17,172.61,-10.25
907,1715532705310,-0.33,0.65,0.23,175.17,172.61,-10.25
908,1715532705320,-0.33,0.65,0.23,175.17,172.61,-10.25
909,1715532705330,-0.8600000000000001,0.6950000000000001,0.325,123.565,151.705,-17.4825
910,1715532705340,-2.45,0.83,0.61,-31.25,88.99,-39.18
911,1715532705350,-2.45,0.83,0.61,-31.25,88.99,-39.18
912,1715532705360,-2.45,0.83,0.61,-31.25,88.99,-39.18
913,1715532705370,-2.45,0.83,0.61,-31.25,88.99,-39.18
914,1715532705380,-2.45,0.83,0.61,-31.25,88.99,-39.18
915,1715532705390,-2.45,0.83,0.61,-31.25,88.99,-39.18
916,1715532705400,-2.45,0.83,0.61,-31.25,88.99,-39.18
917,1715532705410,-2.45,0.8299999999999998,0.61,-31.25,88.99,-39.18
918,1715532705420,-2.45,0.83,0.61,-31.25,88.99,-39.18
919,1715532705430,-2.45,0.83,0.61,-31.25,88.99,-39.18
920,1715532705440,-2.45,0.83,0.61,-31.25,88.99,-39.18
921,1715532705450,-1.445,0.32499999999999996,0.47,-58.87,61.464999999999996,-71.41
922,1715532705460,-0.44,-0.18,0.33,-86.49,33.94,-103.64
923,1715532705470,-0.44,-0.18,0.33,-86.49,33.94,-103.64
924,1715532705480,-0.44,-0.18,0.33,-86.49,33.94,-103.64
925,1715532705490,-0.42,-0.25,-0.11,-27.83,-9.89,-141.17
926,1715532705500,-0.42,-0.25,-0.11,-27.83,-9.89,-141.17
927,1715532705510,-0.42,-0.25,-0.11,-27.83,-9.89,-141.17
928,1715532705520,-0.37,-0.1975,-0.2375,-27.83,-9.89,-141.17
929,1715532705530,-0.22,-0.04,-0.62,-112.2875,-46.415000000000006,-121.99249999999999
930,1715532705540,-0.22,-0.04,-0.62,-140.44,-58.59,-115.6
931,1715532705550,-0.22,-0.04,-0.62,-140.44,-58.59,-115.6
932,1715532705560,-0.22,-0.04,-0.62,-140.44,-58.59,-115.6
933,1715532705570,-0.22,-0.04,-0.62,-140.44,-58.59,-115.6
934,1715532705580,-0.22,-0.04,-0.62,-140.44,-58.59,-115.6
935,1715532705590,-0.22,-0.04,-0.62,-140.44,-58.59,-115.6
936,1715532705600,-0.22,-0.04,-0.62,-140.44,-58.59,-115.6
937,1715532705610,-0.22,-0.04,-0.62,-140.44,-58.59,-115.6
938,1715532705620,-0.22,-0.04,-0.62,-140.44,-58.59,-115.6
939,1715532705630,-0.22,-0.04,-0.62,-140.44,-58.59,-115.59999999999998
940,1715532705640,-1.225,0.32000000000000006,0.195,-170.655,79.99,-139.76999999999998
941,1715532705650,-2.23,0.68,1.01,-200.87,218.57,-163.94
942,1715532705660,-2.23,0.68,1.01,-200.87,218.57,-163.94
943,1715532705670,-2.23,0.68,1.01,-200.87,218.57,-163.94
944,1715532705680,-4.11,1.49,1.8099999999999998,-140.36333333333334,74.07666666666667,-107.54666666666667
945,1715532705690,-4.11,1.49,1.81,-110.11,1.83,-79.35
946,1715532705700,-4.11,1.49,1.8099999999999998,-110.11,1.83,-79.35
947,1715532705710,-4.11,1.49,1.81,-110.11,1.83,-79.35
948,1715532705720,-2.36,1.34,1.56,-60.73,-115.78,62.81
949,1715532705730,-2.36,1.34,1.5599999999999998,-60.73,-115.78000000000002,62.81
950,1715532705740,-2.36,1.34,1.56,-60.73,-115.78,62.81
951,1715532705750,-2.36,1.34,1.56,-60.73,-115.78,62.81
952,1715532705760,-2.28,1.27,1.04,13.49,53.22,108.64
953,1715532705770,-2.28,1.27,1.04,13.49,53.22,108.64
954,1715532705780,-2.28,1.27,1.04,13.49,53.22,108.64
955,1715532705790,-2.1075,1.1925,0.895,2.365,27.25,128.47750000000002
956,1715532705800,-1.59,0.96,0.46,-31.01,-50.66,187.99
957,1715532705810,-1.59,0.96,0.46,-31.01,-50.66,187.99
958,1715532705820,-1.59,0.96,0.46,-31.01,-50.66,187.99
959,1715532705830,-0.9225,0.495,0.4975,-10.775,-92.6825,206.62
960,1715532705840,-0.6999999999999998,0.34,0.51,-4.03,-106.69,212.83
961,1715532705850,-0.7,0.34,0.51,-4.03,-106.69,212.83
962,1715532705860,-0.7,0.34,0.51,-4.03,-106.69,212.83
963,1715532705870,-0.39999999999999997,-0.0875,0.585,88.5275,-60.4525,220.2025
964,1715532705880,-0.3,-0.23,0.61,119.38,-45.04,222.66
965,1715532705890,-0.3,-0.23,0.61,119.38,-45.04,222.66
966,1715532705900,-0.3,-0.23,0.61,119.38,-45.04,222.66
967,1715532705910,-0.3,-0.23,0.61,119.38,-45.04,222.66
968,1715532705920,-0.3,-0.23,0.61,119.38,-45.04,222.66
969,1715532705930,-0.3,-0.23,0.61,119.38,-45.04,222.66
970,1715532705940,-0.3,-0.23,0.61,119.38,-45.04,222.66
971,1715532705950,-0.3,-0.23,0.61,119.38,-45.04,222.66
972,1715532705960,-0.3,-0.23,0.61,119.38,-45.04,222.66
973,1715532705970,-0.3175,-0.28,0.5275,157.1325,-45.4825,228.51749999999998
974,1715532705980,-0.2575,-0.145,0.25,250.8825,-53.68,241.79250000000002
975,1715532705990,-0.22,-0.05,0.24,244.38,-55.97,240.36
976,1715532706000,-0.22,-0.05000000000000001,0.24,244.38,-55.97,240.36
977,1715532706010,-0.19,0.25,0.28500000000000003,202.42000000000002,-69.215,164.37
978,1715532706020,-0.16,0.55,0.33,160.46,-82.46,88.38
979,1715532706030,-0.16,0.55,0.33,160.46,-82.46,88.38
980,1715532706040,-0.16,0.55,0.33,160.46,-82.46,88.38
981,1715532706050,-0.7675,0.505,0.6225,110.2,3.845000000000006,32.349999999999994
982,1715532706060,-0.97,0.49,0.72,59.94,90.15,-23.68
983,1715532706070,-0.9700000000000001,0.49,0.7200000000000001,59.94,90.15000000000002,-23.679999999999996
984,1715532706080,-0.97,0.49,0.72,59.94,90.15,-23.68
985,1715532706090,-0.97,0.49,0.72,59.94,90.15,-23.68
986,1715532706100,-0.9700000000000001,0.49,0.7200000000000001,59.94,90.15000000000002,-23.679999999999996
987,1715532706110,-0.97,0.49,0.72,59.94,90.15,-23.68
988,1715532706120,-0.97,0.49,0.72,59.94,90.15,-23.68
989,1715532706130,-0.97,0.49,0.72,59.94,90.15,-23.68
990,1715532706140,-0.97,0.49,0.72,59.94,90.15,-23.68
991,1715532706150,-0.9700000000000001,0.49,0.7200000000000001,59.94,90.15000000000002,-23.679999999999996
992,1715532706160,-0.9325,0.46499999999999997,0.69,46.832499999999996,50.462500000000006,-37.0925
993,1715532706170,-0.51,-0.34,0.4000000000000001,-151.49,-18.25,-218.38
994,1715532706180,-0.51,-0.34,0.4,-151.49,-18.25,-218.38
995,1715532706190,-0.51,-0.34,0.4,-151.49,-18.25,-218.38
996,1715532706200,-0.565,-0.3775,0.34500000000000003,-141.83,-3.51,-224.3175
997,1715532706210,-0.73,-0.49,0.18,-112.85,40.71,-242.13
998,1715532706220,-0.73,-0.49,0.18,-112.85,40.71,-242.13
999,1715532706230,-0.73,-0.49,0.18000000000000002,-112.84999999999998,40.71,-242.13
1000,1715532706240,-0.72,-0.345,-0.02500000000000001,-118.0225,33.4,-246.7525
1001,1715532706250,-0.71,-0.2,-0.23,-133.54,11.47,-260.62
1002,1715532706260,-0.71,-0.2,-0.23,-133.54,11.47,-260.62
1003,1715532706270,-0.71,-0.2,-0.23,-133.54,11.47,-260.62
1004,1715532706280,-0.71,-0.2,-0.23,-133.54,11.47,-260.62
1005,1715532706290,-0.53,-0.02,-0.38,-178.83,41.02,-214.97
1006,1715532706300,-0.53,-0.02,-0.38000000000000006,-178.83,41.02,-214.97
1007,1715532706310,-0.53,-0.02,-0.38,-178.83,41.02,-214.97
1008,1715532706320,-0.71,0.20666666666666667,-0.3066666666666667,-193.56333333333336,40.693333333333335,-213.13666666666666
1009,1715532706330,-0.8000000000000002,0.32,-0.27,-200.92999999999998,40.53,-212.22
1010,1715532706340,-0.8,0.32,-0.27,-200.93,40.53,-212.22
1011,1715532706350,-0.8,0.32,-0.27,-200.93,40.53,-212.22
1012,1715532706360,-2.02,0.81,0.43,-256.96,50.05,-185.73
1013,1715532706370,-2.02,0.81,0.43,-256.96,50.04999999999999,-185.73
1014,1715532706380,-2.02,0.81,0.43,-256.96,50.05,-185.73
1015,1715532706390,-2.43,0.9425000000000001,0.5825,-256.96,50.05,-185.73
1016,1715532706400,-3.66,1.34,1.04,-137.39,221.5,-36.32
1017,1715532706410,-3.66,1.34,1.04,-137.39,221.5,-36.32
1018,1715532706420,-3.66,1.34,1.04,-137.39,221.5,-36.32
1019,1715532706430,-3.66,1.34,1.04,-137.39,221.5,-36.32
1020,1715532706440,-3.66,1.34,1.04,-137.39,221.5,-36.32
1021,1715532706450,-3.66,1.34,1.04,-137.39,221.5,-36.32
1022,1715532706460,-3.66,1.34,1.04,-137.39,221.5,-36.32
1023,1715532706470,-3.66,1.34,1.04,-137.39,221.5,-36.32
1024,1715532706480,-3.66,1.34,1.04,-137.39,221.5,-36.32
1025,1715532706490,-3.66,1.34,1.04,-137.39,221.5,-36.32
1026,1715532706500,-2.9250000000000003,1.1600000000000001,0.7775,-17.224999999999998,99.0925,109.1575
1027,1715532706510,-2.4925,0.9800000000000001,0.6224999999999999,32.045,34.5175,170.9575
1028,1715532706520,-1.93,0.62,0.42,59.69,-36.8,210.88
1029,1715532706530,-1.93,0.62,0.42,59.69,-36.8,210.88
1030,1715532706540,-1.93,0.62,0.42,59.69,-36.8,210.88
1031,1715532706550,-1.3075,0.3275,0.3,84.22999999999999,-49.3475,227.3125
1032,1715532706560,-1.1,0.23,0.26,92.41,-53.53,232.79
1033,1715532706570,-1.1,0.23,0.26,92.41,-53.53,232.79
1034,1715532706580,-1.1,0.23,0.26,92.41,-53.53,232.79
1035,1715532706590,-0.89,-0.06,0.16,92.41000000000001,-53.53,232.79
1036,1715532706600,-0.89,-0.06,0.16,117.49,-51.27,254.52
1037,1715532706610,-0.89,-0.06,0.16,117.49,-51.27,254.52
1038,1715532706620,-0.89,-0.06,0.16,117.49,-51.27,254.52
1039,1715532706630,-0.89,-0.06,0.16,117.49,-51.27,254.52
1040,1715532706640,-0.89,-0.06,0.16,117.49,-51.27,254.52
1041,1715532706650,-0.89,-0.06,0.16,117.49,-51.27,254.52
1042,1715532706660,-0.89,-0.06,0.16,117.49,-51.27,254.52
1043,1715532706670,-0.89,-0.06,0.16,117.49,-51.27,254.52
1044,1715532706680,-0.89,-0.06,0.16,117.49,-51.27,254.52
1045,1715532706690,-0.755,-0.4425,0.1375,150.5875,-69.6225,313.71
1046,1715532706700,-0.6699999999999999,-0.4666666666666666,0.05666666666666667,160.21666666666667,-64.91666666666667,338.87
1047,1715532706710,-0.59,-0.26,-0.09,157.41,-43.27,349.73
1048,1715532706720,-0.59,-0.26,-0.09,157.41,-43.27,349.73
1049,1715532706730,-0.59,-0.26,-0.09000000000000001,157.41,-43.27,349.73
1050,1715532706740,-0.27499999999999997,-0.04000000000000001,-0.16,113.8,-59.965,313.17
1051,1715532706750,0.04,0.18000000000000002,-0.23,70.19,-76.66,276.61
1052,1715532706760,0.04,0.18,-0.23,70.19,-76.66,276.61
1053,1715532706770,0.04,0.18,-0.23,70.19,-76.66,276.61
1054,1715532706780,0.43,0.12,0.03,-20.69,58.78,77.51
1055,1715532706790,0.43,0.12,0.03,-20.69,58.78,77.51
1056,1715532706800,0.43,0.12,0.03,-20.69,58.78,77.51
1057,1715532706810,0.43,0.12,0.03,-20.69,58.78,77.51
1058,1715532706820,0.3025,0.2175,0.03,-56.765,42.4825,-59.2225
1059,1715532706830,0.26,0.25,0.03,-68.79,37.05,-104.8
1060,1715532706840,0.26,0.25,0.03,-68.79,37.05,-104.8
1061,1715532706850,0.26,0.25,0.03,-68.79,37.05,-104.8
1062,1715532706860,-0.26,-0.3,0.38,-172.73,-36.93,-286.93
1063,1715532706870,-0.26,-0.3,0.38,-172.73,-36.93,-286.93
1064,1715532706880,-0.26,-0.3,0.38,-172.73,-36.93,-286.93
1065,1715532706890,-0.26,-0.3,0.38,-172.73,-36.93,-286.93
1066,1715532706900,-1.47,-0.44,0.79,-134.52,111.94,-322.63
1067,1715532706910,-1.47,-0.44,0.79,-134.52,111.94,-322.63
1068,1715532706920,-1.47,-0.44,0.79,-134.52,111.94,-322.63
1069,1715532706930,-1.705,-0.255,0.665,-134.52,111.94,-322.63
1070,1715532706940,-1.94,-0.07,0.54,-134.52,111.94,-322.63
1071,1715532706950,-1.94,-0.07,0.54,-134.52,111.94,-322.63
1072,1715532706960,-1.94,-0.07,0.54,-134.52,111.94,-322.63
1073,1715532706970,-1.94,-0.07,0.54,-134.52,111.94,-322.63
1074,1715532706980,-1.94,-0.07,0.54,-134.52,111.94,-322.63
1075,1715532706990,-1.9400000000000002,-0.07,0.54,-134.52,111.94,-322.63
1076,1715532707000,-1.94,-0.07,0.54,-134.52,111.94,-322.63
1077,1715532707010,-1.94,-0.07,0.54,-134.52,111.94,-322.63
1078,1715532707020,-1.275,-0.025,0.25,-34.24,64.21,-276.52
1079,1715532707030,-0.61,0.02,-0.04,66.04,16.48,-230.41
1080,1715532707040,-0.61,0.02,-0.04,66.04,16.48,-230.41
1081,1715532707050,-0.38000000000000006,0.16,-0.32,28.02,3.11,-215.27
1082,1715532707060,-0.38,0.16,-0.32,28.02,3.11,-215.27
1083,1715532707070,-0.38,0.16,-0.32,28.02,3.11,-215.27
1084,1715532707080,-0.38000000000000006,0.16,-0.32,28.02,3.11,-215.27
1085,1715532707090,-0.3875,0.28,-0.26,-28.9275,4.3025,-221.45
1086,1715532707100,-0.39,0.32,-0.24,-47.91,4.7,-223.51
1087,1715532707110,-0.39,0.32,-0.24,-47.91,4.7,-223.51
1088,1715532707120,-1.22,0.515,-0.1275,-49.8475,36.515,-234.695
1089,1715532707130,-3.71,1.1,0.21,-55.66,131.96,-268.25
1090,1715532707140,-3.71,1.1,0.21,-55.66,131.96,-268.25
1091,1715532707150,-3.71,1.1,0.21,-55.66,131.96,-268.25
1092,1715532707160,-3.7099999999999995,1.1,0.21,-55.66,131.96,-268.25
1093,1715532707170,-3.71,1.1,0.21000000000000002,-55.65999999999999,131.96,-268.25
1094,1715532707180,-3.7099999999999995,1.1,0.21,-55.66,131.96,-268.25
1095,1715532707190,-3.71,1.1,0.21,-55.66,131.96,-268.25
1096,1715532707200,-3.71,1.1,0.21,-55.66,131.96,-268.25
1097,1715532707210,-3.475,1.0875000000000001,0.3625,-38.205,93.02000000000001,-177.385
1098,1715532707220,-2.77,1.05,0.82,14.16,-23.8,95.21
1099,1715532707230,-2.77,1.05,0.82,14.160000000000002,-23.8,95.21
1100,1715532707240,-2.5525,0.9825,0.6749999999999999,29.0075,-4.560000000000002,115.94749999999999
1101,1715532707250,-1.8999999999999997,0.7799999999999999,0.24,73.55,53.16,178.16
1102,1715532707260,-1.9,0.78,0.24,73.55,53.16,178.16
1103,1715532707270,-1.9,0.78,0.24,73.55,53.16,178.16
1104,1715532707280,-1.225,0.42,0.1125,66.8975,17.682499999999997,188.17
1105,1715532707290,-1.0,0.3,0.07,46.94,-88.75,218.19999999999996
1106,1715532707300,-1.0,0.3,0.07,46.94,-88.75,218.2
1107,1715532707310,-1.0,0.3,0.07,46.94,-88.75,218.2
1108,1715532707320,-0.6,-0.15,0.12,92.04,-12.449999999999998,242.74
1109,1715532707330,-0.6,-0.15,0.12,92.04,-12.45,242.74
1110,1715532707340,-0.6,-0.15,0.12,92.04,-12.45,242.74
1111,1715532707350,-0.565,-0.245,0.14,102.58500000000001,-9.52,250.11
1112,1715532707360,-0.46,-0.53,0.2,134.22,-0.73,272.22
1113,1715532707370,-0.46,-0.53,0.20000000000000004,134.22,-0.73,272.22
1114,1715532707380,-0.46,-0.53,0.2,134.22,-0.73,272.22
1115,1715532707390,-0.38,-0.53,0.1925,147.7525,2.6725000000000003,277.9875
1116,1715532707400,-0.14,-0.53,0.17,188.35,12.88,295.29
1117,1715532707410,-0.14,-0.53,0.17,188.35,12.88,295.29
1118,1715532707420,-0.14,-0.53,0.17,188.35,12.88,295.29
1119,1715532707430,-0.14,-0.53,0.17,188.35,12.88,295.29
1120,1715532707440,0.44,-0.23,0.04,178.59,39.18,261.72
1121,1715532707450,0.44,-0.23,0.04,178.59,39.18,261.72
1122,1715532707460,0.44,-0.23,0.04,178.59,39.18,261.72
1123,1715532707470,0.44,-0.23,0.04,178.59,39.18,261.72
1124,1715532707480,0.44,-0.23,0.04,178.59,39.18,261.72
1125,1715532707490,0.44,-0.23,0.04,178.59,39.18,261.72
1126,1715532707500,0.44,-0.23,0.04,178.59,39.18,261.72
1127,1715532707510,0.44,-0.23,0.04,178.59,39.18,261.72
1128,1715532707520,0.44,-0.23,0.04,178.59,39.18,261.72
1129,1715532707530,0.44,-0.23,0.04,178.59,39.18,261.72
1130,1715532707540,0.44,-0.23,0.04,178.59,39.18,261.72
1131,1715532707550,-1.1425,0.16749999999999998,0.6775,-30.382500000000004,-143.5125,-10.237499999999994
1132,1715532707560,-1.67,0.3,0.89,-100.04,-204.41,-100.89
1133,1715532707570,-1.67,0.3,0.89,-100.04,-204.41,-100.89
1134,1715532707580,-1.67,0.3,0.89,-100.04,-204.41,-100.89
1135,1715532707590,-0.92,0.08,0.71,-69.55250000000001,-111.2075,-140.67000000000002
1136,1715532707600,-0.92,0.08,0.71,-59.39,-80.14,-153.93
1137,1715532707610,-0.92,0.08,0.71,-59.39,-80.14,-153.93
1138,1715532707620,-0.8825000000000001,0.035,0.665,-62.8675,-39.322500000000005,-162.0025
1139,1715532707630,-0.77,-0.10000000000000002,0.53,-73.3,83.13,-186.22
1140,1715532707640,-0.77,-0.1,0.53,-73.3,83.13,-186.22
1141,1715532707650,-0.77,-0.1,0.53,-73.3,83.13,-186.22
1142,1715532707660,-0.77,-0.1,0.53,-73.3,83.13,-186.22
1143,1715532707670,-0.77,-0.10000000000000002,0.53,-73.3,83.13,-186.22
1144,1715532707680,-0.77,-0.1,0.53,-73.3,83.13,-186.22
1145,1715532707690,-0.77,-0.1,0.53,-73.3,83.13,-186.22
1146,1715532707700,-0.77,-0.10000000000000002,0.53,-73.3,83.13,-186.22
1147,1715532707710,-0.77,-0.1,0.53,-73.3,83.13,-186.22
1148,1715532707720,-0.77,-0.1,0.53,-73.3,83.13,-186.22
1149,1715532707730,-0.77,-0.10000000000000002,0.53,-73.3,83.13,-186.22
1150,1715532707740,-0.725,0.1075,0.17250000000000001,-63.1725,38.177499999999995,-182.01
1151,1715532707750,-0.59,0.25,0.02,-67.08,13.61,-153.69
1152,1715532707760,-0.59,0.25,0.02,-67.08,13.61,-153.69
1153,1715532707770,-0.59,0.25,0.02,-67.08,13.61,-153.69
1154,1715532707780,-0.365,0.37,-0.039999999999999994,-109.3725,-62.14750000000001,-143.07
1155,1715532707790,-0.29,0.41,-0.06,-123.47,-87.4,-139.53
1156,1715532707800,-0.29,0.41,-0.06,-123.46999999999998,-87.40000000000002,-139.53
1157,1715532707810,-0.29,0.41,-0.06,-123.47,-87.4,-139.53
1158,1715532707820,-0.59,0.665,-0.06,-151.9025,-32.237500000000004,-108.2625
1159,1715532707830,-0.69,0.75,-0.06,-161.38,-13.85,-97.83999999999999
1160,1715532707840,-0.69,0.75,-0.06,-161.38,-13.85,-97.84
1161,1715532707850,-1.2825,0.9175,0.0325,-144.06,30.3225,-103.805
1162,1715532707860,-3.06,1.42,0.31,-92.09999999999998,162.84,-121.7
1163,1715532707870,-3.06,1.42,0.31,-92.09999999999998,162.84,-121.7
1164,1715532707880,-3.06,1.42,0.31,-92.1,162.84,-121.7
1165,1715532707890,-3.085,1.49,0.33,-92.1,162.84,-121.7
1166,1715532707900,-3.16,1.7,0.38999999999999996,-115.94666666666667,-6.513333333333331,23.88666666666667
1167,1715532707910,-3.16,1.7,0.39,-127.87,-91.19,96.68
1168,1715532707920,-3.16,1.7,0.39,-127.87,-91.19,96.68
1169,1715532707930,-3.0433333333333334,1.5266666666666666,0.5033333333333333,-127.87,-91.19,96.68
1170,1715532707940,-2.81,1.18,0.73,-17.88,-54.57,173.89
1171,1715532707950,-2.81,1.18,0.73,-17.88,-54.57,173.89
1172,1715532707960,-2.81,1.18,0.73,-17.88,-54.57,173.89
1173,1715532707970,-2.81,1.18,0.73,-17.88,-54.57,173.89
1174,1715532707980,-2.81,1.18,0.73,-17.88,-54.57,173.89
1175,1715532707990,-2.81,1.18,0.73,-17.88,-54.57,173.89
1176,1715532708000,-2.81,1.18,0.73,-17.88,-54.57,173.89
1177,1715532708010,-2.81,1.18,0.73,-17.88,-54.57,173.89
1178,1715532708020,-2.81,1.18,0.73,-17.88,-54.57,173.89
1179,1715532708030,-2.81,1.18,0.73,-17.88,-54.57,173.89
1180,1715532708040,-2.81,1.18,0.73,-17.88,-54.57,173.89
1181,1715532708050,-2.81,1.18,0.73,-17.88,-54.57,173.89
1182,1715532708060,-2.81,1.18,0.73,-17.88,-54.57,173.89
1183,1715532708070,-1.4849999999999999,0.25749999999999995,0.3575,22.4,-80.935,225.25
1184,1715532708080,-0.61,-0.4,0.15,62.68,-107.3,276.61
1185,1715532708090,-0.4000000000000001,-0.66,0.23,112.06,-78.0,286.19
1186,1715532708100,-0.4,-0.66,0.23,112.06,-78.0,286.19
1187,1715532708110,-0.4,-0.66,0.23,112.06,-78.0,286.19
1188,1715532708120,-0.4,-0.66,0.23,112.06,-78.0,286.19
1189,1715532708130,-0.07,-0.58,0.22,168.7,-36.56,280.7
1190,1715532708140,-0.07,-0.58,0.22,168.7,-36.56,280.7
1191,1715532708150,-0.07,-0.58,0.22,168.7,-36.56,280.7
1192,1715532708160,0.09666666666666666,-0.21999999999999997,0.13333333333333333,187.01333333333332,20.040000000000003,235.82000000000002
1193,1715532708170,0.18,-0.04,0.09,196.17,48.34,213.38
1194,1715532708180,0.18,-0.04,0.09,196.17,48.34,213.38
1195,1715532708190,0.18,-0.04,0.09,196.17,48.34,213.38
1196,1715532708200,0.18,-0.04,0.09,196.17,48.34,213.38
1197,1715532708210,0.18,-0.04,0.09,196.17,48.34,213.38
1198,1715532708220,0.18,-0.04,0.09,196.17,48.34,213.38
1199,1715532708230,0.18,-0.04,0.09,196.17,48.34,213.38
1200,1715532708240,0.18,-0.04,0.09,196.17,48.34,213.38
1201,1715532708250,0.18,-0.04,0.09,196.17,48.34,213.38
1202,1715532708260,-0.08333333333333333,0.08999999999999998,0.11666666666666665,107.69,14.140000000000002,101.82666666666667
1203,1715532708270,-0.61,0.35,0.17,-69.27,-54.26,-121.28
1204,1715532708280,-0.62,-0.08,0.47,-220.4,-136.66,-206.54
1205,1715532708290,-0.62,-0.08,0.47,-220.4,-136.66,-206.54
1206,1715532708300,-0.62,-0.08,0.47,-220.4,-136.66,-206.54
1207,1715532708310,-0.62,-0.08,0.47,-220.4,-136.66,-206.54
1208,1715532708320,-1.58,-0.57,1.02,-135.01,127.08,-304.57
1209,1715532708330,-1.58,-0.57,1.02,-135.01,127.08,-304.57
1210,1715532708340,-1.58,-0.57,1.02,-135.01,127.08,-304.57
1211,1715532708350,-1.58,-0.57,1.02,-135.01,127.08,-304.57
1212,1715532708360,-1.62,-0.31,0.74,0.73,207.95,-222.11
1213,1715532708370,-1.62,-0.31,0.74,0.73,207.95,-222.11
1214,1715532708380,-1.62,-0.31,0.7399999999999999,0.73,207.94999999999996,-222.11
1215,1715532708390,-1.565,-0.245,0.64,0.73,207.95,-222.11
1216,1715532708400,-1.4,-0.05,0.34,50.23,23.19,-228.58
1217,1715532708410,-1.4,-0.05,0.34,50.23,23.19,-228.58
1218,1715532708420,-1.4,-0.05,0.34,50.23,23.19,-228.58
1219,1715532708430,-0.8075,0.04000000000000001,0.115,50.23,23.19,-228.58
1220,1715532708440,-0.61,0.07,0.04,-7.69,-104.92,-207.95
1221,1715532708450,-0.61,0.07,0.04,-7.69,-104.92,-207.95
1222,1715532708460,-0.61,0.07,0.04,-7.69,-104.92,-207.94999999999996
1223,1715532708470,-0.595,0.08499999999999999,0.025,-43.72,-50.7625,-200.7125
1224,1715532708480,-0.59,0.09,0.02,-55.73,-32.71,-198.3
1225,1715532708490,-0.59,0.09,0.02,-55.73,-32.71,-198.3
1226,1715532708500,-0.59,0.09000000000000001,0.02,-55.73,-32.71,-198.30000000000004
1227,1715532708510,-0.59,0.09,0.02,-55.73,-32.71,-198.3
1228,1715532708520,-0.59,0.09,0.02,-55.73,-32.71,-198.3
1229,1715532708530,-0.59,0.09,0.02,-55.73,-32.71,-198.3
1230,1715532708540,-0.59,0.09,0.02,-55.73,-32.71,-198.3
1231,1715532708550,-0.59,0.09,0.02,-55.73,-32.71,-198.3
1232,1715532708560,-0.59,0.09000000000000001,0.02,-55.73,-32.71,-198.30000000000004
1233,1715532708570,-0.59,0.09,0.02,-55.73,-32.71,-198.3
1234,1715532708580,-0.59,0.09000000000000001,0.02,-55.73,-32.71,-198.30000000000004
1235,1715532708590,-1.2650000000000001,0.565,0.085,-76.16,-19.71,-172.59
1236,1715532708600,-3.2900000000000005,1.99,0.28,-137.45,19.29,-95.46
1237,1715532708610,-3.2900000000000005,1.99,0.28,-137.45,19.29,-95.46
1238,1715532708620,-2.99,1.8,0.45,-160.675,-71.595,5.525000000000006
1239,1715532708630,-2.69,1.61,0.62,-183.9,-162.48,106.51
1240,1715532708640,-2.69,1.61,0.62,-183.9,-162.48,106.51
1241,1715532708650,-2.69,1.61,0.62,-183.9,-162.48,106.51
1242,1715532708660,-2.485,1.355,0.745,-129.18,-107.455,159.975
1243,1715532708670,-2.28,1.1,0.87,-74.46,-52.43,213.44
1244,1715532708680,-2.28,1.1,0.87,-74.46,-52.43,213.43999999999997
1245,1715532708690,-2.28,1.1,0.8699999999999999,-74.46,-52.42999999999999,213.44
1246,1715532708700,-2.28,1.1,0.87,-74.46,-52.43,213.44
1247,1715532708710,-2.28,1.1,0.87,-74.46,-52.43,213.43999999999997
1248,1715532708720,-2.28,1.1,0.87,-74.46,-52.43,213.44
1249,1715532708730,-2.28,1.1,0.87,-74.46,-52.43,213.44
1250,1715532708740,-2.28,1.1,0.87,-74.46,-52.43,213.44
1251,1715532708750,-2.28,1.1,0.87,-74.46,-52.43,213.44
1252,1715532708760,-2.28,1.1,0.87,-74.46,-52.43,213.44
1253,1715532708770,-2.28,1.1,0.87,-74.46,-52.43,213.43999999999997
1254,1715532708780,-2.28,1.1,0.87,-74.46,-52.43,213.44
1255,1715532708790,-0.9925,0.1725,0.305,93.6925,-83.815,219.605
1256,1715532708800,-0.79,0.0,0.20000000000000004,114.69,-103.88,212.22
1257,1715532708810,-0.75,-0.125,0.2375,122.3475,-103.9725,214.95
1258,1715532708820,-0.63,-0.5,0.35,145.32,-104.25,223.14
1259,1715532708830,-0.63,-0.5,0.3499999999999999,145.32,-104.25,223.14
1260,1715532708840,-0.63,-0.5,0.35,145.32,-104.25,223.14
1261,1715532708850,-0.49,-0.6,0.36999999999999994,209.0,-96.68333333333334,222.73333333333335
1262,1715532708860,-0.42,-0.65,0.38,240.84,-92.9,222.53
1263,1715532708870,-0.42,-0.65,0.38,240.84,-92.9,222.53
1264,1715532708880,-0.42,-0.65,0.38,240.84,-92.9,222.53
1265,1715532708890,-0.305,-0.455,0.28500000000000003,277.83,-47.215,224.24
1266,1715532708900,-0.19000000000000003,-0.26,0.19000000000000003,314.82,-1.53,225.94999999999996
1267,1715532708910,-0.19,-0.26,0.19,314.82,-1.53,225.95
1268,1715532708920,-0.19,-0.26,0.19,314.82,-1.53,225.95
1269,1715532708930,0.0050000000000000044,0.175,0.07,281.8575,91.995,126.1625
1270,1715532708940,0.07,0.32,0.03,270.87,123.17,92.9
1271,1715532708950,0.07,0.32,0.03,270.87,123.17,92.90000000000002
1272,1715532708960,0.07,0.32,0.03,270.87,123.17,92.9
1273,1715532708970,-0.6124999999999999,0.38749999999999996,-0.0975,183.075,96.9425,-50.7925
1274,1715532708980,-0.84,0.41,-0.14,153.81,88.2,-98.69
1275,1715532708990,-0.84,0.41,-0.14,153.81,88.2,-98.69
1276,1715532709000,-0.84,0.41,-0.14,153.81,88.2,-98.69
1277,1715532709010,-0.83,0.52,-0.11,-119.08,-102.48,-130.19
1278,1715532709020,-0.83,0.52,-0.11,-119.08,-102.48,-130.19
1279,1715532709030,-0.83,0.52,-0.11,-119.08,-102.48,-130.19
1280,1715532709040,-0.83,0.52,-0.11,-119.08,-102.48,-130.19
1281,1715532709050,-0.83,0.52,-0.11,-119.08,-102.48,-130.19
1282,1715532709060,-0.83,0.52,-0.11,-119.08,-102.48,-130.19
1283,1715532709070,-0.83,0.52,-0.11,-119.08,-102.48,-130.19
1284,1715532709080,-0.83,0.52,-0.11,-119.08,-102.48,-130.19
1285,1715532709090,-0.83,0.52,-0.11,-119.08,-102.48,-130.19
1286,1715532709100,-0.83,0.52,-0.11,-119.08,-102.48,-130.19
1287,1715532709110,-0.83,0.52,-0.11,-119.08,-102.48,-130.19
1288,1715532709120,-0.8975,0.21000000000000002,0.245,-141.265,-61.417500000000004,-163.425
1289,1715532709130,-1.19,-0.05000000000000001,0.58,-56.88,22.83,-189.58
1290,1715532709140,-1.19,-0.05,0.58,-56.88,22.83,-189.58
1291,1715532709150,-1.19,-0.05,0.58,-56.88,22.83,-189.58
1292,1715532709160,-0.9966666666666667,0.08333333333333333,0.27999999999999997,-5.613333333333334,-14.85,-185.75333333333333
1293,1715532709170,-0.9,0.15,0.13,20.02,-33.69,-183.84
1294,1715532709180,-0.9,0.15,0.13,20.02,-33.69,-183.84
1295,1715532709190,-0.9,0.15,0.13,20.02,-33.69,-183.84
1296,1715532709200,-0.47250000000000003,0.2025,-0.21500000000000002,-33.815,-93.2475,-154.72500000000002
1297,1715532709210,-0.33,0.22,-0.33,-51.76,-113.09999999999998,-145.02
1298,1715532709220,-0.33,0.22,-0.33,-51.76,-113.1,-145.02
1299,1715532709230,-0.33,0.22,-0.33,-51.76,-113.09999999999998,-145.02
1300,1715532709240,-0.33,0.22,-0.33,-51.76,-113.1,-145.02
1301,1715532709250,-0.33,0.22,-0.33,-51.76,-113.1,-145.02
1302,1715532709260,-0.33,0.22,-0.33,-51.76,-113.09999999999998,-145.02
1303,1715532709270,-0.33,0.22,-0.33,-51.76,-113.1,-145.02
1304,1715532709280,-0.33,0.22,-0.33,-51.76,-113.1,-145.02
1305,1715532709290,-0.33,0.22,-0.33,-51.76,-113.1,-145.02
1306,1715532709300,-0.33,0.22,-0.33,-51.76,-113.1,-145.02
1307,1715532709310,-0.33,0.22,-0.33,-51.76,-113.1,-145.02
1308,1715532709320,-0.33,0.22,-0.33,-51.76,-113.1,-145.02
1309,1715532709330,-1.4366666666666665,0.6966666666666667,-0.1366666666666667,-49.76666666666667,-37.599999999999994,-148.17333333333332
1310,1715532709340,-3.65,1.65,0.25,-45.78,113.4,-154.48
1311,1715532709350,-3.65,1.65,0.25,-45.78,113.4,-154.48
1312,1715532709360,-2.77,1.53,0.42,-146.0,-160.77,27.53
1313,1715532709370,-2.77,1.53,0.42,-146.0,-160.77,27.53
1314,1715532709380,-2.77,1.53,0.42,-146.0,-160.77,27.53
1315,1715532709390,-2.4766666666666666,1.39,0.5133333333333333,-102.62333333333333,-122.62333333333333,48.830000000000005
1316,1715532709400,-2.33,1.32,0.56,-15.87,-46.33,91.43
1317,1715532709410,-2.33,1.32,0.56,-15.87,-46.33,91.43
1318,1715532709420,-2.33,1.32,0.56,-15.87,-46.33,91.43
1319,1715532709430,-1.9100000000000001,1.0533333333333335,0.4133333333333334,-15.87,-46.330000000000005,91.43
1320,1715532709440,-1.7,0.92,0.34,33.81,-71.72,146.24
1321,1715532709450,-1.7,0.92,0.34,33.81,-71.72,146.24
1322,1715532709460,-1.7,0.92,0.34,33.81,-71.72,146.24
1323,1715532709470,-1.01,0.5750000000000001,0.1375,64.8,-95.2025,172.01
1324,1715532709480,-0.78,0.46,0.07,75.13,-103.03,180.6
1325,1715532709490,-0.7799999999999999,0.46,0.07,75.13,-103.03000000000002,180.6
1326,1715532709500,-0.78,0.46,0.07,75.13,-103.03,180.6
1327,1715532709510,-0.66,-0.05000000000000001,0.08,106.93,-65.49,204.1
1328,1715532709520,-0.66,-0.05,0.08,106.93,-65.49,204.1
1329,1715532709530,-0.66,-0.05000000000000001,0.08,106.93,-65.49,204.1
1330,1715532709540,-0.615,-0.15000000000000002,0.0925,106.93,-65.49,204.1
1331,1715532709550,-0.48,-0.45,0.13,134.125,-74.0475,239.02749999999997
1332,1715532709560,-0.48,-0.45,0.13,143.19,-76.9,250.67
1333,1715532709570,-0.48,-0.45,0.13,143.19,-76.9,250.67
1334,1715532709580,-0.48,-0.45,0.13,143.19,-76.9,250.67
1335,1715532709590,-0.48,-0.45,0.13,143.19,-76.9,250.67
1336,1715532709600,-0.48,-0.45,0.13,143.19,-76.9,250.67
1337,1715532709610,-0.48,-0.45,0.13,143.19,-76.9,250.67
1338,1715532709620,-0.48,-0.45,0.13,143.19,-76.9,250.67
1339,1715532709630,-0.48,-0.45,0.13,143.19,-76.9,250.67
1340,1715532709640,-0.48,-0.45,0.13,143.19,-76.9,250.67
1341,1715532709650,0.0,0.2,0.09,191.96,4.09,220.83
1342,1715532709660,-0.26,0.5533333333333333,0.19666666666666666,191.96,4.09,220.83
1343,1715532709670,-0.39,0.73,0.25,101.62,65.49,71.29
1344,1715532709680,-0.39,0.73,0.25,101.62,65.49,71.29
1345,1715532709690,-0.38999999999999996,0.73,0.25,101.62,65.49,71.29
1346,1715532709700,-0.855,0.7675000000000001,0.5125,-32.727500000000006,84.81,9.122500000000002
1347,1715532709710,-1.01,0.78,0.6,-77.51,91.25,-11.6
1348,1715532709720,-1.01,0.7799999999999999,0.6,-77.51,91.25,-11.6
1349,1715532709730,-1.01,0.78,0.6,-77.51,91.25,-11.6
1350,1715532709740,-0.49,0.17,0.92,-211.36,-114.56,-56.15
1351,1715532709750,-0.49,0.17,0.92,-211.36,-114.56,-56.15
1352,1715532709760,-0.49,0.17,0.92,-211.36,-114.56,-56.15
1353,1715532709770,-0.49,0.17,0.92,-211.36,-114.56,-56.15
1354,1715532709780,-0.49,0.17,0.92,-211.36,-114.56,-56.15
1355,1715532709790,-0.49,0.17,0.92,-211.36,-114.56,-56.15
1356,1715532709800,-0.49,0.17,0.92,-211.36,-114.56,-56.15
1357,1715532709810,-0.49,0.17,0.92,-211.36,-114.56,-56.15
1358,1715532709820,-0.49,0.17,0.92,-211.36,-114.56,-56.15
1359,1715532709830,-0.49,0.17,0.92,-211.36,-114.56,-56.15
1360,1715532709840,-0.5,-0.66,0.69,-70.92,169.25,-222.6
1361,1715532709850,-0.69,-0.535,0.515,-47.36,134.4,-233.28
1362,1715532709860,-0.88,-0.41,0.34,-23.8,99.55,-243.96
1363,1715532709870,-0.88,-0.41,0.34,-23.8,99.55,-243.96
1364,1715532709880,-0.88,-0.41,0.34,-23.8,99.55,-243.96
1365,1715532709890,-0.88,-0.13999999999999999,0.07,-97.04499999999999,32.9875,-211.455
1366,1715532709900,-0.88,-0.05000000000000001,-0.02,-121.46,10.800000000000002,-200.62
1367,1715532709910,-0.88,-0.05,-0.02,-121.46,10.8,-200.62
1368,1715532709920,-0.88,-0.05,-0.02,-121.46,10.8,-200.62
1369,1715532709930,-0.7374999999999999,0.0625,-0.0125,-129.5925,13.7,-194.5475
1370,1715532709940,-0.69,0.1,-0.01,-153.99,22.4,-176.33
1371,1715532709950,-0.69,0.1,-0.01,-153.99,22.4,-176.33
1372,1715532709960,-0.69,0.1,-0.01,-153.99,22.4,-176.33
1373,1715532709970,-0.8049999999999999,0.2,0.0025000000000000005,-158.85750000000002,20.4,-166.16750000000002
1374,1715532709980,-1.15,0.5,0.04,-173.46,14.4,-135.68
1375,1715532709990,-1.15,0.5,0.04,-173.46,14.4,-135.68
1376,1715532710000,-1.4474999999999998,0.6575,0.2825,-173.46,14.4,-135.68
1377,1715532710010,-2.34,1.13,1.01,-175.42,27.28,-133.0
1378,1715532710020,-2.34,1.13,1.01,-175.42,27.28,-133.0
1379,1715532710030,-2.34,1.13,1.01,-175.42,27.28,-133.0
1380,1715532710040,-2.62,1.31,1.03,-175.42,27.28,-133.0
1381,1715532710050,-3.46,1.85,1.09,-131.9725,-31.6325,-44.1475
1382,1715532710060,-3.46,1.85,1.09,-117.49,-51.27,-14.53
1383,1715532710070,-3.4599999999999995,1.8500000000000003,1.09,-117.49,-51.27,-14.53
1384,1715532710080,-3.46,1.85,1.09,-117.49,-51.27,-14.53
1385,1715532710090,-3.46,1.85,1.09,-117.49,-51.27,-14.53
1386,1715532710100,-3.46,1.85,1.09,-117.49,-51.27,-14.53
1387,1715532710110,-3.4599999999999995,1.8500000000000003,1.09,-117.49,-51.27,-14.53
1388,1715532710120,-3.46,1.85,1.09,-117.49,-51.27,-14.53
1389,1715532710130,-3.46,1.85,1.09,-117.49,-51.27,-14.53
1390,1715532710140,-3.46,1.85,1.09,-117.49,-51.27,-14.53
1391,1715532710150,-3.4599999999999995,1.8500000000000003,1.09,-117.49,-51.27,-14.53
1392,1715532710160,-3.46,1.85,1.09,-117.49,-51.27,-14.53
1393,1715532710170,-1.9333333333333333,1.2366666666666666,0.9500000000000001,-10.356666666666664,-92.08333333333333,69.61666666666666
1394,1715532710180,-1.17,0.93,0.88,43.21,-112.49,111.69
1395,1715532710190,-1.17,0.93,0.88,43.21,-112.49,111.69
1396,1715532710200,-0.71,0.51,0.42,108.11000000000001,-97.84333333333332,115.88333333333333
1397,1715532710210,-0.71,0.51,0.42000000000000004,140.56,-90.52,117.97999999999999
1398,1715532710220,-0.71,0.51,0.42,140.56,-90.52,117.98
1399,1715532710230,-0.71,0.51,0.42,140.56,-90.52,117.98
1400,1715532710240,-0.62,0.01,0.35,181.09,-85.63,138.12
1401,1715532710250,-0.62,0.01,0.35,181.09,-85.63,138.12
1402,1715532710260,-0.62,0.01,0.3499999999999999,181.09,-85.63,138.12
1403,1715532710270,-0.62,0.01,0.35,181.09,-85.63,138.12
1404,1715532710280,-0.62,0.01,0.35,181.09,-85.63,138.12
1405,1715532710290,-0.62,0.01,0.35,181.09,-85.63,138.12
1406,1715532710300,-0.62,0.01,0.35,181.09,-85.63,138.12
1407,1715532710310,-0.62,0.01,0.35,181.09,-85.63,138.12
1408,1715532710320,-0.62,0.01,0.3499999999999999,181.09,-85.63,138.12
1409,1715532710330,-0.62,0.01,0.35,181.09,-85.63,138.12
1410,1715532710340,-0.62,0.01,0.35,181.09,-85.63,138.12
1411,1715532710350,-0.62,0.01,0.3499999999999999,181.09,-85.63,138.12
1412,1715532710360,-0.275,0.14,0.315,210.755,-43.885,150.91
1413,1715532710370,0.07,0.27,0.28,240.42,-2.14,163.7
1414,1715532710380,0.12250000000000001,0.5025,0.385,233.96499999999997,26.365,146.2275
1415,1715532710390,0.14,0.58,0.42,214.6,111.88,93.81
1416,1715532710400,0.14,0.58,0.42,214.6,111.88,93.81
1417,1715532710410,0.14,0.58,0.42,214.6,111.88,93.81
1418,1715532710420,-0.55,0.19,1.11,-15.81,134.58,-37.9
1419,1715532710430,-0.55,0.19,1.11,-15.81,134.58,-37.9
1420,1715532710440,-0.55,0.19000000000000003,1.11,-15.81,134.58,-37.9
1421,1715532710450,-0.55,0.19,1.11,-15.81,134.58,-37.9
1422,1715532710460,-0.36,-0.36,1.18,-3.585,-31.679999999999993,-142.225
1423,1715532710470,-0.36000000000000004,-0.36000000000000004,1.18,0.49,-87.09999999999998,-177.0
1424,1715532710480,-0.36,-0.36,1.18,0.49,-87.1,-177.0
1425,1715532710490,-0.415,-0.47,0.86,2.6575,-46.419999999999995,-200.4375
1426,1715532710500,-0.47,-0.58,0.54,9.16,75.62,-270.75
1427,1715532710510,-0.47,-0.58,0.54,9.16,75.62,-270.75
1428,1715532710520,-0.47,-0.58,0.54,9.16,75.62,-270.75
1429,1715532710530,-0.77,-0.615,0.34500000000000003,-1.3099999999999996,52.09,-313.565
1430,1715532710540,-1.07,-0.65,0.15,-11.78,28.56,-356.37999999999994
1431,1715532710550,-1.07,-0.65,0.15,-11.78,28.56,-356.38
1432,1715532710560,-1.07,-0.65,0.15,-11.78,28.56,-356.38
1433,1715532710570,-1.29,-0.3,-0.53,-93.04,0.3266666666666668,-280.58
1434,1715532710580,-1.29,-0.3,-0.53,-133.67,-13.79,-242.67999999999998
1435,1715532710590,-1.29,-0.3,-0.53,-133.67,-13.79,-242.68
1436,1715532710600,-1.29,-0.3,-0.53,-133.67,-13.79,-242.68
1437,1715532710610,-1.29,-0.3,-0.53,-133.67,-13.79,-242.67999999999998
1438,1715532710620,-1.29,-0.3,-0.53,-133.67,-13.79,-242.68
1439,1715532710630,-1.29,-0.3,-0.53,-133.67,-13.79,-242.68
1440,1715532710640,-1.29,-0.3,-0.53,-133.67,-13.79,-242.67999999999998
1441,1715532710650,-1.29,-0.3,-0.53,-133.67,-13.79,-242.68
1442,1715532710660,-1.29,-0.3,-0.53,-133.67,-13.79,-242.68
1443,1715532710670,-1.29,-0.3,-0.53,-133.67,-13.79,-242.68
1444,1715532710680,-1.29,-0.3,-0.53,-133.67,-13.79,-242.67999999999998
1445,1715532710690,-1.135,-0.03499999999999999,-0.10500000000000001,-187.38,4.335000000000001,-159.64
1446,1715532710700,-0.98,0.23,0.32,-241.09,22.459999999999997,-76.6
1447,1715532710710,-0.98,0.23,0.32,-241.09,22.459999999999997,-76.6
1448,1715532710720,-1.23,0.3975,0.395,-210.725,56.96,-94.865
1449,1715532710730,-1.98,0.9,0.62,-119.63,160.46,-149.66
1450,1715532710740,-1.98,0.9,0.62,-119.63,160.46,-149.66
1451,1715532710750,-1.9799999999999998,0.9,0.62,-119.63,160.46,-149.66
1452,1715532710760,-1.98,0.9,0.62,-119.63,160.46,-149.66
1453,1715532710770,-1.98,0.9,0.62,-119.63,160.46,-149.66
1454,1715532710780,-1.9799999999999998,0.9,0.62,-119.63,160.46,-149.66
1455,1715532710790,-2.56,1.325,0.735,-128.29500000000002,87.92,-99.03
1456,1715532710800,-3.14,1.75,0.85,-136.96,15.38,-48.4
1457,1715532710810,-3.14,1.75,0.85,-136.96,15.38,-48.4
1458,1715532710820,-3.14,1.75,0.85,-136.96,15.38,-48.4
1459,1715532710830,-3.14,1.75,0.85,-136.96,15.38,-48.4
1460,1715532710840,-3.14,1.75,0.85,-136.96,15.38,-48.4
1461,1715532710850,-3.14,1.75,0.85,-136.96,15.38,-48.4
1462,1715532710860,-3.14,1.75,0.85,-136.96,15.38,-48.4
1463,1715532710870,-3.14,1.75,0.85,-136.96,15.38,-48.4
1464,1715532710880,-3.14,1.75,0.85,-136.96,15.38,-48.4
1465,1715532710890,-1.9,0.98,0.87,183.84,-79.83,125.92
1466,1715532710900,-1.9,0.98,0.87,183.84,-79.83,125.92
1467,1715532710910,-1.7766666666666666,0.8099999999999999,0.8133333333333334,184.61333333333334,-124.22333333333331,142.35666666666665
1468,1715532710920,-1.53,0.47,0.7,186.16,-213.01,175.23
1469,1715532710930,-1.53,0.47,0.6999999999999998,186.16,-213.01,175.23
1470,1715532710940,-1.53,0.47,0.7,186.16,-213.01,175.23
1471,1715532710950,-1.445,0.26,0.725,201.0525,-224.6675,184.4925
1472,1715532710960,-1.19,-0.37,0.8,245.73,-259.64,212.28
1473,1715532710970,-1.19,-0.36999999999999994,0.8000000000000002,245.73,-259.64,212.28
1474,1715532710980,-1.19,-0.37,0.8,245.73,-259.64,212.28
1475,1715532710990,-1.055,-0.73,0.72,320.255,-198.79,226.775
1476,1715532711000,-0.92,-1.09,0.64,394.78,-137.94,241.27
1477,1715532711010,-0.92,-1.09,0.64,394.78,-137.94,241.27
1478,1715532711020,-0.92,-1.09,0.64,394.78,-137.94,241.27
1479,1715532711030,-0.7925,-1.0975000000000001,0.37,448.24,-35.9925,277.1125
1480,1715532711040,-0.75,-1.1,0.28,466.06,-2.01,289.06
1481,1715532711050,-0.75,-1.1,0.28,466.06,-2.01,289.06
1482,1715532711060,-0.75,-1.1,0.28,466.06,-2.01,289.06
1483,1715532711070,-0.28500000000000003,-0.605,-0.0875,429.8575,29.4375,305.95
1484,1715532711080,-0.13,-0.44,-0.21,417.79,39.92,311.58
1485,1715532711090,-0.13,-0.44,-0.21,417.79,39.92,311.58
1486,1715532711100,-0.13,-0.44,-0.21,417.79,39.92,311.58
1487,1715532711110,0.057499999999999996,-0.2275,-0.3725,379.17,66.6975,266.2025
1488,1715532711120,0.62,0.41,-0.86,263.31,147.03,130.07
1489,1715532711130,0.62,0.41,-0.86,263.31,147.03,130.07
1490,1715532711140,0.62,0.41,-0.86,263.31,147.03,130.07
1491,1715532711150,0.62,0.41,-0.86,263.31,147.03,130.07
1492,1715532711160,0.62,0.41,-0.86,263.31,147.03,130.07
1493,1715532711170,0.62,0.41,-0.86,263.31,147.03,130.07
1494,1715532711180,0.62,0.41,-0.86,263.31,147.03,130.07
1495,1715532711190,0.62,0.41,-0.86,263.31,147.03,130.07
1496,1715532711200,0.62,0.41,-0.86,263.31,147.03,130.07
1497,1715532711210,0.62,0.41,-0.86,263.31,147.03,130.07
1498,1715532711220,0.015,-0.5425,0.2875,-180.6025,24.612499999999997,-97.30250000000001
1499,1715532711230,-0.48,-1.18,0.9899999999999999,-240.6,89.59999999999998,-318.48
1500,1715532711240,-0.48,-1.18,0.99,-240.6,89.6,-318.48
1501,1715532711250,-0.48,-1.18,0.99,-240.6,89.6,-318.48
1502,1715532711260,-1.275,-0.9199999999999999,0.81,-165.56,159.3,-348.78499999999997
1503,1715532711270,-2.07,-0.66,0.63,-90.52,229.0,-379.09
1504,1715532711280,-2.07,-0.66,0.63,-90.52,229.0,-379.09
1505,1715532711290,-2.07,-0.66,0.63,-90.52,229.0,-379.09
1506,1715532711300,-2.07,-0.66,0.63,-90.52,229.0,-379.09
1507,1715532711310,-1.45,-0.49,0.45,-240.84,-178.96,-344.91
1508,1715532711320,-1.45,-0.49,0.45,-240.84,-178.96,-344.91
1509,1715532711330,-1.45,-0.49,0.45,-240.84,-178.96,-344.91
1510,1715532711340,-1.45,-0.49,0.45,-240.84,-178.96,-344.91
1511,1715532711350,-1.45,-0.49,0.45,-240.84,-178.96,-344.91
1512,1715532711360,-1.45,-0.49,0.45,-240.84,-178.96,-344.91
1513,1715532711370,-1.45,-0.49,0.45,-240.84,-178.96,-344.91
1514,1715532711380,-1.45,-0.49,0.45,-240.84,-178.96,-344.91
1515,1715532711390,-1.45,-0.49,0.45,-240.84,-178.96,-344.91
1516,1715532711400,-1.45,-0.49,0.45,-240.84,-178.96,-344.91
1517,1715532711410,-1.49,0.09,-0.05249999999999999,-128.935,37.215,-267.1825
1518,1715532711420,-1.37,0.41,-0.18000000000000002,-154.42,43.4,-203.80000000000004
1519,1715532711430,-1.37,0.41,-0.18,-154.42,43.4,-203.8
1520,1715532711440,-1.37,0.41,-0.18,-154.42,43.4,-203.8
1521,1715532711450,-1.78,0.6425000000000001,-0.05499999999999999,-159.33249999999998,53.9125,-204.5175
1522,1715532711460,-3.01,1.34,0.32,-174.07000000000002,85.45,-206.67
1523,1715532711470,-3.01,1.34,0.32,-174.07,85.45,-206.67
1524,1715532711480,-3.01,1.34,0.32,-174.07000000000002,85.45,-206.67
1525,1715532711490,-2.955,1.3875000000000002,0.5525,-185.4075,53.8025,-167.39249999999998
1526,1715532711500,-2.79,1.53,1.25,-219.42,-41.14,-49.56
1527,1715532711510,-2.79,1.53,1.25,-219.42,-41.14,-49.56
1528,1715532711520,-2.79,1.53,1.25,-219.42,-41.14,-49.56
1529,1715532711530,-2.5100000000000002,1.5366666666666668,1.3966666666666665,-150.42999999999998,-26.85666666666667,-18.250000000000004
1530,1715532711540,-2.37,1.54,1.47,-12.45,1.71,44.37
1531,1715532711550,-2.37,1.54,1.47,-12.449999999999998,1.71,44.37
1532,1715532711560,-2.37,1.54,1.47,-12.45,1.71,44.37
1533,1715532711570,-2.41,1.26,1.37,50.376666666666665,-14.61,95.31666666666668
1534,1715532711580,-2.43,1.12,1.32,81.79,-22.77,120.79
1535,1715532711590,-2.43,1.12,1.32,81.79,-22.77,120.79
1536,1715532711600,-2.43,1.12,1.32,81.79,-22.77,120.79
1537,1715532711610,-2.185,0.875,1.045,142.70000000000002,-36.38,157.595
1538,1715532711620,-1.94,0.63,0.77,203.61,-49.99,194.4
1539,1715532711630,-1.9400000000000002,0.63,0.77,203.61,-49.99,194.4
1540,1715532711640,-1.94,0.63,0.77,203.61,-49.99,194.4
1541,1715532711650,-1.59,0.05,0.36,253.5075,-52.645,247.3125
1542,1715532711660,-1.59,0.05,0.36,270.14,-53.53,264.95
1543,1715532711670,-1.59,0.05,0.36,270.14,-53.53,264.95
1544,1715532711680,-1.59,0.05000000000000001,0.36000000000000004,270.14,-53.53,264.95
1545,1715532711690,-1.59,0.05,0.36,270.14,-53.53,264.95
1546,1715532711700,-1.59,0.05,0.36,270.14,-53.53,264.95
1547,1715532711710,-1.59,0.05,0.36,270.14,-53.53,264.95
1548,1715532711720,-1.59,0.05,0.36,270.14,-53.53,264.95
1549,1715532711730,-1.59,0.05000000000000001,0.36000000000000004,270.14,-53.53,264.95
1550,1715532711740,-1.505,-0.395,0.27,272.4,-36.685,335.63
1551,1715532711750,-1.42,-0.84,0.18,274.66,-19.84,406.31
1552,1715532711760,-1.2733333333333332,-0.84,0.19333333333333333,252.03666666666666,-17.743333333333336,413.6133333333334
1553,1715532711770,-0.98,-0.84,0.22,206.79,-13.55,428.22
1554,1715532711780,-0.98,-0.84,0.22,206.79,-13.550000000000002,428.22
1555,1715532711790,-0.98,-0.84,0.22,206.79,-13.55,428.22
1556,1715532711800,-0.8300000000000001,-0.7399999999999999,0.22666666666666666,207.42,44.473333333333336,393.83666666666664
1557,1715532711810,-0.53,-0.54,0.24,208.68,160.52,325.07
1558,1715532711820,-0.53,-0.54,0.24,208.68,160.52,325.07
1559,1715532711830,-0.53,-0.54,0.24,208.67999999999998,160.52,325.07
1560,1715532711840,-0.53,-0.32,0.21333333333333335,53.693333333333335,122.71999999999998,181.55666666666664
1561,1715532711850,-0.53,-0.21,0.2,-23.8,103.82,109.8
1562,1715532711860,-0.53,-0.21,0.2,-23.8,103.82,109.8
1563,1715532711870,-0.53,-0.21,0.2,-23.8,103.82,109.8
1564,1715532711880,-0.53,-0.21,0.20000000000000004,-23.8,103.82,109.8
1565,1715532711890,-0.53,-0.21,0.2,-23.8,103.82,109.8
1566,1715532711900,-0.53,-0.21,0.2,-23.8,103.82,109.8
1567,1715532711910,-0.53,-0.21,0.20000000000000004,-23.8,103.82,109.8
1568,1715532711920,-0.53,-0.21,0.2,-23.8,103.82,109.8
1569,1715532711930,-0.265,-0.355,0.275,-35.9925,80.28999999999999,20.0175
1570,1715532711940,0.53,-0.79,0.5,-72.57,9.7,-249.33
1571,1715532711950,0.53,-0.79,0.5,-72.57,9.7,-249.33
1572,1715532711960,-0.73,-1.19,0.34,-98.94,41.26,-418.27
1573,1715532711970,-0.73,-1.19,0.34,-98.94,41.26,-418.27
1574,1715532711980,-0.73,-1.19,0.34,-98.94,41.26,-418.27
1575,1715532711990,-0.8425,-1.255,0.4025,-98.94,41.26,-418.27
1576,1715532712000,-1.18,-1.45,0.59,-197.81,-82.76,-500.73
1577,1715532712010,-1.18,-1.45,0.59,-197.81,-82.76,-500.73
1578,1715532712020,-1.18,-1.45,0.59,-197.81000000000003,-82.76,-500.73
1579,1715532712030,-1.623333333333333,-1.24,0.5533333333333333,-198.87,-97.69333333333334,-483.31666666666666
1580,1715532712040,-2.51,-0.82,0.48,-200.99,-127.56,-448.49
1581,1715532712050,-2.51,-0.82,0.48,-200.99,-127.56,-448.49
1582,1715532712060,-2.51,-0.82,0.48,-200.99,-127.56,-448.49
1583,1715532712070,-2.4133333333333336,-0.5399999999999999,0.5499999999999999,-227.51999999999998,-88.45666666666666,-383.50666666666666
1584,1715532712080,-2.22,0.02,0.69,-280.58,-10.25,-253.54
1585,1715532712090,-2.22,0.02,0.69,-280.58,-10.25,-253.54
1586,1715532712100,-2.22,0.02,0.69,-280.58,-10.25,-253.54
1587,1715532712110,-2.22,0.02,0.69,-280.58,-10.25,-253.54
1588,1715532712120,-2.28,0.7799999999999999,0.51,-135.38,17.33,-198.79
1589,1715532712130,-2.28,0.78,0.51,-135.38,17.33,-198.79
1590,1715532712140,-2.28,0.78,0.51,-135.38,17.33,-198.79
1591,1715532712150,-2.6174999999999997,1.29,0.465,-135.38,17.33,-198.79
1592,1715532712160,-2.73,1.46,0.45,-151.92,58.29,-125.43
1593,1715532712170,-2.73,1.46,0.45,-151.92,58.29,-125.43
1594,1715532712180,-2.73,1.46,0.45,-151.92,58.29,-125.43
1595,1715532712190,-2.73,1.46,0.45,-151.92,58.29,-125.43
1596,1715532712200,-2.73,1.46,0.45,-151.92,58.29,-125.43
1597,1715532712210,-2.73,1.46,0.45,-151.92,58.29,-125.43
1598,1715532712220,-2.73,1.46,0.45,-151.92,58.29,-125.43
1599,1715532712230,-2.73,1.46,0.45,-151.92,58.29,-125.43
1600,1715532712240,-2.73,1.46,0.45,-151.92,58.29,-125.43
1601,1715532712250,-2.73,1.46,0.45,-151.92,58.29,-125.43
1602,1715532712260,-2.73,1.46,0.45,-151.92,58.29,-125.43
1603,1715532712270,-2.72,1.6724999999999999,0.85,-58.334999999999994,-27.207500000000003,78.6725
1604,1715532712280,-2.68,1.8,0.89,36.5,-123.71999999999998,204.59
1605,1715532712290,-2.68,1.8,0.89,36.5,-123.72,204.59
1606,1715532712300,-2.46,1.455,0.775,100.035,-127.015,239.16500000000002
1607,1715532712310,-2.24,1.11,0.66,163.57,-130.31,273.74
1608,1715532712320,-2.24,1.11,0.66,163.57,-130.31,273.74
1609,1715532712330,-2.24,1.11,0.66,163.57,-130.31,273.74
1610,1715532712340,-1.906666666666667,0.6366666666666667,0.26666666666666666,197.83666666666667,-133.07666666666668,304.58666666666664
1611,1715532712350,-1.74,0.4,0.07,214.97,-134.46,320.01
1612,1715532712360,-1.74,0.4000000000000001,0.07,214.97,-134.46,320.01
1613,1715532712370,-1.74,0.4,0.07,214.97,-134.46,320.01
1614,1715532712380,-1.74,0.4000000000000001,0.07,214.97,-134.46,320.01
1615,1715532712390,-1.74,0.4,0.07,214.97,-134.46,320.01
1616,1715532712400,-1.74,0.4000000000000001,0.07,214.97,-134.46,320.01
1617,1715532712410,-1.7399999999999998,0.4,0.07,214.96999999999997,-134.46,320.01
1618,1715532712420,-1.74,0.4,0.07,214.97,-134.46,320.01
1619,1715532712430,-1.74,0.4000000000000001,0.07,214.97,-134.46,320.01
1620,1715532712440,-1.74,0.4,0.07,214.97,-134.46,320.01
1621,1715532712450,-1.74,0.4,0.07,214.97,-134.46,320.01
1622,1715532712460,-0.65,-1.09,0.22,253.72,-60.54999999999999,417.10999999999996
1623,1715532712470,-0.65,-1.09,0.22,253.72,-60.55,417.11
1624,1715532712480,-0.65,-1.09,0.22,253.72,-60.55,417.11
1625,1715532712490,-0.4325,-0.905,0.215,253.72,-60.55,417.11
1626,1715532712500,0.22,-0.3499999999999999,0.20000000000000004,248.29,51.330000000000005,286.19
1627,1715532712510,0.22,-0.35,0.2,248.29,51.33,286.19
1628,1715532712520,0.22,-0.3499999999999999,0.20000000000000004,248.29,51.330000000000005,286.19
1629,1715532712530,0.1575,-0.3125,0.21250000000000002,221.695,54.0,214.3825
1630,1715532712540,-0.03,-0.2,0.25,141.91,62.01,-1.04
1631,1715532712550,-0.03,-0.2,0.25,141.91,62.01,-1.04
1632,1715532712560,-0.03,-0.20000000000000004,0.25,141.91,62.01,-1.04
1633,1715532712570,-0.15999999999999998,-0.27,0.26,141.91,62.01,-1.04
1634,1715532712580,-0.29,-0.34,0.27,49.416666666666664,-61.56333333333333,-83.15333333333332
1635,1715532712590,-0.29,-0.34,0.27,3.17,-123.35,-124.21
1636,1715532712600,-0.29,-0.34,0.27,3.17,-123.35,-124.21
1637,1715532712610,0.010000000000000009,-0.43333333333333335,0.3566666666666667,-72.50999999999999,-107.07666666666667,-203.18999999999997
1638,1715532712620,0.16,-0.48,0.4,-110.35,-98.94,-242.68
1639,1715532712630,0.16,-0.48,0.4000000000000001,-110.34999999999998,-98.94,-242.67999999999998
1640,1715532712640,0.16,-0.48,0.4,-110.35,-98.94,-242.68
1641,1715532712650,-1.05,-0.79,0.72,-152.28,30.46,-405.4
1642,1715532712660,-1.05,-0.79,0.7200000000000001,-152.28,30.459999999999997,-405.3999999999999
1643,1715532712670,-1.05,-0.79,0.72,-152.28,30.46,-405.4
1644,1715532712680,-1.05,-0.79,0.7200000000000001,-152.28,30.459999999999997,-405.3999999999999
1645,1715532712690,-1.84,-0.66,0.8,-251.95,-55.66,-342.1
1646,1715532712700,-1.84,-0.66,0.8000000000000002,-251.94999999999996,-55.66,-342.1000000000001
1647,1715532712710,-1.84,-0.66,0.8000000000000002,-251.94999999999996,-55.66,-342.1000000000001
1648,1715532712720,-1.84,-0.66,0.8000000000000002,-251.94999999999996,-55.66,-342.1000000000001
1649,1715532712730,-1.84,-0.66,0.8000000000000002,-251.94999999999996,-55.66,-342.1000000000001
1650,1715532712740,-1.84,-0.66,0.8,-251.95,-55.66,-342.1
1651,1715532712750,-1.84,-0.66,0.8,-251.95,-55.66,-342.1
1652,1715532712760,-1.84,-0.66,0.8000000000000002,-251.94999999999996,-55.66,-342.1000000000001
1653,1715532712770,-1.84,-0.66,0.8000000000000002,-251.94999999999996,-55.66,-342.1000000000001
1654,1715532712780,-1.84,-0.66,0.8,-251.95,-55.66,-342.1
1655,1715532712790,-1.8666666666666665,-0.23333333333333336,0.5133333333333333,-207.27666666666664,-3.779999999999999,-297.99333333333334
1656,1715532712800,-1.5725,0.1375,0.355,-248.33750000000003,-27.692500000000003,-287.385
1657,1715532712810,-1.47,0.19000000000000003,0.3499999999999999,-269.47,-44.31,-291.2
1658,1715532712820,-1.47,0.19000000000000003,0.3499999999999999,-269.47,-44.31,-291.2
1659,1715532712830,-1.47,0.19,0.35,-269.47,-44.31,-291.2
1660,1715532712840,-1.6766666666666667,0.63,0.21,-228.01,38.330000000000005,-221.82000000000002
1661,1715532712850,-1.78,0.85,0.14,-207.28,79.65,-187.13
1662,1715532712860,-1.78,0.85,0.14,-207.28,79.65,-187.13
1663,1715532712870,-1.78,0.85,0.14,-207.28,79.65,-187.13
1664,1715532712880,-2.67,1.64,0.55,-251.04,10.19,-178.65
1665,1715532712890,-2.67,1.64,0.55,-251.04,10.19,-178.65
1666,1715532712900,-2.67,1.64,0.55,-251.04,10.19,-178.65
1667,1715532712910,-2.67,1.64,0.55,-251.04,10.19,-178.65
1668,1715532712920,-2.67,1.64,0.55,-251.04,10.19,-178.65
1669,1715532712930,-2.67,1.64,0.55,-251.04,10.19,-178.65
1670,1715532712940,-2.67,1.64,0.55,-251.04,10.19,-178.65
1671,1715532712950,-2.67,1.64,0.55,-251.04,10.19,-178.65
1672,1715532712960,-2.67,1.64,0.55,-251.04,10.19,-178.65
1673,1715532712970,-2.67,1.64,0.55,-251.04,10.19,-178.65
1674,1715532712980,-2.38,1.755,1.205,-128.025,-40.620000000000005,9.615000000000002
1675,1715532712990,-2.233333333333333,1.5033333333333332,1.5033333333333332,29.213333333333328,-70.53666666666668,120.58666666666666
1676,1715532713000,-2.76,1.25,1.33,188.48,-35.83,160.58
1677,1715532713010,-2.76,1.25,1.33,188.48,-35.83,160.58
1678,1715532713020,-2.76,1.25,1.33,188.48,-35.83,160.58
1679,1715532713030,-2.5199999999999996,0.885,0.9650000000000001,224.365,-68.82,209.53000000000003
1680,1715532713040,-2.28,0.52,0.6,260.25,-101.81,258.48
1681,1715532713050,-2.28,0.52,0.6,260.25,-101.81,258.48
1682,1715532713060,-2.28,0.52,0.6,260.25,-101.81,258.48
1683,1715532713070,-1.9266666666666665,0.04666666666666667,0.4066666666666667,273.80333333333334,-89.84333333333332,294.61333333333334
1684,1715532713080,-1.75,-0.19,0.31,280.58,-83.86,312.68
1685,1715532713090,-1.75,-0.19,0.31,280.58,-83.86,312.68
1686,1715532713100,-1.75,-0.19000000000000003,0.31,280.58,-83.86,312.68
1687,1715532713110,-1.51,-0.51,0.17,292.94,-1.6449999999999987,357.77
1688,1715532713120,-1.51,-0.51,0.17,297.06,25.76,372.8
1689,1715532713130,-1.51,-0.51,0.17,297.06,25.76,372.8
1690,1715532713140,-1.51,-0.51,0.17,297.06,25.76,372.8
1691,1715532713150,-1.41,-0.68,0.34,211.67,32.9,409.73
1692,1715532713160,-1.41,-0.68,0.34,211.67,32.9,409.73
1693,1715532713170,-1.41,-0.68,0.34,211.67,32.9,409.73
1694,1715532713180,-1.305,-0.68,0.365,212.4475,46.6475,406.3275
1695,1715532713190,-0.9899999999999999,-0.68,0.44,214.78,87.89,396.12000000000006
1696,1715532713200,-0.9899999999999999,-0.68,0.44,214.78,87.89,396.12000000000006
1697,1715532713210,-0.99,-0.68,0.44,214.78,87.89,396.12
1698,1715532713220,-0.8033333333333333,-0.53,0.34,214.78,87.89,396.12000000000006
1699,1715532713230,-0.43,-0.23,0.14,214.78,87.89,396.12
1700,1715532713240,-0.43,-0.23,0.14,214.78,87.89,396.12000000000006
1701,1715532713250,-0.43,-0.23,0.14,214.78,87.89,396.12
1702,1715532713260,-0.43,-0.23,0.14,214.78,87.89,396.12
1703,1715532713270,-0.43,-0.23,0.14,214.78,87.89,396.12000000000006
1704,1715532713280,-0.43,-0.23,0.14,214.78,87.89,396.12000000000006
1705,1715532713290,-0.43,-0.23,0.14,214.78,87.89,396.12
1706,1715532713300,-0.43,-0.23,0.14,214.78,87.89,396.12000000000006
1707,1715532713310,-0.33999999999999997,-0.255,0.1825,137.815,58.0275,298.4775
1708,1715532713320,-0.07,-0.33,0.31,-93.08,-31.56,5.55
1709,1715532713330,-0.07,-0.33,0.31,-93.08,-31.56,5.55
1710,1715532713340,0.215,-0.4125,0.235,-111.85,-50.295,-77.275
1711,1715532713350,0.31,-0.44,0.21,-130.62,-69.03,-160.1
1712,1715532713360,0.31,-0.44,0.21,-130.62,-69.03,-160.1
1713,1715532713370,0.20333333333333334,-0.48666666666666664,0.22999999999999998,-147.44333333333336,-34.830000000000005,-210.5533333333333
1714,1715532713380,-0.01,-0.58,0.27,-181.09,33.57,-311.46
1715,1715532713390,-0.01,-0.58,0.27,-181.09,33.57,-311.46
1716,1715532713400,-0.01,-0.58,0.27,-181.09,33.57,-311.46
1717,1715532713410,-0.42,-0.79,0.4,-196.595,69.885,-355.985
1718,1715532713420,-0.83,-1.0,0.53,-212.1,106.2,-400.51
1719,1715532713430,-0.83,-1.0,0.53,-212.1,106.2,-400.51
1720,1715532713440,-0.83,-1.0,0.53,-212.1,106.2,-400.51
1721,1715532713450,-0.83,-1.0,0.53,-212.1,106.2,-400.51
1722,1715532713460,-0.83,-1.0,0.53,-212.1,106.2,-400.51
1723,1715532713470,-0.83,-1.0,0.53,-212.1,106.2,-400.51
1724,1715532713480,-0.83,-1.0,0.53,-212.1,106.2,-400.51
1725,1715532713490,-0.83,-1.0,0.53,-212.1,106.2,-400.51
1726,1715532713500,-0.83,-1.0,0.53,-212.1,106.2,-400.51
1727,1715532713510,-2.2,-0.24,0.33,-103.39,102.84,-370.85
1728,1715532713520,-2.2,-0.24,0.33,-103.39,102.84,-370.85
1729,1715532713530,-1.63,0.20000000000000004,0.22,-132.16333333333333,16.333333333333332,-330.07666666666665
1730,1715532713540,-1.63,0.2,0.22,-146.55,-26.92,-309.69
1731,1715532713550,-1.63,0.20000000000000004,0.22,-146.55,-26.92,-309.69
1732,1715532713560,-1.63,0.2,0.22,-146.55,-26.92,-309.69
1733,1715532713570,-1.63,0.48,0.26,-91.13,39.18,-271.73
1734,1715532713580,-1.63,0.48,0.26,-91.13,39.18,-271.73
1735,1715532713590,-1.63,0.48,0.26,-91.13,39.18,-271.73
1736,1715532713600,-2.033333333333333,0.7533333333333333,0.26333333333333336,-88.58666666666666,22.05,-256.10333333333335
1737,1715532713610,-2.84,1.3,0.27,-83.5,-12.21,-224.85
1738,1715532713620,-2.84,1.3,0.27,-83.5,-12.21,-224.85
1739,1715532713630,-2.84,1.3,0.27,-83.5,-12.21,-224.85
1740,1715532713640,-3.0033333333333334,1.3533333333333335,0.40666666666666673,-71.94333333333333,-16.623333333333335,-164.77333333333334
1741,1715532713650,-3.33,1.46,0.68,-48.83,-25.45,-44.62
1742,1715532713660,-3.33,1.46,0.68,-48.83,-25.45,-44.62
1743,1715532713670,-3.33,1.46,0.68,-48.830000000000005,-25.45,-44.62
1744,1715532713680,-3.15,1.38,0.64,-43.03,-31.4175,-6.2575
1745,1715532713690,-2.61,1.14,0.52,-25.63,-49.32,108.83
1746,1715532713700,-2.61,1.14,0.52,-25.63,-49.32,108.83
1747,1715532713710,-2.61,1.14,0.52,-25.63,-49.32,108.83
1748,1715532713720,-2.685,1.0875,0.5325,-23.357499999999998,-43.215,129.3825
1749,1715532713730,-2.91,0.93,0.57,-16.54,-24.899999999999995,191.04
1750,1715532713740,-2.91,0.93,0.57,-16.54,-24.9,191.04
1751,1715532713750,-2.91,0.93,0.57,-16.54,-24.899999999999995,191.04
1752,1715532713760,-2.91,0.93,0.57,-16.54,-24.9,191.04
1753,1715532713770,-2.91,0.93,0.57,-16.54,-24.899999999999995,191.04
1754,1715532713780,-2.91,0.93,0.57,-16.54,-24.9,191.04
1755,1715532713790,-2.91,0.93,0.57,-16.54,-24.9,191.04
1756,1715532713800,-2.91,0.93,0.57,-16.54,-24.899999999999995,191.04
1757,1715532713810,-2.91,0.93,0.57,-16.54,-24.9,191.04
1758,1715532713820,-2.91,0.93,0.57,-16.54,-24.899999999999995,191.04
1759,1715532713830,-2.91,0.93,0.57,-16.54,-24.899999999999995,191.04
1760,1715532713840,-2.345,0.22500000000000003,0.375,67.87,-44.89,274.65999999999997
1761,1715532713850,-1.78,-0.48,0.18000000000000002,152.28,-64.88,358.28
1762,1715532713860,-1.78,-0.48,0.18000000000000002,152.28,-64.88,358.28
1763,1715532713870,-1.6725,-0.61,0.195,167.98250000000002,-65.36749999999999,373.63
1764,1715532713880,-1.3500000000000003,-1.0,0.24,215.09,-66.83,419.68
1765,1715532713890,-1.3500000000000003,-1.0,0.24,215.09,-66.83,419.68
1766,1715532713900,-1.35,-1.0,0.24,215.09,-66.83,419.68
1767,1715532713910,-1.1766666666666667,-0.9,0.3466666666666667,215.09,-66.83,419.68
1768,1715532713920,-1.09,-0.85,0.4,261.17,150.63,405.46
1769,1715532713930,-1.09,-0.85,0.4000000000000001,261.17,150.63,405.46
1770,1715532713940,-1.09,-0.85,0.4,261.17,150.63,405.46
1771,1715532713950,-1.09,-0.85,0.4000000000000001,261.17,150.63,405.46
1772,1715532713960,-1.09,-0.85,0.4,261.17,150.63,405.46
1773,1715532713970,-1.09,-0.85,0.4000000000000001,261.17,150.63,405.46
1774,1715532713980,-1.09,-0.85,0.4,261.17,150.63,405.46
1775,1715532713990,-1.09,-0.85,0.4000000000000001,261.17,150.63,405.46
1776,1715532714000,-1.09,-0.85,0.4000000000000001,261.17,150.63,405.46
1777,1715532714010,-1.09,-0.85,0.4,261.17,150.63,405.46
1778,1715532714020,-1.09,-0.85,0.4000000000000001,261.17,150.63,405.46
1779,1715532714030,-0.12333333333333336,-0.39666666666666667,0.26666666666666666,115.58333333333333,89.88333333333333,148.25333333333333
1780,1715532714040,0.36,-0.17,0.2,42.79,59.51,19.65
1781,1715532714050,0.36,-0.17,0.2,42.79,59.51,19.65
1782,1715532714060,0.36000000000000004,-0.17,0.20000000000000004,42.79,59.51,19.65
1783,1715532714070,0.84,-0.08,0.06,-30.09,-112.92,-182.31000000000003
1784,1715532714080,0.84,-0.08,0.06,-30.09,-112.92,-182.31
1785,1715532714090,0.84,-0.08,0.06,-30.09,-112.92,-182.31000000000003
1786,1715532714100,0.6866666666666666,-0.26333333333333336,0.08666666666666667,-69.27333333333333,-127.58666666666666,-238.0566666666667
1787,1715532714110,0.38,-0.63,0.14,-147.64,-156.92,-349.55
1788,1715532714120,0.38000000000000006,-0.63,0.14,-147.64,-156.92,-349.55
1789,1715532714130,0.38000000000000006,-0.63,0.14,-147.64,-156.92,-349.55
1790,1715532714140,0.0625,-0.7925,0.2225,-166.08999999999997,-109.51249999999999,-372.9875
1791,1715532714150,-0.89,-1.28,0.47,-221.44,32.71,-443.3
1792,1715532714160,-0.89,-1.28,0.47,-221.43999999999997,32.71,-443.3
1793,1715532714170,-0.89,-1.28,0.47,-221.43999999999997,32.71,-443.3
1794,1715532714180,-1.455,-1.095,0.49,-198.215,24.685000000000002,-436.4
1795,1715532714190,-2.02,-0.91,0.51,-174.99,16.66,-429.5
1796,1715532714200,-2.02,-0.91,0.51,-174.99,16.66,-429.5
1797,1715532714210,-2.02,-0.91,0.51,-174.99,16.66,-429.5
1798,1715532714220,-1.34,-0.53,0.34,-278.26,-187.43999999999997,-349.98
1799,1715532714230,-1.34,-0.53,0.34,-278.26,-187.44,-349.98
1800,1715532714240,-1.34,-0.53,0.34,-278.26,-187.43999999999997,-349.98
1801,1715532714250,-1.34,-0.53,0.34,-278.26,-187.44,-349.98
1802,1715532714260,-1.56,-0.29,0.5,-198.67,153.08,-283.57
1803,1715532714270,-1.5599999999999998,-0.29,0.5,-198.67,153.08,-283.57
1804,1715532714280,-1.56,-0.29,0.5,-198.67,153.08,-283.57
1805,1715532714290,-1.5599999999999998,-0.29,0.5,-198.67,153.08,-283.57
1806,1715532714300,-1.56,-0.29,0.5,-198.67,153.08,-283.57
1807,1715532714310,-1.5599999999999998,-0.29,0.5,-198.67,153.08,-283.57
1808,1715532714320,-1.56,-0.29,0.5,-198.67,153.08,-283.57
1809,1715532714330,-1.5599999999999998,-0.29,0.5,-198.67,153.08,-283.57
1810,1715532714340,-1.56,-0.29,0.5,-198.67,153.08,-283.57
1811,1715532714350,-1.5599999999999998,-0.29,0.5,-198.67,153.08,-283.57
1812,1715532714360,-1.69,0.030000000000000027,0.4875,-200.685,96.37750000000001,-252.1525
1813,1715532714370,-2.6550000000000002,1.24,0.545,-166.415,-17.5625,-135.7425
1814,1715532714380,-3.23,1.49,0.64,-45.47,150.94,-69.27
1815,1715532714390,-3.23,1.49,0.64,-45.47,150.94,-69.27
1816,1715532714400,-3.23,1.49,0.64,-45.47,150.94,-69.27
1817,1715532714410,-2.9433333333333334,1.4866666666666666,0.6066666666666667,-83.90333333333334,49.416666666666664,-28.70333333333333
1818,1715532714420,-2.37,1.48,0.54,-160.77,-153.63,52.43
1819,1715532714430,-2.37,1.4799999999999998,0.54,-160.77,-153.63,52.43
1820,1715532714440,-2.37,1.48,0.54,-160.77,-153.63,52.43
1821,1715532714450,-2.4933333333333336,1.42,0.7133333333333334,-138.39000000000001,-137.88,67.77
1822,1715532714460,-2.74,1.3,1.06,-93.63,-106.38,98.45
1823,1715532714470,-2.74,1.3,1.06,-93.63,-106.38,98.45
1824,1715532714480,-2.74,1.3,1.06,-93.63,-106.38,98.45
1825,1715532714490,-2.74,1.3,1.06,-93.63,-106.38,98.45
1826,1715532714500,-2.74,1.3,1.06,-93.63,-106.38,98.45
1827,1715532714510,-2.74,1.3,1.06,-93.63,-106.38,98.45
1828,1715532714520,-2.74,1.3,1.06,-93.63,-106.38,98.45
1829,1715532714530,-2.74,1.3,1.06,-93.63,-106.38,98.45
1830,1715532714540,-2.74,1.3,1.06,-93.63,-106.38,98.45
1831,1715532714550,-2.5325,1.0025,0.9,-14.634999999999998,-111.8125,142.5475
1832,1715532714560,-1.865,-0.06999999999999999,0.37,234.0075,-122.93750000000001,295.5925
1833,1715532714570,-1.7299999999999998,-0.61,0.22,268.98,-107.42,357.8500000000001
1834,1715532714580,-1.73,-0.61,0.22,268.98,-107.42,357.85
1835,1715532714590,-1.7299999999999998,-0.61,0.22,268.98,-107.42,357.8500000000001
1836,1715532714600,-1.7299999999999998,-0.61,0.22,268.98,-107.42,357.8500000000001
1837,1715532714610,-1.53,-0.98,0.23,334.29,-12.21,410.34
1838,1715532714620,-1.53,-0.98,0.23,334.29,-12.21,410.34
1839,1715532714630,-1.53,-0.98,0.23,334.29,-12.21,410.34
1840,1715532714640,-1.4500000000000002,-0.885,0.315,323.27250000000004,15.0725,418.28999999999996
1841,1715532714650,-1.37,-0.79,0.4000000000000001,290.22,96.92,442.14000000000004
1842,1715532714660,-1.37,-0.79,0.4,290.22,96.92,442.14
1843,1715532714670,-1.37,-0.79,0.4000000000000001,290.22,96.92,442.14000000000004
1844,1715532714680,-0.97,-0.485,0.37,266.8125,79.3875,430.4525
1845,1715532714690,-0.57,-0.18000000000000002,0.34,196.59,26.790000000000003,395.39000000000004
1846,1715532714700,-0.57,-0.18000000000000002,0.34,196.59,26.790000000000003,395.39000000000004
1847,1715532714710,-0.57,-0.18,0.34,196.59,26.79,395.39
1848,1715532714720,-0.05666666666666664,-0.04,0.20000000000000004,175.59666666666666,57.596666666666664,271.3633333333333
1849,1715532714730,0.2,0.03,0.13,165.1,73.0,209.35
1850,1715532714740,0.20000000000000004,0.03,0.13,165.1,73.0,209.35
1851,1715532714750,0.2,0.03,0.13,165.1,73.0,209.35
1852,1715532714760,-0.06,-0.10333333333333335,0.19000000000000003,83.43333333333334,148.19333333333333,135.66333333333333
1853,1715532714770,-0.19000000000000003,-0.17,0.22,42.6,185.79,98.82
1854,1715532714780,-0.19,-0.17,0.22,42.6,185.79,98.82
1855,1715532714790,-0.19000000000000003,-0.17,0.22,42.6,185.79,98.82
1856,1715532714800,-0.19000000000000003,-0.17,0.22,42.6,185.79,98.82
1857,1715532714810,-0.19,-0.17,0.22,42.6,185.79,98.82
1858,1715532714820,-0.19000000000000003,-0.17,0.22,42.6,185.79,98.82
1859,1715532714830,-0.19000000000000003,-0.17,0.22,42.6,185.79,98.82
1860,1715532714840,-0.19,-0.17,0.22,42.6,185.79,98.82
1861,1715532714850,-0.19000000000000003,-0.17,0.22,42.6,185.79,98.82
1862,1715532714860,-0.19000000000000003,-0.17,0.22,42.6,185.79,98.82
1863,1715532714870,-0.19,-0.17,0.22,42.6,185.79,98.82
1864,1715532714880,-0.19000000000000003,-0.17,0.22,42.6,185.79,98.82
1865,1715532714890,-0.01,-0.77,0.14,-117.47333333333331,38.85666666666666,-229.88000000000002
1866,1715532714900,0.08,-1.07,0.1,-197.51,-34.61,-394.23
1867,1715532714910,-0.19666666666666666,-1.2,0.21666666666666667,-197.51,-34.61,-394.23
1868,1715532714920,-0.75,-1.46,0.45,-266.97,-15.99,-503.3
1869,1715532714930,-0.75,-1.46,0.45,-266.97,-15.99,-503.3
1870,1715532714940,-0.75,-1.46,0.45,-266.97,-15.99,-503.3
1871,1715532714950,-1.33,-1.1066666666666667,0.5033333333333333,-252.60666666666668,-19.673333333333332,-469.3633333333334
1872,1715532714960,-1.62,-0.93,0.53,-223.88,-27.04,-401.49
1873,1715532714970,-1.62,-0.93,0.53,-223.88,-27.04,-401.49
1874,1715532714980,-1.62,-0.93,0.53,-223.88,-27.040000000000003,-401.49
1875,1715532714990,-1.605,-0.61,0.625,-250.64,-59.665000000000006,-354.22
1876,1715532715000,-1.59,-0.29,0.7200000000000001,-277.4,-92.29,-306.95
1877,1715532715010,-1.59,-0.29,0.7200000000000001,-277.4,-92.29,-306.95
1878,1715532715020,-1.59,-0.29,0.72,-277.4,-92.29,-306.95
1879,1715532715030,-1.59,-0.29,0.7200000000000001,-277.4,-92.29,-306.95
1880,1715532715040,-1.59,-0.29,0.72,-277.4,-92.29,-306.95
1881,1715532715050,-1.59,-0.29,0.7200000000000001,-277.4,-92.29,-306.95
1882,1715532715060,-1.59,-0.29,0.72,-277.4,-92.29,-306.95
1883,1715532715070,-1.59,-0.29,0.72,-277.4,-92.29,-306.95
1884,1715532715080,-2.94,1.5,0.62,-286.19,-77.7,-132.26
1885,1715532715090,-2.94,1.5,0.62,-286.19,-77.7,-132.26
1886,1715532715100,-2.975,1.455,0.82,-251.8425,-40.56,-101.9725
1887,1715532715110,-3.08,1.32,1.42,-148.8,70.86,-11.11
1888,1715532715120,-3.08,1.32,1.42,-148.8,70.86,-11.11
1889,1715532715130,-3.08,1.32,1.42,-148.8,70.86,-11.11
1890,1715532715140,-2.835,1.3450000000000002,1.1949999999999998,-114.41,32.715,43.365
1891,1715532715150,-2.59,1.37,0.9700000000000001,-80.02,-5.43,97.83999999999999
1892,1715532715160,-2.59,1.37,0.97,-80.02,-5.43,97.84
1893,1715532715170,-2.59,1.37,0.9700000000000001,-80.02,-5.43,97.83999999999999
