id,timestamp,acc_x,acc_y,acc_z,gyro_x,gyro_y,gyro_z
0,1715533779580,-0.97,-0.48,0.43,-123.05,67.57,-10.31
1,1715533779590,-0.9800000000000001,-0.19,0.37,-161.68,-19.65,-2.93
2,1715533779600,-0.98,-0.19000000000000003,0.36999999999999994,-161.68,-19.65,-2.93
3,1715533779610,-0.98,-0.19000000000000003,0.36999999999999994,-161.68,-19.65,-2.93
4,1715533779620,-1.06,-0.078,0.442,-183.484,-49.338,-8.522
5,1715533779630,-1.18,0.09000000000000001,0.55,-216.18999999999997,-93.87,-16.91
6,1715533779640,-1.18,0.09000000000000001,0.55,-216.18999999999997,-93.87,-16.91
7,1715533779650,-1.18,0.09,0.55,-216.19,-93.87,-16.91
8,1715533779660,-1.18,0.09000000000000001,0.55,-216.18999999999997,-93.87,-16.91
9,1715533779670,-1.18,0.09000000000000001,0.55,-216.18999999999997,-93.87,-16.91
10,1715533779680,-1.18,0.09000000000000001,0.55,-216.18999999999997,-93.87,-16.91
11,1715533779690,-1.18,0.09,0.55,-216.19,-93.87,-16.91
12,1715533779700,-1.18,0.09000000000000001,0.55,-216.18999999999997,-93.87,-16.91
13,1715533779710,-1.18,0.09000000000000001,0.55,-216.18999999999997,-93.87,-16.91
14,1715533779720,-2.428,0.29799999999999993,0.41400000000000003,-100.126,-10.958000000000002,52.426
15,1715533779730,-3.0833333333333335,0.15666666666666665,0.4566666666666667,-72.005,-28.113333333333333,89.09833333333334
16,1715533779740,-3.7700000000000005,-0.23000000000000004,0.61,-76.48,-217.53000000000003,185.79
17,1715533779750,-3.7700000000000005,-0.23000000000000004,0.61,-76.48,-217.53000000000003,185.79
18,1715533779760,-3.7700000000000005,-0.23000000000000004,0.61,-76.48,-217.53000000000003,185.79
19,1715533779770,-3.77,-0.23,0.61,-76.48,-217.53,185.79
20,1715533779780,-3.6,-1.56,1.9,-41.75,-362.12,245.24
21,1715533779790,-3.6,-1.56,1.9,-41.75,-362.12,245.24
22,1715533779800,-3.6,-1.56,1.9,-41.75,-362.12,245.24
23,1715533779810,-3.402,-1.884,2.068,41.846000000000004,-336.656,268.456
24,1715533779820,-3.27,-2.1,2.18,167.24,-298.46,303.28
25,1715533779830,-3.2700000000000005,-2.1,2.18,167.24,-298.46,303.28
26,1715533779840,-3.2700000000000005,-2.1,2.18,167.24,-298.46,303.28
27,1715533779850,-3.27,-2.1,2.18,167.24,-298.46,303.28
28,1715533779860,-3.2700000000000005,-2.1,2.18,167.24,-298.46,303.28
29,1715533779870,-3.27,-2.1,2.18,167.24,-298.46,303.28
30,1715533779880,-3.27,-2.1,2.18,167.24,-298.46,303.28
31,1715533779890,-3.27,-2.1,2.18,167.24,-298.46,303.28
32,1715533779900,-3.2700000000000005,-2.1,2.18,167.24,-298.46,303.28
33,1715533779910,-2.47,-1.3800000000000001,1.92,219.5666666666667,-246.70333333333335,328.75666666666666
34,1715533779920,-2.07,-1.02,1.79,226.87,-177.61,355.35
35,1715533779930,-1.8849999999999998,-1.17,1.63,253.39000000000001,-149.14000000000001,307.62
36,1715533779940,-1.7,-1.32,1.47,279.91,-120.67,259.89
37,1715533779950,-1.7,-1.32,1.47,279.91,-120.67,259.89
38,1715533779960,-1.7,-1.32,1.47,279.91,-120.67,259.89
39,1715533779970,-1.35,-1.88,1.02,318.05,-75.01,314.7
40,1715533779980,-1.3500000000000003,-1.88,1.02,318.05,-75.01,314.7
41,1715533779990,-1.3500000000000003,-1.88,1.02,318.05,-75.01,314.7
42,1715533780000,-1.33,-1.72,0.8400000000000001,298.03499999999997,-46.265,337.985
43,1715533780010,-1.31,-1.5599999999999998,0.66,278.02,-17.52,361.27
44,1715533780020,-1.31,-1.5599999999999998,0.66,278.02,-17.52,361.27
45,1715533780030,-1.31,-1.5599999999999998,0.66,278.02,-17.52,361.27
46,1715533780040,-1.22,-1.7325,0.8025,229.54,12.419999999999998,373.2625
47,1715533780050,-1.19,-1.79,0.85,213.38,22.4,377.26
48,1715533780060,-1.19,-1.79,0.85,213.38,22.399999999999995,377.26
49,1715533780070,-1.19,-1.79,0.85,213.38,22.399999999999995,377.26
50,1715533780080,-1.635,-1.645,0.72,219.45,56.765,384.89
51,1715533780090,-2.08,-1.5,0.59,225.52,91.13,392.52
52,1715533780100,-2.08,-1.5,0.59,225.52,91.13,392.52
53,1715533780110,-2.08,-1.5,0.59,225.52,91.13,392.52
54,1715533780120,-1.67,-1.54,-0.08,94.19500000000001,-92.3875,359.235
55,1715533780130,-1.67,-1.54,-0.08,50.42,-153.56,348.14
56,1715533780140,-1.67,-1.54,-0.08,50.419999999999995,-153.56,348.14000000000004
57,1715533780150,-1.67,-1.54,-0.08,50.42,-153.56,348.14
58,1715533780160,-1.67,-1.54,-0.08,50.42,-153.56,348.14
59,1715533780170,-1.67,-1.54,-0.08,50.42,-153.56,348.14
60,1715533780180,-1.67,-1.54,-0.08,50.42,-153.56,348.14
61,1715533780190,-1.67,-1.54,-0.08,50.42,-153.56,348.14
62,1715533780200,-1.67,-1.54,-0.08,50.42,-153.56,348.14
63,1715533780210,-1.67,-1.54,-0.08,50.419999999999995,-153.56,348.14000000000004
64,1715533780220,-1.67,-1.54,-0.08,50.42,-153.56,348.14
65,1715533780230,-1.67,-1.54,-0.08,50.419999999999995,-153.56,348.14000000000004
66,1715533780240,0.33,-1.5875,-1.0474999999999999,37.4475,-88.33,220.1075
67,1715533780250,2.7999999999999994,-1.4400000000000002,-2.09,36.44,-25.51,-18.55
68,1715533780260,2.815,-1.3875,-2.105,25.377499999999998,-9.337500000000002,-24.64
69,1715533780270,2.86,-1.23,-2.15,-7.81,39.18,-42.91
70,1715533780280,2.86,-1.23,-2.15,-7.81,39.18,-42.91
71,1715533780290,2.86,-1.23,-2.15,-7.81,39.18,-42.91
72,1715533780300,3.39,-1.34,-1.5,-10.800000000000002,-40.22,-118.71
73,1715533780310,3.39,-1.34,-1.5,-10.800000000000002,-40.22,-118.71
74,1715533780320,3.39,-1.34,-1.5,-10.8,-40.22,-118.71
75,1715533780330,3.39,-1.34,-1.5,-10.800000000000002,-40.22,-118.71
76,1715533780340,2.6733333333333333,-1.46,-1.37,15.850000000000001,11.253333333333336,-188.49333333333334
77,1715533780350,1.24,-1.7,-1.11,69.15,114.2,-328.06
78,1715533780360,1.24,-1.7,-1.11,69.15,114.2,-328.06
79,1715533780370,1.24,-1.7,-1.11,69.15,114.2,-328.06
80,1715533780380,1.24,-1.7,-1.11,69.15,114.2,-328.06
81,1715533780390,1.24,-1.7,-1.11,69.15,114.2,-328.06
82,1715533780400,1.24,-1.7,-1.11,69.15,114.2,-328.06
83,1715533780410,1.24,-1.7,-1.11,69.15,114.2,-328.06
84,1715533780420,1.24,-1.7,-1.11,69.15,114.2,-328.06
85,1715533780430,0.12333333333333336,-1.7166666666666668,-0.8333333333333334,32.73333333333334,122.84666666666665,-392.25
86,1715533780440,-2.11,-1.75,-0.28,-40.1,140.14,-520.63
87,1715533780450,-2.11,-1.75,-0.28,-40.1,140.14,-520.63
88,1715533780460,-2.8,-1.645,0.004999999999999977,-157.83499999999998,42.419999999999995,-517.1800000000001
89,1715533780470,-3.49,-1.54,0.29,-275.57,-55.29999999999999,-513.73
90,1715533780480,-3.49,-1.54,0.29,-275.57,-55.29999999999999,-513.73
91,1715533780490,-2.4566666666666666,-1.6866666666666668,0.81,-308.41,-87.76666666666667,-411.5566666666667
92,1715533780500,-1.9400000000000002,-1.76,1.07,-324.83,-104.0,-360.47
93,1715533780510,-1.9400000000000002,-1.76,1.07,-324.83,-104.0,-360.47
94,1715533780520,-1.9400000000000002,-1.76,1.07,-324.83,-104.0,-360.47
95,1715533780530,-1.7733333333333334,-1.6833333333333333,0.9866666666666667,-341.43,-73.56666666666666,-327.5133333333334
96,1715533780540,-1.4400000000000002,-1.53,0.82,-374.62999999999994,-12.699999999999998,-261.6
97,1715533780550,-1.4400000000000002,-1.53,0.82,-374.62999999999994,-12.699999999999998,-261.6
98,1715533780560,-1.4400000000000002,-1.53,0.82,-374.62999999999994,-12.699999999999998,-261.6
99,1715533780570,-1.04,-1.5633333333333335,0.7933333333333333,-375.09999999999997,-12.19,-251.67
100,1715533780580,-0.84,-1.58,0.78,-376.04,-11.17,-231.81
101,1715533780590,-0.84,-1.58,0.7799999999999999,-376.04,-11.17,-231.81000000000003
102,1715533780600,-0.84,-1.58,0.7799999999999999,-376.04,-11.17,-231.81000000000003
103,1715533780610,-0.84,-1.58,0.7799999999999999,-376.04,-11.17,-231.81000000000003
104,1715533780620,-1.11,-1.34,0.84,-373.41,57.01,-192.5
105,1715533780630,-1.11,-1.34,0.84,-373.41,57.01,-192.5
106,1715533780640,-1.11,-1.34,0.84,-373.41,57.01,-192.5
107,1715533780650,-1.12,-1.17,1.8,-326.69000000000005,120.82,-211.975
108,1715533780660,-1.12,-1.17,1.8,-279.97,184.63,-231.45
109,1715533780670,-1.12,-1.17,1.8,-279.97,184.63,-231.44999999999996
110,1715533780680,-1.12,-1.17,1.8,-279.97,184.63,-231.45
111,1715533780690,-1.12,-1.17,1.8,-279.97,184.63,-231.44999999999996
112,1715533780700,-1.12,-1.17,1.8,-279.97,184.63,-231.44999999999996
113,1715533780710,-1.12,-1.17,1.8,-279.97,184.63,-231.45
114,1715533780720,-1.12,-1.17,1.8,-279.97,184.63,-231.44999999999996
115,1715533780730,-1.12,-1.17,1.8,-279.97,184.63,-231.44999999999996
116,1715533780740,-1.12,-1.17,1.8,-279.97,184.63,-231.44999999999996
117,1715533780750,-1.12,-1.17,1.8,-279.97,184.63,-231.44999999999996
118,1715533780760,-1.12,-1.17,1.8,-279.97,184.63,-231.44999999999996
119,1715533780770,-3.6199999999999997,-0.8366666666666666,3.7000000000000006,-59.55000000000001,11.943333333333328,-94.52333333333333
120,1715533780780,-4.87,-0.67,4.65,50.66,-74.4,-26.06
121,1715533780790,-4.87,-0.67,4.65,50.66,-74.4,-26.06
122,1715533780800,-4.665,-0.7,4.140000000000001,145.875,-48.92,49.625
123,1715533780810,-4.46,-0.73,3.6300000000000003,241.09,-23.44,125.31
124,1715533780820,-4.46,-0.73,3.63,241.09,-23.44,125.31
125,1715533780830,-4.46,-0.73,3.6300000000000003,241.09,-23.44,125.31
126,1715533780840,-4.0200000000000005,-0.58,3.09,277.22333333333336,-46.593333333333334,137.86
127,1715533780850,-3.14,-0.28,2.01,349.49,-92.9,162.96
128,1715533780860,-3.14,-0.28,2.01,349.49,-92.9,162.96
129,1715533780870,-3.14,-0.28,2.01,349.49,-92.90000000000002,162.96
130,1715533780880,-3.14,-0.28,2.01,349.49,-92.9,162.96
131,1715533780890,-3.14,-0.28,2.01,349.49,-92.90000000000002,162.96
132,1715533780900,-3.14,-0.28,2.01,349.49,-92.9,162.96
133,1715533780910,-3.14,-0.28,2.01,349.49,-92.90000000000002,162.96
134,1715533780920,-3.14,-0.28,2.01,349.49,-92.90000000000002,162.96
135,1715533780930,-3.14,-0.28,2.01,349.49,-92.90000000000002,162.96
136,1715533780940,-3.14,-0.28,2.01,349.49,-92.90000000000002,162.96
137,1715533780950,-3.14,-0.28,2.01,349.49,-92.90000000000002,162.96
138,1715533780960,-2.013333333333333,-1.36,1.0166666666666666,260.2166666666667,-50.660000000000004,354.5333333333333
139,1715533780970,-1.45,-1.8999999999999997,0.52,215.58,-29.540000000000003,450.32
140,1715533780980,-1.45,-1.8999999999999997,0.52,215.58,-29.540000000000003,450.32
141,1715533780990,-1.45,-1.9,0.52,215.58,-29.54,450.32
142,1715533781000,-1.51,-1.75,0.67,232.79,59.94,460.88
143,1715533781010,-1.51,-1.75,0.67,232.79,59.94,460.88
144,1715533781020,-1.51,-1.75,0.67,232.79,59.94,460.88
145,1715533781030,-1.9566666666666668,-1.5966666666666667,0.5433333333333333,203.93666666666664,66.0,439.76
146,1715533781040,-2.18,-1.5200000000000002,0.48,189.51,69.03,429.2
147,1715533781050,-2.18,-1.52,0.48,189.51,69.03,429.2
148,1715533781060,-2.18,-1.52,0.48,189.51,69.03,429.2
149,1715533781070,-2.2525000000000004,-1.5625,0.45999999999999996,154.34,40.3425,434.86
150,1715533781080,-2.47,-1.69,0.4,48.83,-45.72,451.84
151,1715533781090,-2.47,-1.6900000000000002,0.4000000000000001,48.830000000000005,-45.72,451.84
152,1715533781100,-2.47,-1.6900000000000002,0.4000000000000001,48.830000000000005,-45.72,451.84
153,1715533781110,-1.8099999999999998,-1.63,0.05000000000000001,36.68,-61.71,438.78
154,1715533781120,-1.8099999999999998,-1.63,0.05000000000000001,36.68,-61.71,438.78
155,1715533781130,-1.8099999999999998,-1.63,0.05000000000000001,36.68,-61.71,438.78
156,1715533781140,-1.81,-1.63,0.05,36.68,-61.71,438.78
157,1715533781150,0.03,-1.92,-0.21,-7.172499999999999,-138.5625,392.64
158,1715533781160,0.03,-1.92,-0.21,-21.79,-164.18,377.26
159,1715533781170,0.03,-1.92,-0.21,-21.79,-164.18,377.26
160,1715533781180,0.03,-1.92,-0.21,-21.790000000000003,-164.18,377.26
161,1715533781190,1.65,-1.58,-0.8,119.26,-44.37,275.57
162,1715533781200,1.65,-1.58,-0.8,119.26,-44.37,275.57
163,1715533781210,1.6499999999999997,-1.58,-0.8000000000000002,119.26,-44.37,275.57
164,1715533781220,1.65,-1.58,-0.8,119.26,-44.37,275.57
165,1715533781230,1.6499999999999997,-1.58,-0.8000000000000002,119.26,-44.37,275.57
166,1715533781240,1.65,-1.58,-0.8,119.26,-44.37,275.57
167,1715533781250,1.65,-1.58,-0.8,119.26,-44.37,275.57
168,1715533781260,1.6499999999999997,-1.58,-0.8000000000000002,119.26,-44.37,275.57
169,1715533781270,1.65,-1.58,-0.8,119.26,-44.37,275.57
170,1715533781280,1.6499999999999997,-1.58,-0.8000000000000002,119.26,-44.37,275.57
171,1715533781290,2.2525,-1.585,-1.0575,94.3125,-44.035,174.115
172,1715533781300,3.4524999999999997,-1.6075000000000002,-1.62,37.8875,-22.035,-154.0675
173,1715533781310,3.25,-1.61,-1.55,93.14,40.95,-225.52
174,1715533781320,3.25,-1.61,-1.55,93.14,40.95,-225.52
175,1715533781330,3.25,-1.61,-1.55,93.14,40.95,-225.52
176,1715533781340,1.23,-1.49,-1.41,63.72,23.01,-299.46
177,1715533781350,1.23,-1.49,-1.41,49.01,14.04,-336.43
178,1715533781360,1.23,-1.49,-1.41,49.01,14.04,-336.43
179,1715533781370,1.23,-1.49,-1.41,49.01,14.04,-336.43
180,1715533781380,0.4033333333333333,-1.5633333333333332,-1.1466666666666667,8.706666666666663,42.64333333333333,-374.6566666666667
181,1715533781390,-1.25,-1.71,-0.62,-71.9,99.84999999999998,-451.10999999999996
182,1715533781400,-1.25,-1.71,-0.62,-71.9,99.84999999999998,-451.10999999999996
183,1715533781410,-1.25,-1.71,-0.62,-71.9,99.84999999999998,-451.10999999999996
184,1715533781420,-1.25,-1.71,-0.62,-71.9,99.85,-451.11
185,1715533781430,-1.25,-1.71,-0.62,-71.9,99.84999999999998,-451.10999999999996
186,1715533781440,-1.25,-1.71,-0.62,-71.9,99.84999999999998,-451.10999999999996
187,1715533781450,-1.25,-1.71,-0.62,-71.9,99.84999999999998,-451.10999999999996
188,1715533781460,-1.25,-1.71,-0.62,-71.9,99.85,-451.11
189,1715533781470,-1.25,-1.71,-0.62,-71.9,99.84999999999998,-451.10999999999996
190,1715533781480,-1.25,-1.71,-0.62,-71.9,99.85,-451.11
191,1715533781490,-2.0066666666666664,-1.5433333333333332,-0.003333333333333336,-169.33,32.57,-410.6433333333334
192,1715533781500,-2.0,-1.46,0.4000000000000001,-274.41,-31.62,-374.39000000000004
193,1715533781510,-2.0,-1.46,0.4000000000000001,-274.41,-31.62,-374.39000000000004
194,1715533781520,-2.0,-1.46,0.4000000000000001,-274.41,-31.62,-374.39000000000004
195,1715533781530,-1.85,-1.4449999999999998,0.5,-279.98,-16.575000000000003,-355.3925
196,1715533781540,-1.7,-1.43,0.6,-296.69,28.56,-298.4
197,1715533781550,-1.7,-1.43,0.6,-296.69,28.56,-298.4
198,1715533781560,-1.7,-1.43,0.6,-296.69,28.56,-298.4
199,1715533781570,-1.58,-1.44,0.64,-312.28499999999997,26.58,-292.41999999999996
200,1715533781580,-1.46,-1.45,0.68,-327.88,24.6,-286.44
201,1715533781590,-1.46,-1.45,0.68,-327.88,24.600000000000005,-286.44
202,1715533781600,-1.46,-1.45,0.68,-327.88,24.6,-286.44
203,1715533781610,-1.3266666666666667,-1.4166666666666667,0.7400000000000001,-332.68,39.126666666666665,-285.6266666666667
204,1715533781620,-1.26,-1.4,0.77,-335.08,46.39,-285.22
205,1715533781630,-1.26,-1.3999999999999997,0.77,-335.08,46.39000000000001,-285.22
206,1715533781640,-1.26,-1.4,0.77,-335.08,46.39,-285.22
207,1715533781650,-1.34,-1.41,1.07,-419.86,-22.46,-340.21
208,1715533781660,-1.34,-1.41,1.07,-419.86,-22.46,-340.21
209,1715533781670,-1.34,-1.41,1.07,-419.85999999999996,-22.459999999999997,-340.21
210,1715533781680,-1.34,-1.41,1.07,-419.86,-22.46,-340.21
211,1715533781690,-1.6600000000000001,-0.9566666666666667,2.2033333333333336,-266.7,139.04,-293.45666666666665
212,1715533781700,-1.82,-0.73,2.77,-190.12,219.79,-270.08
213,1715533781710,-1.82,-0.73,2.77,-190.12,219.79,-270.08
214,1715533781720,-2.4275,-0.6625,3.46,-204.5875,185.7475,-281.89
215,1715533781730,-4.25,-0.46,5.53,-247.99,83.62,-317.32
216,1715533781740,-4.25,-0.46,5.53,-247.99,83.62,-317.32
217,1715533781750,-4.25,-0.46,5.53,-247.99,83.62,-317.32
218,1715533781760,-4.25,-0.46,5.53,-247.99,83.62,-317.32
219,1715533781770,-4.25,-0.46,5.53,-247.99,83.62,-317.32
220,1715533781780,-4.25,-0.46,5.53,-247.99,83.62,-317.32
221,1715533781790,-4.25,-0.46,5.53,-247.99,83.62,-317.32
222,1715533781800,-4.25,-0.46,5.53,-247.99,83.62,-317.32
223,1715533781810,-4.25,-0.46,5.53,-247.99,83.62,-317.32
224,1715533781820,-5.489999999999999,-0.46,3.3800000000000003,242.25,-96.19,167.85
225,1715533781830,-5.49,-0.46,3.38,242.25,-96.19,167.85
226,1715533781840,-3.9433333333333334,-0.7133333333333333,2.486666666666667,304.79,-110.46999999999998,201.09
227,1715533781850,-3.17,-0.84,2.04,336.06,-117.61,217.71
228,1715533781860,-3.17,-0.84,2.04,336.06,-117.61,217.71
229,1715533781870,-3.17,-0.84,2.04,336.06,-117.61,217.71
230,1715533781880,-2.8433333333333337,-0.8066666666666666,1.2133333333333334,362.02,-54.05666666666667,305.3566666666667
231,1715533781890,-2.68,-0.79,0.8000000000000002,375.0,-22.28,349.18
232,1715533781900,-2.68,-0.79,0.8000000000000002,375.0,-22.28,349.18
233,1715533781910,-2.68,-0.79,0.8000000000000002,375.0,-22.28,349.18
234,1715533781920,-2.14,-1.135,0.41000000000000003,292.23749999999995,-89.75,398.0725
235,1715533781930,-1.96,-1.25,0.28,264.65,-112.24,414.37
236,1715533781940,-1.96,-1.25,0.28,264.65,-112.24,414.37000000000006
237,1715533781950,-1.96,-1.25,0.28,264.65,-112.24,414.37
238,1715533781960,-1.96,-1.25,0.28,264.65,-112.24,414.37
239,1715533781970,-1.96,-1.25,0.28,264.65,-112.24,414.37000000000006
240,1715533781980,-1.96,-1.25,0.28,264.65,-112.24,414.37000000000006
241,1715533781990,-1.96,-1.25,0.28,264.65,-112.24,414.37000000000006
242,1715533782000,-1.96,-1.25,0.28,264.65,-112.24,414.37000000000006
243,1715533782010,-1.49,-1.8,0.79,166.99,-79.28,420.72
244,1715533782020,-1.49,-1.8,0.79,166.99,-79.28,420.72
245,1715533782030,-2.2,-1.86,1.06,197.51,12.15,383.06
246,1715533782040,-2.2,-1.86,1.06,197.51,12.15,383.06
247,1715533782050,-2.2,-1.86,1.06,197.51,12.15,383.06
248,1715533782060,-2.2,-1.86,1.06,197.51,12.15,383.06
249,1715533782070,-1.79,-1.68,0.9,187.50333333333333,-61.21666666666667,365.0733333333333
250,1715533782080,-1.79,-1.68,0.9,182.5,-97.9,356.08
251,1715533782090,-1.79,-1.68,0.9,182.5,-97.90000000000002,356.08
252,1715533782100,-1.79,-1.68,0.9,182.5,-97.90000000000002,356.08
253,1715533782110,-1.655,-1.5675,0.5700000000000001,205.885,-27.130000000000003,376.9075
254,1715533782120,-1.61,-1.53,0.46,213.67999999999998,-3.5400000000000005,383.8500000000001
255,1715533782130,-1.61,-1.53,0.46,213.68,-3.54,383.85
256,1715533782140,-1.3533333333333335,-1.5200000000000002,0.19333333333333336,213.67999999999998,-3.5400000000000005,383.8500000000001
257,1715533782150,-0.84,-1.5,-0.34,54.2,-98.27,358.28
258,1715533782160,-0.84,-1.5,-0.34,54.2,-98.27,358.28
259,1715533782170,-0.84,-1.5,-0.34,54.20000000000001,-98.27,358.28
260,1715533782180,0.0,-1.5,-0.525,54.2,-98.27,358.28
261,1715533782190,0.84,-1.5,-0.71,130.86,72.39,217.9
262,1715533782200,0.84,-1.5,-0.71,130.86,72.39,217.9
263,1715533782210,0.84,-1.5,-0.71,130.86,72.39,217.9
264,1715533782220,1.815,-1.35,-1.0899999999999999,65.89,38.24,160.13
265,1715533782230,2.79,-1.2,-1.47,0.92,4.09,102.36
266,1715533782240,2.7900000000000005,-1.2,-1.47,0.92,4.09,102.36
267,1715533782250,2.79,-1.2,-1.47,0.92,4.09,102.36
268,1715533782260,2.7900000000000005,-1.2,-1.47,0.92,4.09,102.36
269,1715533782270,2.79,-1.2,-1.47,0.92,4.09,102.36
270,1715533782280,2.7900000000000005,-1.2,-1.47,0.92,4.09,102.36
271,1715533782290,2.79,-1.2,-1.47,0.92,4.09,102.36
272,1715533782300,2.7900000000000005,-1.2,-1.47,0.92,4.09,102.36
273,1715533782310,2.7900000000000005,-1.2,-1.47,0.92,4.09,102.36
274,1715533782320,2.79,-1.2,-1.47,0.92,4.09,102.36
275,1715533782330,2.7900000000000005,-1.2,-1.47,0.92,4.09,102.36
276,1715533782340,2.5966666666666667,-1.4333333333333333,-1.3166666666666667,72.40666666666668,118.87666666666667,-159.39999999999998
277,1715533782350,2.5,-1.55,-1.24,108.15000000000002,176.27,-290.28
278,1715533782360,2.5,-1.55,-1.24,108.15000000000002,176.27,-290.28
279,1715533782370,2.5,-1.55,-1.24,108.15000000000002,176.27,-290.28
280,1715533782380,-0.53,-1.78,-1.41,99.13499999999999,115.07000000000001,-400.97249999999997
281,1715533782390,-0.53,-1.78,-1.41,96.13,94.67,-437.87
282,1715533782400,-0.53,-1.78,-1.41,96.13,94.67,-437.87000000000006
283,1715533782410,-1.2,-1.7766666666666666,-1.21,52.54999999999999,106.20333333333333,-439.09
284,1715533782420,-2.54,-1.77,-0.81,-34.61,129.27,-441.53
285,1715533782430,-2.54,-1.7700000000000002,-0.81,-34.61,129.27,-441.53
286,1715533782440,-2.54,-1.77,-0.81,-34.61,129.27,-441.53
287,1715533782450,-2.54,-1.7700000000000002,-0.81,-34.61,129.27,-441.53
288,1715533782460,-2.54,-1.7700000000000002,-0.81,-34.61,129.27,-441.53
289,1715533782470,-2.54,-1.7700000000000002,-0.81,-34.61,129.27,-441.53
290,1715533782480,-2.54,-1.7700000000000002,-0.81,-34.61,129.27,-441.53
291,1715533782490,-2.54,-1.7700000000000002,-0.81,-34.61,129.27,-441.53
292,1715533782500,-2.54,-1.7700000000000002,-0.81,-34.61,129.27,-441.53
293,1715533782510,-2.54,-1.7700000000000002,-0.81,-34.61,129.27,-441.53
294,1715533782520,-2.54,-1.77,-0.81,-34.61,129.27,-441.53
295,1715533782530,-2.2866666666666666,-1.6166666666666665,-0.19666666666666668,-126.19999999999999,50.333333333333336,-404.0533333333333
296,1715533782540,-1.7299999999999998,-1.55,0.36000000000000004,-266.78,-88.07,-398.99
297,1715533782550,-1.73,-1.55,0.36,-266.78,-88.07,-398.99
298,1715533782560,-1.6033333333333335,-1.6133333333333333,0.4166666666666667,-266.78,-88.07,-398.99
299,1715533782570,-1.3500000000000003,-1.74,0.53,-318.36,-51.21,-341.98
300,1715533782580,-1.3500000000000003,-1.74,0.53,-318.36,-51.21,-341.98
301,1715533782590,-1.3500000000000003,-1.74,0.53,-318.36,-51.21,-341.98
302,1715533782600,-1.3500000000000003,-1.74,0.53,-318.36,-51.21,-341.98
303,1715533782610,-1.4366666666666668,-1.62,0.57,-279.74666666666667,65.61,-280.41333333333336
304,1715533782620,-1.48,-1.56,0.59,-260.44,124.02,-249.63
305,1715533782630,-1.48,-1.56,0.59,-260.44,124.02,-249.63
306,1715533782640,-1.4633333333333332,-1.4533333333333334,0.6233333333333333,-260.44,124.02,-249.63
307,1715533782650,-1.43,-1.24,0.69,-313.78,-18.92,-320.8
308,1715533782660,-1.43,-1.24,0.69,-313.78,-18.92,-320.8
309,1715533782670,-1.43,-1.24,0.69,-313.78,-18.92,-320.8
310,1715533782680,-1.455,-1.21,0.85,-292.3425,20.249999999999996,-308.96000000000004
311,1715533782690,-1.53,-1.12,1.33,-228.03,137.76,-273.44
312,1715533782700,-1.53,-1.12,1.33,-228.03,137.76,-273.44
313,1715533782710,-1.53,-1.12,1.33,-228.03,137.76,-273.44
314,1715533782720,-2.66,-0.6950000000000001,1.93,-221.5,88.47,-288.88
315,1715533782730,-3.79,-0.27,2.53,-214.97,39.18,-304.32
316,1715533782740,-3.7900000000000005,-0.27,2.53,-214.97,39.18,-304.32
317,1715533782750,-3.7900000000000005,-0.27,2.53,-214.97,39.18,-304.32
318,1715533782760,-4.1866666666666665,-0.36000000000000004,3.603333333333333,-195.86333333333334,41.11333333333334,-241.29
319,1715533782770,-4.98,-0.54,5.75,-157.65,44.98,-115.23
320,1715533782780,-4.98,-0.54,5.75,-157.65,44.98,-115.23
321,1715533782790,-4.98,-0.54,5.75,-157.65,44.98,-115.23
322,1715533782800,-4.98,-0.54,5.75,-157.65,44.98,-115.23
323,1715533782810,-4.98,-0.54,5.75,-157.65,44.98,-115.23
324,1715533782820,-4.98,-0.54,5.75,-157.65,44.98,-115.23
325,1715533782830,-4.98,-0.54,5.75,-157.65,44.98,-115.23
326,1715533782840,-4.98,-0.54,5.75,-157.65,44.98,-115.23
327,1715533782850,-4.98,-0.54,5.75,-157.65,44.98,-115.23
328,1715533782860,-4.5,-0.7433333333333333,4.976666666666667,-30.433333333333337,-35.85,-26.75
329,1715533782870,-3.5400000000000005,-1.15,3.43,224.0,-197.51,150.21
330,1715533782880,-2.7525000000000004,-0.88,2.56,339.3125,-167.9825,165.225
331,1715533782890,-2.49,-0.79,2.27,377.75,-158.14,170.23
332,1715533782900,-2.49,-0.79,2.27,377.75,-158.14,170.23
333,1715533782910,-2.49,-0.79,2.27,377.75,-158.14,170.23
334,1715533782920,-2.325,-0.6799999999999999,1.74,364.445,-113.94999999999999,225.04000000000002
335,1715533782930,-2.16,-0.57,1.21,351.14,-69.76,279.85
336,1715533782940,-2.16,-0.57,1.21,351.14000000000004,-69.76,279.85
337,1715533782950,-1.9900000000000002,-0.9099999999999999,0.94,342.35,-98.08000000000001,327.27
338,1715533782960,-1.82,-1.25,0.67,333.56,-126.4,374.69
339,1715533782970,-1.82,-1.25,0.67,333.56,-126.40000000000002,374.69
340,1715533782980,-1.82,-1.25,0.67,333.56,-126.40000000000002,374.69
341,1715533782990,-1.82,-1.25,0.67,333.56,-126.40000000000002,374.69
342,1715533783000,-1.82,-1.25,0.67,333.56,-126.4,374.69
343,1715533783010,-1.82,-1.25,0.67,333.56,-126.40000000000002,374.69
344,1715533783020,-1.82,-1.25,0.67,333.56,-126.4,374.69
345,1715533783030,-1.82,-1.25,0.67,333.56,-126.4,374.69
346,1715533783040,-1.82,-1.25,0.67,333.56,-126.40000000000002,374.69
347,1715533783050,-1.82,-1.25,0.67,333.56,-126.4,374.69
348,1715533783060,-1.2,-1.86,0.9700000000000001,233.76,-73.3,343.44
349,1715533783070,-1.555,-1.635,0.9450000000000001,241.635,-28.075,352.905
350,1715533783080,-1.91,-1.41,0.92,249.51,17.15,362.37
351,1715533783090,-1.91,-1.41,0.92,249.51,17.15,362.37
352,1715533783100,-1.843333333333333,-1.3966666666666665,0.8533333333333334,249.51,17.15,362.37000000000006
353,1715533783110,-1.71,-1.37,0.7200000000000001,250.92,17.15,340.94
354,1715533783120,-1.71,-1.37,0.7200000000000001,250.92,17.15,340.94
355,1715533783130,-1.71,-1.37,0.7200000000000001,250.92,17.15,340.94
356,1715533783140,-1.5933333333333335,-1.2466666666666668,0.5166666666666667,250.92,17.15,340.94
357,1715533783150,-1.36,-1.0,0.11000000000000001,175.71999999999997,45.910000000000004,308.276
358,1715533783160,-1.36,-1.0,0.11,156.92,53.1,300.11
359,1715533783170,-1.36,-1.0,0.11,156.92,53.1,300.11
360,1715533783180,-0.9466666666666667,-1.2533333333333332,-0.030000000000000002,129.45333333333335,57.620000000000005,282.12333333333333
361,1715533783190,-0.7399999999999999,-1.38,-0.10000000000000002,115.71999999999998,59.88,273.13
362,1715533783200,-0.7399999999999999,-1.38,-0.10000000000000002,115.71999999999998,59.88,273.13
363,1715533783210,-0.7399999999999999,-1.38,-0.10000000000000002,115.71999999999998,59.88,273.13
364,1715533783220,-0.15333333333333332,-1.14,-0.3133333333333333,115.71999999999998,59.88,273.13
365,1715533783230,0.14,-1.02,-0.42,115.72,59.88,273.13
366,1715533783240,0.14,-1.02,-0.42,43.52,121.46,315.06
367,1715533783250,0.14,-1.02,-0.42,43.52,121.46,315.06
368,1715533783260,1.72,-1.32,-0.44,-10.5,-56.76,197.45
369,1715533783270,1.72,-1.32,-0.44,-10.5,-56.76,197.44999999999996
370,1715533783280,1.72,-1.32,-0.44,-10.5,-56.76,197.45
371,1715533783290,1.72,-1.32,-0.44,-10.5,-56.76,197.44999999999996
372,1715533783300,3.55,-1.85,-0.52,-23.3175,-56.2125,110.4725
373,1715533783310,3.55,-1.85,-0.52,-27.59,-56.03,81.48
374,1715533783320,3.5499999999999994,-1.8500000000000003,-0.52,-27.59,-56.03,81.48
375,1715533783330,3.5499999999999994,-1.8500000000000003,-0.52,-27.59,-56.03,81.48
376,1715533783340,3.5499999999999994,-1.8500000000000003,-0.52,-27.59,-56.03,81.48
377,1715533783350,3.55,-1.85,-0.52,-27.59,-56.03,81.48
378,1715533783360,3.55,-1.85,-0.52,-27.59,-56.03,81.48
379,1715533783370,3.5499999999999994,-1.8500000000000003,-0.52,-27.59,-56.03,81.48
380,1715533783380,3.5499999999999994,-1.8500000000000003,-0.52,-27.59,-56.03,81.48
381,1715533783390,3.5275,-2.3449999999999998,-0.5125,110.7475,-32.09,-66.8775
382,1715533783400,3.52,-2.51,-0.51,156.86,-24.11,-116.33
383,1715533783410,2.145,-2.125,-1.005,175.60000000000002,-26.0,-204.16
384,1715533783420,0.77,-1.74,-1.5,194.34,-27.89,-291.99
385,1715533783430,0.77,-1.74,-1.5,194.34,-27.89,-291.99
386,1715533783440,0.77,-1.74,-1.5,194.34,-27.89,-291.99
387,1715533783450,-0.7200000000000001,-1.24,-1.18,-25.88,-71.23,-416.5
388,1715533783460,-0.7200000000000001,-1.24,-1.18,-25.88,-71.23,-416.5
389,1715533783470,-0.72,-1.24,-1.18,-25.88,-71.23,-416.5
390,1715533783480,-0.7200000000000001,-1.24,-1.18,-25.88,-71.23,-416.5
391,1715533783490,-2.31,-1.46,-0.19,-119.32,30.03,-463.44
392,1715533783500,-2.31,-1.46,-0.19000000000000003,-119.32,30.03,-463.44
393,1715533783510,-2.31,-1.46,-0.19,-119.32,30.03,-463.44
394,1715533783520,-2.31,-1.46,-0.19000000000000003,-119.32,30.03,-463.44
395,1715533783530,-2.31,-1.46,-0.19,-119.32,30.03,-463.44
396,1715533783540,-2.31,-1.46,-0.19000000000000003,-119.32,30.03,-463.44
397,1715533783550,-2.31,-1.46,-0.19000000000000003,-119.32,30.03,-463.44
398,1715533783560,-2.31,-1.46,-0.19,-119.32,30.03,-463.44
399,1715533783570,-2.31,-1.46,-0.19000000000000003,-119.32,30.03,-463.44
400,1715533783580,-2.0233333333333334,-1.5666666666666667,0.27,-201.1933333333333,-27.75,-478.41333333333336
401,1715533783590,-1.88,-1.62,0.5,-242.13,-56.64,-485.9
402,1715533783600,-1.7966666666666666,-1.6466666666666667,0.4266666666666667,-232.54666666666665,-41.56333333333333,-491.78
403,1715533783610,-1.63,-1.7,0.28,-213.38,-11.410000000000002,-503.54
404,1715533783620,-1.63,-1.7,0.28,-213.38,-11.410000000000002,-503.54
405,1715533783630,-1.63,-1.7,0.28,-213.38,-11.41,-503.54
406,1715533783640,-1.63,-1.7,0.28,-213.38,-11.410000000000002,-503.54
407,1715533783650,-1.79,-1.71,0.68,-360.66,-140.69,-415.77
408,1715533783660,-1.79,-1.71,0.68,-360.66,-140.69,-415.77
409,1715533783670,-1.79,-1.71,0.68,-360.66,-140.69,-415.77
410,1715533783680,-1.7299999999999998,-1.7833333333333332,1.06,-327.1266666666667,-25.903333333333336,-349.0366666666667
411,1715533783690,-1.7,-1.82,1.25,-310.36,31.49,-315.67
412,1715533783700,-1.7,-1.82,1.25,-310.36,31.49,-315.67
413,1715533783710,-1.7,-1.82,1.25,-310.36,31.49,-315.67
414,1715533783720,-1.9324999999999999,-1.145,1.4825,-275.2975,14.8325,-317.185
415,1715533783730,-2.01,-0.92,1.5599999999999998,-263.61,9.28,-317.69
416,1715533783740,-2.01,-0.92,1.56,-263.61,9.28,-317.69
417,1715533783750,-2.01,-0.92,1.5599999999999998,-263.61,9.28,-317.69
418,1715533783760,-2.8800000000000003,0.81,2.56,-111.33,195.56000000000003,-208.43999999999997
419,1715533783770,-2.8800000000000003,0.81,2.56,-111.33,195.56000000000003,-208.43999999999997
420,1715533783780,-2.8800000000000003,0.81,2.56,-111.33,195.56000000000003,-208.43999999999997
421,1715533783790,-2.8800000000000003,0.81,2.56,-111.33,195.56000000000003,-208.43999999999997
422,1715533783800,-2.8800000000000003,0.81,2.56,-111.33,195.56000000000003,-208.43999999999997
423,1715533783810,-4.84,1.25,3.5,-168.52,-124.57,-122.13
424,1715533783820,-4.84,1.25,3.5,-168.52,-124.57,-122.13
425,1715533783830,-4.84,1.25,3.5,-168.52,-124.57,-122.13
426,1715533783840,-4.84,1.25,3.5,-168.52,-124.57,-122.13
427,1715533783850,-4.84,1.25,3.5,-168.52,-124.57,-122.13
428,1715533783860,-4.84,1.25,3.5,-168.52,-124.57,-122.13
429,1715533783870,-4.84,1.25,3.5,-168.52,-124.57,-122.13
430,1715533783880,-4.84,1.25,3.5,-168.52,-124.57,-122.13
431,1715533783890,-4.84,1.25,3.5,-168.52,-124.57,-122.13
432,1715533783900,-4.84,1.25,3.5,-168.52,-124.57,-122.13
433,1715533783910,-4.246666666666667,0.7133333333333334,3.02,-25.370000000000005,-158.97333333333333,-21.176666666666666
434,1715533783920,-3.06,-0.36,2.06,260.93,-227.78,180.73
435,1715533783930,-3.06,-0.36000000000000004,2.06,260.93,-227.78,180.73
436,1715533783940,-3.06,-0.36,2.06,260.93,-227.78,180.73
437,1715533783950,-2.5425,-0.105,1.2125000000000001,274.7975,-163.4675,214.0525
438,1715533783960,-2.37,-0.02,0.93,279.42,-142.03,225.16
439,1715533783970,-2.37,-0.02,0.93,279.42,-142.03,225.16
440,1715533783980,-2.37,-0.02,0.93,279.42,-142.03,225.16
441,1715533783990,-1.91,-0.71,0.42,287.86333333333334,-139.02,260.05
442,1715533784000,-1.91,-0.71,0.42,304.75,-133.0,329.83
443,1715533784010,-1.91,-0.71,0.42,304.75,-133.0,329.83
444,1715533784020,-1.91,-0.71,0.42,304.75,-133.0,329.83
445,1715533784030,-1.91,-0.71,0.42,304.75,-133.0,329.83
446,1715533784040,-1.91,-0.71,0.42,304.75,-133.0,329.83
447,1715533784050,-1.91,-0.71,0.42,304.75,-133.0,329.83
448,1715533784060,-1.91,-0.71,0.42,304.75,-133.0,329.83
449,1715533784070,-1.91,-0.71,0.42,304.75,-133.0,329.83
450,1715533784080,-1.91,-0.71,0.42,304.75,-133.0,329.83
451,1715533784090,-1.91,-0.71,0.42,304.75,-133.0,329.83
452,1715533784100,-1.9075,-1.005,0.4475,249.32999999999998,-81.3,343.61
453,1715533784110,-2.02,-1.38,0.67,200.87,33.02,379.94
454,1715533784120,-2.02,-1.38,0.67,200.87,33.02,379.94
455,1715533784130,-2.02,-1.38,0.67,200.87,33.02,379.94
456,1715533784140,-2.026666666666667,-1.3033333333333332,0.54,200.87,33.02,379.94
457,1715533784150,-2.04,-1.15,0.28,175.19,35.1275,373.445
458,1715533784160,-2.04,-1.15,0.28,166.63,35.83,371.28
459,1715533784170,-2.04,-1.15,0.28,166.63,35.83,371.28
460,1715533784180,-1.8225,-1.2175,0.0925,107.1175,63.0625,367.755
461,1715533784190,-1.75,-1.24,0.03,87.28,72.14,366.58
462,1715533784200,-1.75,-1.24,0.03,87.28000000000002,72.14,366.58
463,1715533784210,-1.75,-1.24,0.03,87.28000000000002,72.14,366.58
464,1715533784220,-1.72,-1.51,-0.53,-30.399999999999995,-78.31,308.35
465,1715533784230,-1.72,-1.51,-0.53,-30.4,-78.31,308.35
466,1715533784240,-1.72,-1.51,-0.53,-30.399999999999995,-78.31,308.35
467,1715533784250,-1.72,-1.51,-0.53,-30.4,-78.31,308.35
468,1715533784260,-0.8049999999999999,-1.7125,-0.40249999999999997,-80.7025,-113.14750000000001,313.615
469,1715533784270,-0.5,-1.78,-0.36000000000000004,-97.46999999999998,-124.76,315.37
470,1715533784280,-0.5,-1.78,-0.36000000000000004,-97.46999999999998,-124.76,315.37
471,1715533784290,-0.5,-1.78,-0.36000000000000004,-97.46999999999998,-124.76,315.37
472,1715533784300,0.5166666666666666,-1.7666666666666666,-0.6033333333333334,-75.58,-131.77666666666667,315.61333333333334
473,1715533784310,2.55,-1.74,-1.09,-31.8,-145.81,316.1
474,1715533784320,2.55,-1.74,-1.09,-31.8,-145.81,316.1
475,1715533784330,3.2899999999999996,-1.8166666666666667,-1.62,-87.54666666666667,-158.40333333333334,198.5066666666667
476,1715533784340,4.77,-1.97,-2.68,-199.04,-183.59,-36.68
477,1715533784350,4.77,-1.97,-2.68,-199.04,-183.59,-36.68
478,1715533784360,4.77,-1.97,-2.68,-199.04,-183.59,-36.68
479,1715533784370,4.77,-1.97,-2.68,-199.04,-183.59,-36.68
480,1715533784380,4.77,-1.97,-2.68,-199.04,-183.59,-36.68
481,1715533784390,4.77,-1.97,-2.68,-199.04,-183.59,-36.68
482,1715533784400,4.77,-1.97,-2.68,-199.04,-183.59,-36.68
483,1715533784410,4.77,-1.97,-2.68,-199.04,-183.59,-36.68
484,1715533784420,4.77,-1.97,-2.68,-199.04,-183.59,-36.68
485,1715533784430,4.77,-1.97,-2.68,-199.04,-183.59,-36.68
486,1715533784440,3.973333333333333,-1.7733333333333334,-1.5166666666666666,121.40000000000002,104.63333333333333,-205.73333333333335
487,1715533784450,2.3000000000000003,-2.0366666666666666,-1.2699999999999998,116.76,87.33999999999999,-275.7
488,1715533784460,-0.18000000000000002,-2.27,-1.05,172.73,214.23,-388.0
489,1715533784470,-0.18000000000000002,-2.27,-1.05,172.73,214.23,-388.0
490,1715533784480,-0.6925,-2.185,-1.0025,161.9725,197.10999999999999,-408.1875
491,1715533784490,-2.23,-1.93,-0.86,129.7,145.75,-468.75
492,1715533784500,-2.23,-1.93,-0.86,129.7,145.75,-468.75
493,1715533784510,-2.23,-1.93,-0.86,129.7,145.75,-468.75
494,1715533784520,-2.4825,-1.755,-0.765,83.92249999999999,99.85249999999999,-468.3075
495,1715533784530,-3.24,-1.23,-0.48,-53.41,-37.84,-466.98
496,1715533784540,-3.24,-1.23,-0.48,-53.41,-37.84,-466.98
497,1715533784550,-3.24,-1.23,-0.48,-53.41,-37.84,-466.98
498,1715533784560,-3.24,-1.23,-0.48,-53.41,-37.84,-466.98
499,1715533784570,-3.24,-1.23,-0.48,-53.41,-37.84,-466.98
500,1715533784580,-3.24,-1.23,-0.48,-53.41,-37.84,-466.98
501,1715533784590,-3.24,-1.23,-0.48,-53.41,-37.84,-466.98
502,1715533784600,-3.24,-1.23,-0.48,-53.41,-37.84,-466.98
503,1715533784610,-3.24,-1.23,-0.48,-53.41,-37.84,-466.98
504,1715533784620,-3.24,-1.23,-0.48,-53.41,-37.84,-466.98
505,1715533784630,-2.3200000000000003,-1.3033333333333335,-0.006666666666666654,-211.89666666666665,-41.586666666666666,-389.21999999999997
506,1715533784640,-1.71,-1.4825,0.53,-339.4325,-29.0375,-342.97499999999997
507,1715533784650,-1.66,-1.53,0.63,-355.53,-24.23,-340.52
508,1715533784660,-1.66,-1.53,0.63,-355.53,-24.23,-340.52
509,1715533784670,-1.66,-1.53,0.63,-355.53,-24.23,-340.52
510,1715533784680,-1.5,-1.57,0.78,-346.92,0.43,-340.15
511,1715533784690,-1.5,-1.57,0.78,-346.92,0.43,-340.15
512,1715533784700,-1.5,-1.57,0.78,-346.92,0.43,-340.15
513,1715533784710,-1.36,-1.4733333333333334,0.8666666666666667,-346.92,0.43,-340.15
514,1715533784720,-1.08,-1.28,1.04,-336.075,-15.6425,-328.1125
515,1715533784730,-1.08,-1.28,1.04,-332.46,-21.0,-324.1
516,1715533784740,-1.08,-1.28,1.04,-332.46,-21.0,-324.1
517,1715533784750,-1.08,-1.28,1.04,-332.46,-21.0,-324.1
518,1715533784760,-1.2825000000000002,-0.7775,1.4375,-236.6925,158.9925,-336.73
519,1715533784770,-1.35,-0.61,1.57,-204.77,218.99,-340.94
520,1715533784780,-1.35,-0.61,1.57,-204.77,218.99,-340.94
521,1715533784790,-1.3500000000000003,-0.61,1.57,-204.77,218.99,-340.94
522,1715533784800,-5.45,0.8,3.74,-326.42,-99.24,-399.78
523,1715533784810,-5.45,0.8000000000000002,3.74,-326.42,-99.24,-399.78
524,1715533784820,-5.45,0.8,3.74,-326.42,-99.24,-399.78
525,1715533784830,-5.113333333333333,0.5533333333333333,4.48,-326.42,-99.24,-399.78
526,1715533784840,-4.44,0.06,5.96,16.6,151.98,7.39
527,1715533784850,-4.44,0.06,5.96,16.6,151.98,7.39
528,1715533784860,-4.44,0.06,5.96,16.6,151.98,7.39
529,1715533784870,-4.44,0.06,5.96,16.6,151.98,7.39
530,1715533784880,-4.44,0.06,5.96,16.6,151.98,7.39
531,1715533784890,-4.44,0.06,5.96,16.6,151.98,7.39
532,1715533784900,-4.44,0.06,5.96,16.6,151.98,7.39
533,1715533784910,-4.44,0.06,5.96,16.6,151.98,7.39
534,1715533784920,-4.44,0.06,5.96,16.6,151.98,7.39
535,1715533784930,-4.44,0.06,5.96,16.6,151.98,7.39
536,1715533784940,-4.44,0.06,5.96,16.6,151.98,7.39
537,1715533784950,-4.44,0.06,5.96,16.6,151.98,7.39
538,1715533784960,-3.3550000000000004,-0.355,4.085,152.16000000000003,51.60499999999999,92.56
539,1715533784970,-2.27,-0.77,2.21,287.72,-48.77,177.73
540,1715533784980,-2.27,-0.77,2.21,287.72,-48.77,177.73
541,1715533784990,-1.91,-0.65,1.27,343.44,-47.36,253.48
542,1715533785000,-1.91,-0.65,1.27,343.44,-47.35999999999999,253.48
543,1715533785010,-1.91,-0.65,1.27,343.44,-47.35999999999999,253.48
544,1715533785020,-1.8099999999999998,-0.8366666666666666,1.0866666666666667,337.74333333333334,-49.903333333333336,288.59666666666664
545,1715533785030,-1.61,-1.21,0.72,326.35,-54.99,358.83
546,1715533785040,-1.61,-1.21,0.7200000000000001,326.35,-54.99,358.83
547,1715533785050,-1.61,-1.21,0.72,326.35,-54.99,358.83
548,1715533785060,-1.61,-1.21,0.7200000000000001,326.35,-54.99,358.83
549,1715533785070,-1.61,-1.21,0.72,326.35,-54.99,358.83
550,1715533785080,-1.61,-1.21,0.7200000000000001,326.35,-54.99,358.83
551,1715533785090,-1.61,-1.21,0.72,326.35,-54.99,358.83
552,1715533785100,-1.61,-1.21,0.72,326.35,-54.99,358.83
553,1715533785110,-1.61,-1.21,0.7200000000000001,326.35,-54.99,358.83
554,1715533785120,-1.61,-1.21,0.7200000000000001,326.35,-54.99,358.83
555,1715533785130,-1.61,-1.21,0.7200000000000001,326.35,-54.99,358.83
556,1715533785140,-1.61,-1.21,0.7200000000000001,326.35,-54.99,358.83
557,1715533785150,-1.61,-1.21,0.7200000000000001,326.35,-54.99,358.83
558,1715533785160,-1.63,-1.71,0.99,178.71,-29.48,303.59
559,1715533785170,-1.63,-1.71,0.9899999999999999,178.71,-29.48,303.59
560,1715533785180,-1.665,-1.67,0.875,189.32999999999998,-55.265,304.565
561,1715533785190,-1.7,-1.63,0.7600000000000001,199.94999999999996,-81.05,305.54
562,1715533785200,-1.7,-1.63,0.7600000000000001,199.94999999999996,-81.05,305.54
563,1715533785210,-1.7,-1.63,0.7600000000000001,199.94999999999996,-81.05,305.54
564,1715533785220,-1.593333333333333,-1.6166666666666665,0.6466666666666666,188.00666666666666,-106.28000000000002,283.4266666666667
565,1715533785230,-1.38,-1.59,0.42,164.12,-156.74,239.19999999999996
566,1715533785240,-1.38,-1.59,0.42,164.12,-156.74,239.19999999999996
567,1715533785250,-1.38,-1.59,0.42,164.12,-156.74,239.2
568,1715533785260,-0.71,-1.75,0.01,164.425,-144.10500000000002,242.405
569,1715533785270,-0.71,-1.75,0.01,164.73,-131.47,245.61
570,1715533785280,-0.71,-1.75,0.01,164.73,-131.47,245.61
571,1715533785290,-0.71,-1.75,0.01,164.73,-131.47,245.61
572,1715533785300,1.165,-1.2175,-0.9199999999999999,233.49,-37.2625,223.635
573,1715533785310,1.79,-1.04,-1.23,256.41,-5.86,216.31000000000003
574,1715533785320,1.79,-1.04,-1.23,256.41,-5.86,216.31000000000003
575,1715533785330,2.1466666666666665,-0.9333333333333332,-1.75,256.41,-5.86,216.31000000000003
576,1715533785340,2.86,-0.7200000000000001,-2.7900000000000005,79.16,54.02,129.76
577,1715533785350,2.86,-0.72,-2.79,79.16,54.02,129.76
578,1715533785360,2.86,-0.7200000000000001,-2.7900000000000005,79.16,54.02,129.76
579,1715533785370,3.653333333333333,-0.7466666666666667,-2.83,79.16,54.02,129.76
580,1715533785380,4.05,-0.7600000000000001,-2.85,-31.86,-9.77,-51.09
581,1715533785390,4.05,-0.7600000000000001,-2.85,-31.86,-9.77,-51.09
582,1715533785400,4.05,-0.76,-2.85,-31.86,-9.77,-51.09
583,1715533785410,4.05,-0.76,-2.85,-31.86,-9.77,-51.09
584,1715533785420,4.05,-0.76,-2.85,-31.86,-9.77,-51.09
585,1715533785430,4.05,-0.7600000000000001,-2.85,-31.86,-9.77,-51.09
586,1715533785440,4.05,-0.76,-2.85,-31.86,-9.77,-51.09
587,1715533785450,4.05,-0.76,-2.85,-31.86,-9.77,-51.09
588,1715533785460,4.05,-0.7600000000000001,-2.85,-31.86,-9.77,-51.09
589,1715533785470,4.05,-0.7600000000000001,-2.85,-31.86,-9.77,-51.09
590,1715533785480,4.05,-0.7600000000000001,-2.85,-31.86,-9.77,-51.09
591,1715533785490,-0.16,-2.04,-0.94,-13.31,183.78,-399.6000000000001
592,1715533785500,-0.16,-2.04,-0.94,-13.31,183.78,-399.6
593,1715533785510,-0.16,-2.04,-0.94,-13.31,183.78,-399.6000000000001
594,1715533785520,-0.16,-2.04,-0.94,-13.31,183.78,-399.6000000000001
595,1715533785530,-2.21,-2.46,-0.22,-58.625,189.86249999999998,-474.03
596,1715533785540,-2.21,-2.46,-0.22,-73.73,191.89,-498.84
597,1715533785550,-2.21,-2.46,-0.22,-73.73,191.89,-498.84
598,1715533785560,-2.21,-2.46,-0.22,-73.73,191.89,-498.84
599,1715533785570,-3.35,-2.18,0.29,-129.39,69.15,-474.49
600,1715533785580,-3.35,-2.18,0.29,-129.39,69.15,-474.49
601,1715533785590,-3.35,-2.18,0.29,-129.39,69.15,-474.49
602,1715533785600,-3.35,-2.18,0.29,-129.39,69.15,-474.49
603,1715533785610,-3.35,-2.18,0.29,-129.39,69.15,-474.49
604,1715533785620,-3.35,-2.18,0.29,-129.39,69.15,-474.49
605,1715533785630,-3.35,-2.18,0.29,-129.39,69.15,-474.49
606,1715533785640,-3.35,-2.18,0.29,-129.39,69.15,-474.49
607,1715533785650,-3.35,-2.18,0.29,-129.39,69.15,-474.49
608,1715533785660,-3.35,-2.18,0.29,-129.39,69.15,-474.49
609,1715533785670,-3.35,-2.18,0.29,-129.39,69.15,-474.49
610,1715533785680,-1.3699999999999999,-1.7766666666666666,0.6,-231.38333333333333,86.55,-311.8533333333333
611,1715533785690,-1.33,-1.73,0.5,-242.25,78.49,-320.56
612,1715533785700,-1.33,-1.7299999999999998,0.5,-242.25,78.49,-320.56
613,1715533785710,-1.33,-1.7299999999999998,0.5,-242.25,78.49,-320.56
614,1715533785720,-1.4,-1.64,0.55,-246.83,48.4,-344.42
615,1715533785730,-1.3999999999999997,-1.64,0.55,-246.83,48.4,-344.42
616,1715533785740,-1.3999999999999997,-1.64,0.55,-246.83,48.4,-344.42
617,1715533785750,-1.3675,-1.5799999999999998,0.5650000000000001,-246.83,48.4,-344.42
618,1715533785760,-1.27,-1.3999999999999997,0.61,-300.11,-68.3,-373.10999999999996
619,1715533785770,-1.27,-1.3999999999999997,0.61,-300.11,-68.3,-373.10999999999996
620,1715533785780,-1.27,-1.3999999999999997,0.61,-300.11,-68.3,-373.10999999999996
621,1715533785790,-1.5166666666666666,-1.3499999999999999,0.8833333333333333,-267.13,-2.3200000000000025,-360.76
622,1715533785800,-2.01,-1.25,1.43,-201.17,129.64,-336.06
623,1715533785810,-2.01,-1.25,1.43,-201.17,129.64,-336.06
624,1715533785820,-2.01,-1.25,1.43,-201.17,129.64,-336.06
625,1715533785830,-2.6366666666666667,-0.57,2.4966666666666666,-200.33666666666667,72.89666666666666,-354.90000000000003
626,1715533785840,-2.9500000000000006,-0.23,3.03,-198.67,-40.59,-392.58
627,1715533785850,-2.9500000000000006,-0.23,3.03,-198.67,-40.59,-392.58
628,1715533785860,-2.9500000000000006,-0.23,3.03,-198.67,-40.59,-392.58
629,1715533785870,-5.79,-2.43,4.55,-102.29666666666667,41.849999999999994,-403.6666666666667
630,1715533785880,-5.79,-2.43,4.55,90.45,206.73,-425.84
631,1715533785890,-5.79,-2.43,4.55,90.45,206.73,-425.84
632,1715533785900,-5.79,-2.43,4.55,90.45,206.73,-425.84
633,1715533785910,-6.476666666666667,-2.4433333333333334,3.5499999999999994,115.59666666666665,114.52333333333333,-254.59666666666666
634,1715533785920,-6.82,-2.45,3.05,165.89,-69.89,87.89
635,1715533785930,-6.82,-2.45,3.05,165.89,-69.89,87.89
636,1715533785940,-6.82,-2.45,3.0499999999999994,165.89,-69.89,87.89
637,1715533785950,-6.82,-2.45,3.05,165.89,-69.89,87.89
638,1715533785960,-6.82,-2.45,3.0499999999999994,165.89,-69.89,87.89
639,1715533785970,-6.82,-2.45,3.05,165.89,-69.89,87.89
640,1715533785980,-6.82,-2.45,3.0499999999999994,165.89,-69.89,87.89
641,1715533785990,-6.82,-2.45,3.0499999999999994,165.89,-69.89,87.89
642,1715533786000,-6.82,-2.45,3.0499999999999994,165.89,-69.89,87.89
643,1715533786010,-3.66,-2.0833333333333335,2.39,287.47666666666663,-88.27666666666666,164.42999999999998
644,1715533786020,-2.015,-1.7675,1.77,370.73,-78.9475,211.21499999999997
645,1715533786030,-1.82,-1.37,0.9,438.10999999999996,-23.38,236.76
646,1715533786040,-1.82,-1.37,0.9,438.10999999999996,-23.38,236.76
647,1715533786050,-1.82,-1.37,0.9,438.11,-23.38,236.76
648,1715533786060,-1.5,-1.5633333333333332,0.64,401.65000000000003,2.2600000000000002,311.70666666666665
649,1715533786070,-1.34,-1.66,0.51,383.42,15.08,349.18
650,1715533786080,-1.34,-1.66,0.51,383.42,15.08,349.18
651,1715533786090,-1.34,-1.66,0.51,383.42,15.08,349.18
652,1715533786100,-0.9125000000000001,-1.9525,0.5175000000000001,330.565,27.865,415.005
653,1715533786110,-0.77,-2.05,0.52,277.71,40.65,480.83
654,1715533786120,-0.77,-2.05,0.52,277.71,40.65,480.83
655,1715533786130,-0.77,-2.05,0.52,277.71,40.65,480.83
656,1715533786140,-0.77,-2.05,0.52,277.71,40.65,480.83
657,1715533786150,-0.77,-2.05,0.52,277.71,40.65,480.83
658,1715533786160,-0.77,-2.05,0.52,277.71,40.65,480.83
659,1715533786170,-0.77,-2.05,0.52,277.71,40.65,480.83
660,1715533786180,-0.77,-2.05,0.52,277.71,40.65,480.83
661,1715533786190,-0.77,-2.05,0.52,277.71,40.65,480.83
662,1715533786200,-0.77,-1.8333333333333333,0.5666666666666668,239.5233333333333,13.813333333333333,445.87999999999994
663,1715533786210,-0.9266666666666667,-1.5199999999999998,0.65,163.15,-39.86,375.98
664,1715533786220,-1.1,-1.3,0.63,181.53666666666666,3.0333333333333337,315.5133333333333
665,1715533786230,-1.1,-1.3,0.63,190.73,24.48,285.28
666,1715533786240,-1.1,-1.3,0.63,190.73,24.48,285.28
667,1715533786250,-1.1975,-1.37,0.6575,174.51,11.05,276.185
668,1715533786260,-1.49,-1.58,0.74,125.85,-29.24,248.9
669,1715533786270,-1.49,-1.58,0.7399999999999999,125.84999999999998,-29.24,248.9
670,1715533786280,-1.49,-1.58,0.7399999999999999,125.84999999999998,-29.24,248.9
671,1715533786290,-1.38,-1.465,0.6,125.85,-29.24,248.9
672,1715533786300,-1.27,-1.3500000000000003,0.46,161.09,-33.18666666666666,224.24
673,1715533786310,-1.27,-1.3500000000000003,0.46,178.71,-35.16,211.91
674,1715533786320,-1.27,-1.35,0.46,178.71,-35.16,211.91
675,1715533786330,0.2233333333333333,-1.3166666666666667,-0.026666666666666672,184.85666666666668,-102.33999999999999,240.92333333333332
676,1715533786340,0.9700000000000001,-1.3,-0.27,187.92999999999998,-135.93,255.42999999999998
677,1715533786350,0.97,-1.3,-0.27,187.93,-135.93,255.43
678,1715533786360,0.97,-1.3,-0.27,187.93,-135.93,255.43
679,1715533786370,2.73,-0.9400000000000001,-1.2166666666666666,186.71,59.916666666666664,269.83666666666664
680,1715533786380,3.61,-0.76,-1.69,186.1,157.84,277.04
681,1715533786390,3.61,-0.76,-1.69,186.1,157.84,277.04
682,1715533786400,3.61,-0.7600000000000001,-1.6900000000000002,186.1,157.84,277.04
683,1715533786410,4.01,-0.57,-2.35,33.08,-34.36,54.81
684,1715533786420,4.01,-0.57,-2.35,33.08,-34.36,54.81
685,1715533786430,4.01,-0.57,-2.35,33.08,-34.36,54.81
686,1715533786440,4.01,-0.57,-2.35,33.08,-34.36,54.81
687,1715533786450,4.01,-0.57,-2.35,33.08,-34.36,54.81
688,1715533786460,4.01,-0.57,-2.35,33.08,-34.36,54.81
689,1715533786470,4.01,-0.57,-2.35,33.08,-34.36,54.81
690,1715533786480,4.01,-0.57,-2.35,33.08,-34.36,54.81
691,1715533786490,4.01,-0.57,-2.35,33.08,-34.36,54.81
692,1715533786500,4.01,-0.57,-2.35,33.08,-34.36,54.81
693,1715533786510,4.01,-0.57,-2.35,33.08,-34.36,54.81
694,1715533786520,4.01,-0.57,-2.35,33.08,-34.36,54.81
695,1715533786530,4.01,-0.57,-2.35,33.08,-34.36,54.81
696,1715533786540,1.7049999999999998,-1.49,-1.6400000000000001,18.064999999999998,60.63999999999999,-205.87
697,1715533786550,-0.6,-2.41,-0.93,3.05,155.64,-466.55
698,1715533786560,-2.1825,-2.26,-0.51,-28.380000000000003,157.745,-484.46500000000003
699,1715533786570,-2.7099999999999995,-2.21,-0.36999999999999994,-59.81,159.85,-502.37999999999994
700,1715533786580,-2.71,-2.21,-0.37,-59.81,159.85,-502.38
701,1715533786590,-2.71,-2.21,-0.37,-59.81,159.85,-502.38
702,1715533786600,-2.98,-1.955,0.22249999999999998,-90.17500000000001,120.4825,-487.67
703,1715533786610,-3.07,-1.87,0.42,-181.27,2.38,-443.54
704,1715533786620,-3.07,-1.87,0.42,-181.27,2.38,-443.54
705,1715533786630,-3.07,-1.87,0.42,-181.27,2.38,-443.54
706,1715533786640,-3.07,-1.87,0.42,-181.27,2.38,-443.54
707,1715533786650,-3.07,-1.87,0.42,-181.27,2.38,-443.54
708,1715533786660,-3.07,-1.87,0.42,-181.27,2.38,-443.54
709,1715533786670,-3.07,-1.87,0.42,-181.27,2.38,-443.54
710,1715533786680,-3.07,-1.87,0.42,-181.27,2.38,-443.54
711,1715533786690,-3.07,-1.87,0.42,-181.27,2.38,-443.54
712,1715533786700,-3.07,-1.87,0.42,-181.27,2.38,-443.54
713,1715533786710,-3.07,-1.87,0.42,-181.27,2.38,-443.54
714,1715533786720,-3.07,-1.87,0.42,-181.27,2.38,-443.54
715,1715533786730,-1.14,-1.54,0.64,-256.65,46.080000000000005,-276.98
716,1715533786740,-1.14,-1.54,0.64,-256.65,46.080000000000005,-276.98
717,1715533786750,-1.095,-1.5899999999999999,0.605,-266.23249999999996,40.51,-283.38750000000005
718,1715533786760,-1.05,-1.64,0.57,-294.98,23.8,-302.61
719,1715533786770,-1.05,-1.64,0.57,-294.98,23.8,-302.61
720,1715533786780,-1.05,-1.64,0.57,-294.98,23.8,-302.61
721,1715533786790,-1.3966666666666667,-1.7733333333333334,0.77,-294.98,23.8,-302.61
722,1715533786800,-1.57,-1.84,0.87,-339.48,-34.36,-354.0
723,1715533786810,-1.57,-1.84,0.87,-339.48,-34.36,-354.0
724,1715533786820,-1.57,-1.84,0.87,-339.48,-34.36,-354.0
725,1715533786830,-1.71,-1.5775000000000001,1.08,-326.90500000000003,-2.759999999999998,-337.17
726,1715533786840,-2.13,-0.79,1.71,-289.18,92.04,-286.68
727,1715533786850,-2.13,-0.79,1.71,-289.18,92.04,-286.68
728,1715533786860,-2.13,-0.79,1.71,-289.18,92.04,-286.68
729,1715533786870,-3.14,-0.25,2.91,-219.175,70.985,-301.88
730,1715533786880,-4.15,0.29,4.11,-149.17,49.93,-317.08
731,1715533786890,-4.15,0.29,4.11,-149.17,49.93,-317.08
732,1715533786900,-4.15,0.29,4.11,-149.17,49.93,-317.08
733,1715533786910,-7.32,0.44,3.24,-113.28249999999998,85.1625,-230.71499999999997
734,1715533786920,-7.32,0.44,3.24,-5.62,190.86,28.38
735,1715533786930,-7.32,0.44,3.24,-5.62,190.86,28.38
736,1715533786940,-6.7125,-0.195,3.335,-5.62,190.86,28.38
737,1715533786950,-4.89,-2.1,3.62,-70.07,-315.8,146.79
738,1715533786960,-4.89,-2.1,3.6199999999999997,-70.07,-315.8,146.79
739,1715533786970,-4.89,-2.1,3.62,-70.07,-315.8,146.79
740,1715533786980,-4.89,-2.1,3.6199999999999997,-70.07,-315.8,146.79
741,1715533786990,-4.89,-2.1,3.62,-70.07,-315.8,146.79
742,1715533787000,-4.89,-2.1,3.6199999999999997,-70.07,-315.8,146.79
743,1715533787010,-4.89,-2.1,3.6199999999999997,-70.07,-315.8,146.79
744,1715533787020,-4.89,-2.1,3.62,-70.07,-315.8,146.79
745,1715533787030,-4.89,-2.1,3.62,-70.07,-315.8,146.79
746,1715533787040,-4.89,-2.1,3.6199999999999997,-70.07,-315.8,146.79
747,1715533787050,-4.89,-2.1,3.6199999999999997,-70.07,-315.8,146.79
748,1715533787060,-2.8433333333333333,-1.4866666666666666,1.9466666666666665,150.95666666666668,-180.62666666666667,204.73
749,1715533787070,-1.82,-1.18,1.11,323.06,-112.43,294.37
750,1715533787080,-1.82,-1.18,1.11,323.06,-112.43,294.37
751,1715533787090,-1.82,-1.18,1.11,323.06,-112.43,294.37
752,1715533787100,-1.655,-1.48,0.845,335.08500000000004,-128.36,334.5
753,1715533787110,-1.49,-1.78,0.58,347.10999999999996,-144.29,374.62999999999994
754,1715533787120,-1.49,-1.78,0.58,347.11,-144.29,374.63
755,1715533787130,-1.49,-1.78,0.58,347.10999999999996,-144.29,374.62999999999994
756,1715533787140,-1.1966666666666665,-1.9333333333333333,0.56,325.05333333333334,-152.01999999999998,375.8533333333333
757,1715533787150,-1.05,-2.01,0.55,280.94,-167.48,378.3
758,1715533787160,-1.05,-2.01,0.55,280.94,-167.48,378.3
759,1715533787170,-1.05,-2.01,0.55,280.94,-167.48,378.3
760,1715533787180,-1.05,-2.01,0.55,280.94,-167.48,378.3
761,1715533787190,-1.05,-2.01,0.55,280.94,-167.48,378.3
762,1715533787200,-1.05,-2.01,0.55,280.94,-167.48,378.3
763,1715533787210,-1.05,-2.01,0.55,280.94,-167.48,378.3
764,1715533787220,-1.05,-2.01,0.55,280.94,-167.48,378.3
765,1715533787230,-1.05,-2.01,0.55,280.94,-167.48,378.3
766,1715533787240,-1.05,-2.01,0.55,280.94,-167.48,378.3
767,1715533787250,-1.05,-2.01,0.55,280.94,-167.48,378.3
768,1715533787260,-1.05,-2.01,0.55,280.94,-167.48,378.3
769,1715533787270,-1.05,-1.7049999999999998,0.645,267.78999999999996,-86.395,336.46000000000004
770,1715533787280,-1.05,-1.4,0.74,254.64,-5.31,294.62
771,1715533787290,-1.32,-1.2799999999999998,0.58,230.52999999999997,-13.825,288.395
772,1715533787300,-1.59,-1.16,0.42,206.42,-22.34,282.17
773,1715533787310,-1.59,-1.16,0.42,206.42,-22.34,282.17
774,1715533787320,-1.59,-1.16,0.42,206.42,-22.34,282.17
775,1715533787330,-1.115,-1.2,0.11499999999999999,204.20749999999998,-26.155,275.3175
776,1715533787340,-0.64,-1.24,-0.19000000000000003,197.57000000000002,-37.6,254.76
777,1715533787350,-0.64,-1.24,-0.19000000000000003,197.57000000000002,-37.6,254.76
778,1715533787360,-0.64,-1.24,-0.19,197.57,-37.6,254.76
779,1715533787370,1.13,-1.07,-0.7999999999999999,155.915,-18.435000000000002,223.08499999999998
780,1715533787380,2.9,-0.9,-1.41,114.26,0.73,191.41
781,1715533787390,2.9,-0.9,-1.41,114.26,0.73,191.41
782,1715533787400,2.9,-0.9,-1.41,114.26,0.73,191.41
783,1715533787410,3.2075,-0.9525,-1.7925,94.25750000000001,121.07499999999999,62.8675
784,1715533787420,3.31,-0.9700000000000001,-1.92,87.58999999999999,161.19,20.02
785,1715533787430,3.31,-0.9700000000000001,-1.92,87.58999999999999,161.19,20.02
786,1715533787440,3.4299999999999997,-0.9533333333333333,-1.9866666666666666,54.303333333333335,99.97333333333334,-22.643333333333334
787,1715533787450,3.67,-0.92,-2.12,-12.27,-22.46,-107.97
788,1715533787460,3.67,-0.92,-2.12,-12.270000000000001,-22.459999999999997,-107.96999999999998
789,1715533787470,3.67,-0.92,-2.12,-12.27,-22.46,-107.97
790,1715533787480,4.03,-0.9466666666666667,-1.8399999999999999,-51.00333333333333,-62.01333333333334,-136.09
791,1715533787490,4.21,-0.96,-1.7,-70.37,-81.79,-150.15
792,1715533787500,4.21,-0.96,-1.7,-70.37,-81.79,-150.15
793,1715533787510,4.21,-0.96,-1.7,-70.37,-81.79,-150.15
794,1715533787520,4.21,-0.96,-1.7,-70.37,-81.79,-150.15
795,1715533787530,4.21,-0.96,-1.7,-70.37,-81.79,-150.15
796,1715533787540,4.21,-0.96,-1.7,-70.37,-81.79,-150.15
797,1715533787550,4.21,-0.96,-1.7,-70.37,-81.79,-150.15
798,1715533787560,4.21,-0.96,-1.7,-70.37,-81.79,-150.15
799,1715533787570,4.21,-0.96,-1.7,-70.37,-81.79,-150.15
800,1715533787580,2.41,-1.55,-1.43,-63.29,10.843333333333334,-281.3533333333333
801,1715533787590,-1.19,-2.73,-0.89,-49.13,196.11,-543.76
802,1715533787600,-3.36,-2.9,0.16,-62.225,170.79,-528.9775
803,1715533787610,-3.36,-2.9,0.16,-66.59,162.35,-524.05
804,1715533787620,-3.36,-2.9,0.16,-66.59,162.35,-524.05
805,1715533787630,-3.36,-2.9,0.16,-66.59,162.35,-524.05
806,1715533787640,-3.56,-2.31,0.37,-108.03,23.32,-468.14
807,1715533787650,-3.56,-2.31,0.36999999999999994,-108.03000000000002,23.320000000000004,-468.14000000000004
808,1715533787660,-3.56,-2.31,0.37,-108.03,23.32,-468.14
809,1715533787670,-3.56,-2.31,0.36999999999999994,-108.03000000000002,23.320000000000004,-468.14000000000004
810,1715533787680,-2.06,-1.92,0.82,-223.95666666666668,-184.11999999999998,-456.6266666666667
811,1715533787690,-2.06,-1.92,0.82,-281.92,-287.84,-450.87000000000006
812,1715533787700,-2.06,-1.92,0.82,-281.92,-287.84,-450.87000000000006
813,1715533787710,-2.06,-1.92,0.82,-281.92,-287.84,-450.87000000000006
814,1715533787720,-2.06,-1.92,0.82,-281.92,-287.84,-450.87
815,1715533787730,-2.06,-1.92,0.82,-281.92,-287.84,-450.87000000000006
816,1715533787740,-2.06,-1.92,0.82,-281.92,-287.84,-450.87000000000006
817,1715533787750,-2.06,-1.92,0.82,-281.92,-287.84,-450.87000000000006
818,1715533787760,-2.06,-1.92,0.82,-281.92,-287.84,-450.87000000000006
819,1715533787770,-2.06,-1.92,0.82,-281.92,-287.84,-450.87000000000006
820,1715533787780,-1.36,-1.59,0.61,-195.13,110.46999999999998,-288.21
821,1715533787790,-1.2000000000000002,-1.51,0.8166666666666668,-228.25,-24.903333333333336,-362.59
822,1715533787800,-1.12,-1.47,0.92,-244.81000000000003,-92.58999999999999,-399.78
823,1715533787810,-1.12,-1.47,0.92,-244.81000000000003,-92.58999999999999,-399.78
824,1715533787820,-1.12,-1.47,0.92,-244.81000000000003,-92.58999999999999,-399.78
825,1715533787830,-1.3025000000000002,-1.3825,1.0350000000000001,-227.23250000000002,-54.6425,-393.95
826,1715533787840,-1.8500000000000003,-1.12,1.38,-174.5,59.20000000000001,-376.46
827,1715533787850,-1.85,-1.12,1.38,-174.5,59.2,-376.46
828,1715533787860,-2.4075,-0.8650000000000001,1.4575,-146.545,79.9825,-364.92499999999995
829,1715533787870,-4.08,-0.10000000000000002,1.6900000000000002,-62.68,142.33,-330.32
830,1715533787880,-4.08,-0.10000000000000002,1.6900000000000002,-62.68,142.33,-330.32
831,1715533787890,-4.08,-0.10000000000000002,1.6900000000000002,-62.68,142.33,-330.32
832,1715533787900,-4.623333333333334,0.19000000000000003,1.7599999999999998,-75.17333333333333,14.706666666666678,-293.66
833,1715533787910,-5.71,0.77,1.8999999999999997,-100.16000000000001,-240.54,-220.34
834,1715533787920,-5.71,0.77,1.9,-100.16,-240.54,-220.34
835,1715533787930,-5.71,0.77,1.8999999999999997,-100.16000000000001,-240.54,-220.34
836,1715533787940,-5.966666666666666,-0.13999999999999999,2.313333333333333,-100.16000000000001,-240.54,-220.34
837,1715533787950,-6.48,-1.96,3.14,-58.96,-101.26,56.64
838,1715533787960,-6.48,-1.96,3.14,-58.96,-101.26,56.64
839,1715533787970,-6.48,-1.96,3.14,-58.96,-101.26,56.64000000000001
840,1715533787980,-6.48,-1.96,3.14,-58.96,-101.26,56.64
841,1715533787990,-3.92,-2.65,1.9400000000000002,5.62,-75.81,313.6
842,1715533788000,-3.92,-2.65,1.9400000000000002,5.62,-75.81,313.6
843,1715533788010,-3.92,-2.65,1.94,5.62,-75.81,313.6
844,1715533788020,-3.92,-2.65,1.94,5.62,-75.81,313.6
845,1715533788030,-3.92,-2.65,1.9400000000000002,5.62,-75.81,313.6
846,1715533788040,-3.92,-2.65,1.9400000000000002,5.62,-75.81,313.6
847,1715533788050,-3.92,-2.65,1.9400000000000002,5.62,-75.81,313.6
848,1715533788060,-3.92,-2.65,1.9400000000000002,5.62,-75.81,313.6
849,1715533788070,-3.92,-2.65,1.9400000000000002,5.62,-75.81,313.6
850,1715533788080,-3.92,-2.65,1.9400000000000002,5.62,-75.81,313.6
851,1715533788090,-3.92,-2.65,1.9400000000000002,5.62,-75.81,313.6
852,1715533788100,-3.92,-2.65,1.9400000000000002,5.62,-75.81,313.6
853,1715533788110,-2.3899999999999997,-1.2975,0.9825,254.7125,-154.2625,316.5575
854,1715533788120,-2.26,-1.05,0.67,281.98,-134.64,362.06
855,1715533788130,-2.26,-1.05,0.67,281.98,-134.64,362.06
856,1715533788140,-1.9,-1.47,0.39,246.685,-191.22,414.89
857,1715533788150,-1.9,-1.47,0.39,234.92,-210.08,432.5
858,1715533788160,-1.9,-1.47,0.39,234.92,-210.08,432.5
859,1715533788170,-1.6733333333333331,-1.7066666666666668,0.39666666666666667,223.95666666666668,-228.84,439.2133333333333
860,1715533788180,-1.22,-2.18,0.41,202.03,-266.36,452.64
861,1715533788190,-1.22,-2.18,0.41,202.03,-266.36,452.64000000000004
862,1715533788200,-1.22,-2.18,0.41,202.03,-266.36,452.64000000000004
863,1715533788210,-1.07,-2.21,0.5,184.14499999999998,-175.17000000000002,412.57
864,1715533788220,-0.92,-2.24,0.59,166.26,-83.98,372.5
865,1715533788230,-0.92,-2.24,0.59,166.26,-83.98,372.5
866,1715533788240,-0.92,-2.24,0.59,166.26,-83.98,372.5
867,1715533788250,-0.92,-2.24,0.59,166.26,-83.98,372.5
868,1715533788260,-0.92,-2.24,0.59,166.26,-83.98,372.5
869,1715533788270,-0.92,-2.24,0.59,166.26,-83.98,372.5
870,1715533788280,-0.92,-2.24,0.59,166.26,-83.98,372.5
871,1715533788290,-0.92,-2.24,0.59,166.26,-83.98,372.5
872,1715533788300,-2.22,-2.39,0.36000000000000004,245.61,22.16,347.23
873,1715533788310,-2.22,-2.39,0.36000000000000004,245.61,22.16,347.23
874,1715533788320,-2.2575000000000003,-2.3275,0.16749999999999998,229.54250000000002,-2.4224999999999994,356.445
875,1715533788330,-2.37,-2.14,-0.41,181.34,-76.17,384.09
876,1715533788340,-2.37,-2.14,-0.41,181.34,-76.17,384.09
877,1715533788350,-2.37,-2.14,-0.41,181.34,-76.17,384.09
878,1715533788360,-2.37,-2.14,-0.41,181.34,-76.17,384.09
879,1715533788370,0.6999999999999998,-1.86,-0.7600000000000001,78.86,-253.05000000000004,315.31
880,1715533788380,0.7,-1.86,-0.76,78.86,-253.05,315.31
881,1715533788390,0.6999999999999998,-1.86,-0.7600000000000001,78.86,-253.05000000000004,315.31
882,1715533788400,1.04,-1.55,-1.1466666666666667,78.86,-253.05000000000004,315.31
883,1715533788410,1.72,-0.93,-1.92,70.07,-91.98,295.04
884,1715533788420,1.72,-0.93,-1.92,70.07,-91.98,295.04
885,1715533788430,1.72,-0.93,-1.92,70.07,-91.98,295.04
886,1715533788440,2.3775,-0.9925,-2.1025,72.0375,-92.0875,262.3575
887,1715533788450,4.35,-1.18,-2.65,77.94,-92.41,164.31
888,1715533788460,4.35,-1.18,-2.65,77.94,-92.41,164.31
889,1715533788470,4.35,-1.18,-2.65,77.94,-92.41000000000001,164.31
890,1715533788480,4.95,-0.73,-2.79,27.127499999999998,-30.1525,20.385
891,1715533788490,4.95,-0.73,-2.7900000000000005,10.19,-9.4,-27.59
892,1715533788500,4.95,-0.73,-2.79,10.19,-9.4,-27.59
893,1715533788510,4.95,-0.73,-2.7900000000000005,10.19,-9.4,-27.59
894,1715533788520,4.156666666666666,-0.9500000000000001,-2.5433333333333334,7.830000000000001,31.293333333333333,-157.02333333333334
895,1715533788530,3.76,-1.06,-2.42,6.650000000000001,51.64000000000001,-221.74
896,1715533788540,3.76,-1.06,-2.42,6.650000000000001,51.64000000000001,-221.74
897,1715533788550,3.76,-1.06,-2.42,6.650000000000001,51.64000000000001,-221.74
898,1715533788560,3.76,-1.06,-2.42,6.650000000000001,51.64000000000001,-221.74
899,1715533788570,3.76,-1.06,-2.42,6.65,51.64,-221.74
900,1715533788580,3.76,-1.06,-2.42,6.650000000000001,51.64000000000001,-221.74
901,1715533788590,3.76,-1.06,-2.42,6.65,51.64,-221.74
902,1715533788600,3.76,-1.06,-2.42,6.650000000000001,51.64000000000001,-221.74
903,1715533788610,3.76,-1.06,-2.42,6.650000000000001,51.64000000000001,-221.74
904,1715533788620,3.76,-1.06,-2.42,6.650000000000001,51.64000000000001,-221.74
905,1715533788630,1.67,-1.42,-1.5633333333333332,-21.180000000000003,107.77,-275.67333333333335
906,1715533788640,-2.51,-2.14,0.15,-66.46666666666667,250.91666666666666,-379.8
907,1715533788650,-2.51,-2.14,0.15,-61.28,266.36,-377.93
908,1715533788660,-2.51,-2.14,0.15,-61.28,266.36,-377.93
909,1715533788670,-2.4433333333333334,-1.9466666666666665,0.17666666666666667,-73.89333333333333,156.62,-382.24333333333334
910,1715533788680,-2.41,-1.85,0.19,-80.2,101.75,-384.4
911,1715533788690,-2.41,-1.8500000000000003,0.19000000000000003,-80.2,101.75,-384.3999999999999
912,1715533788700,-2.41,-1.85,0.19,-80.2,101.75,-384.4
913,1715533788710,-2.07,-1.8233333333333335,0.25,-134.48,41.52333333333333,-400.1466666666667
914,1715533788720,-1.9,-1.81,0.28,-161.62,11.41,-408.02
915,1715533788730,-1.9,-1.81,0.28,-161.62,11.41,-408.02
916,1715533788740,-1.8999999999999997,-1.8099999999999998,0.28,-161.62,11.410000000000002,-408.02
917,1715533788750,-1.9,-1.81,0.28,-161.62,11.41,-408.02
918,1715533788760,-1.8999999999999997,-1.8099999999999998,0.28,-161.62,11.410000000000002,-408.02
919,1715533788770,-1.8999999999999997,-1.8099999999999998,0.28,-161.62,11.410000000000002,-408.02
920,1715533788780,-1.8999999999999997,-1.8099999999999998,0.28,-161.62,11.410000000000002,-408.02
921,1715533788790,-1.8999999999999997,-1.8099999999999998,0.28,-161.62,11.410000000000002,-408.02
922,1715533788800,-1.8999999999999997,-1.8099999999999998,0.28,-161.62,11.410000000000002,-408.02
923,1715533788810,-1.8999999999999997,-1.8099999999999998,0.28,-161.62,11.410000000000002,-408.02
924,1715533788820,-1.8933333333333333,-1.76,0.3866666666666667,-188.67999999999998,23.11,-398.7833333333333
925,1715533788830,-1.76,-1.5599999999999998,0.87,-271.61,-38.88,-415.34
926,1715533788840,-1.76,-1.5599999999999998,0.87,-271.61,-38.88,-415.34
927,1715533788850,-1.76,-1.56,0.87,-271.61,-38.88,-415.34
928,1715533788860,-1.76,-1.5599999999999998,0.87,-271.61,-38.88,-415.34
929,1715533788870,-1.7299999999999998,-1.12,1.14,-267.58,-97.66000000000001,-367.49
930,1715533788880,-1.7299999999999998,-1.12,1.14,-267.58,-97.66000000000001,-367.49
931,1715533788890,-1.73,-1.12,1.14,-267.58,-97.66,-367.49
932,1715533788900,-2.0833333333333335,-0.6933333333333334,1.3533333333333333,-223.73666666666668,-4.723333333333329,-328.0833333333333
933,1715533788910,-2.7900000000000005,0.16,1.78,-136.05,181.15,-249.27
934,1715533788920,-2.79,0.16,1.78,-136.05,181.15,-249.27
935,1715533788930,-2.79,0.16,1.78,-136.05,181.15,-249.27
936,1715533788940,-3.7699999999999996,0.19333333333333333,2.9,-240.33666666666667,-3.089999999999994,-227.21666666666667
937,1715533788950,-4.26,0.21,3.46,-292.48,-95.21,-216.19
938,1715533788960,-4.26,0.21,3.4599999999999995,-292.48,-95.21,-216.18999999999997
939,1715533788970,-4.26,0.21,3.46,-292.48,-95.21,-216.19
940,1715533788980,-5.593333333333334,-0.45,3.813333333333334,40.48666666666666,246.46333333333337,-50.98333333333333
941,1715533788990,-6.26,-0.78,3.99,206.97,417.3,31.62
942,1715533789000,-6.260000000000001,-0.7799999999999999,3.99,206.97,417.3,31.62
943,1715533789010,-6.260000000000001,-0.7799999999999999,3.99,206.97,417.3,31.62
944,1715533789020,-5.57,-0.6825,2.9475000000000002,206.97,417.3,31.62
945,1715533789030,-5.34,-0.65,2.6,75.93,-45.04,91.86
946,1715533789040,-5.34,-0.65,2.6,75.93,-45.04,91.86
947,1715533789050,-5.34,-0.65,2.6,75.93,-45.04,91.86
948,1715533789060,-3.24,-0.54,2.07,199.28,-73.24,207.4
949,1715533789070,-3.24,-0.54,2.07,199.28,-73.24,207.4
950,1715533789080,-3.24,-0.54,2.07,199.28,-73.24,207.4
951,1715533789090,-3.24,-0.54,2.07,199.28,-73.24,207.4
952,1715533789100,-3.24,-0.54,2.07,199.28,-73.24,207.4
953,1715533789110,-3.24,-0.54,2.07,199.28,-73.24,207.4
954,1715533789120,-3.24,-0.54,2.07,199.28,-73.24,207.4
955,1715533789130,-3.24,-0.54,2.07,199.28,-73.24,207.4
956,1715533789140,-3.24,-0.54,2.07,199.28,-73.24,207.4
957,1715533789150,-3.24,-0.54,2.07,199.28,-73.24,207.4
958,1715533789160,-2.01,-0.83,0.72,273.44,-93.81,358.22
959,1715533789170,-1.9266666666666665,-1.07,0.6,272.42333333333335,-91.12333333333333,386.15333333333336
960,1715533789180,-1.76,-1.55,0.36000000000000004,270.39,-85.75,442.02
961,1715533789190,-1.76,-1.55,0.36000000000000004,270.39,-85.75,442.02
962,1715533789200,-1.76,-1.55,0.36000000000000004,270.39,-85.75,442.02
963,1715533789210,-1.76,-1.55,0.36000000000000004,270.39,-85.75,442.02
964,1715533789220,-1.6499999999999997,-1.88,0.4000000000000001,170.78,-117.55,471.74
965,1715533789230,-1.6499999999999997,-1.88,0.4000000000000001,170.78,-117.55,471.74
966,1715533789240,-1.6499999999999997,-1.88,0.4000000000000001,170.78,-117.55,471.74
967,1715533789250,-1.4166666666666667,-1.96,0.64,175.27666666666667,-100.68666666666667,458.41333333333336
968,1715533789260,-1.3,-2.0,0.7600000000000001,184.27,-66.96,431.76
969,1715533789270,-1.3,-2.0,0.7600000000000001,184.27,-66.96,431.76
970,1715533789280,-1.3,-2.0,0.76,184.27,-66.96,431.76
971,1715533789290,-1.3,-2.0,0.76,184.27,-66.96,431.76
972,1715533789300,-1.3,-2.0,0.7600000000000001,184.27,-66.96,431.76
973,1715533789310,-1.3,-2.0,0.7600000000000001,184.27,-66.96,431.76
974,1715533789320,-1.3,-2.0,0.76,184.27,-66.96,431.76
975,1715533789330,-1.3,-2.0,0.76,184.27,-66.96,431.76
976,1715533789340,-1.3,-2.0,0.76,184.27,-66.96,431.76
977,1715533789350,-1.5199999999999998,-1.5733333333333335,0.6066666666666667,144.51,-80.46666666666665,364.9466666666667
978,1715533789360,-1.63,-1.36,0.53,124.63,-87.21999999999998,331.54
979,1715533789370,-1.63,-1.36,0.53,124.63,-87.21999999999998,331.54
980,1715533789380,-0.89,-1.24,0.38,138.61,-104.19,319.03
981,1715533789390,-0.89,-1.24,0.38000000000000006,138.61,-104.19,319.03
982,1715533789400,-0.5733333333333334,-1.28,0.11,114.86666666666667,-93.42666666666666,304.4433333333333
983,1715533789410,0.06,-1.36,-0.43,67.38,-71.9,275.27
984,1715533789420,0.06,-1.36,-0.43,67.38,-71.9,275.27
985,1715533789430,0.06,-1.36,-0.43,67.38,-71.9,275.27
986,1715533789440,1.5599999999999998,-0.9666666666666668,-0.8166666666666668,143.84,107.99333333333334,260.01
987,1715533789450,2.31,-0.77,-1.01,182.07,197.94,252.38
988,1715533789460,2.31,-0.77,-1.01,182.07000000000002,197.93999999999997,252.38
989,1715533789470,2.31,-0.77,-1.01,182.07000000000002,197.93999999999997,252.38
990,1715533789480,3.0700000000000003,-1.045,-1.165,105.045,149.17000000000002,140.565
991,1715533789490,3.83,-1.32,-1.32,28.02,100.40000000000002,28.75
992,1715533789500,3.83,-1.32,-1.32,28.02,100.4,28.75
993,1715533789510,3.893333333333333,-1.1233333333333333,-1.2033333333333334,19.349999999999998,85.06,6.9799999999999995
994,1715533789520,4.02,-0.73,-0.9700000000000001,2.01,54.38,-36.56
995,1715533789530,4.02,-0.73,-0.97,2.01,54.38,-36.56
996,1715533789540,4.02,-0.73,-0.9700000000000001,2.01,54.38,-36.56
997,1715533789550,3.853333333333333,-0.9566666666666667,-0.86,36.169999999999995,83.53666666666668,-63.25333333333333
998,1715533789560,3.52,-1.41,-0.64,104.49,141.85,-116.64
999,1715533789570,3.52,-1.41,-0.64,104.49,141.85,-116.64
1000,1715533789580,3.52,-1.41,-0.64,104.49,141.85,-116.64
1001,1715533789590,3.52,-1.41,-0.64,104.49,141.85,-116.64
1002,1715533789600,3.52,-1.41,-0.64,104.49,141.85,-116.64
1003,1715533789610,3.52,-1.41,-0.64,104.49,141.85,-116.64
1004,1715533789620,3.52,-1.41,-0.64,104.49,141.85,-116.64
1005,1715533789630,3.52,-1.41,-0.64,104.49,141.85,-116.64
1006,1715533789640,3.52,-1.41,-0.64,104.49,141.85,-116.64
1007,1715533789650,3.52,-1.41,-0.64,104.49,141.85,-116.64
1008,1715533789660,3.52,-1.41,-0.64,104.49,141.85,-116.64
1009,1715533789670,3.52,-1.41,-0.64,104.49,141.85,-116.64
1010,1715533789680,-0.20666666666666655,-1.3633333333333333,-0.3466666666666667,46.26333333333333,70.72333333333333,-312.4
1011,1715533789690,-2.07,-1.34,-0.2,17.15,35.16,-410.28
1012,1715533789700,-2.07,-1.34,-0.20000000000000004,17.15,35.16,-410.28
1013,1715533789710,-2.3033333333333332,-1.2866666666666668,-0.06666666666666667,-43.68333333333333,-28.60666666666667,-407.1466666666667
1014,1715533789720,-2.42,-1.26,0.0,-74.1,-60.49,-405.58
1015,1715533789730,-2.42,-1.26,0.0,-74.1,-60.49,-405.58
1016,1715533789740,-2.42,-1.26,0.0,-74.1,-60.49,-405.58
1017,1715533789750,-1.71,-1.46,0.4000000000000001,-218.79333333333332,-224.75,-508.11999999999995
1018,1715533789760,-1.71,-1.46,0.4,-291.14,-306.88,-559.39
1019,1715533789770,-1.71,-1.46,0.4,-291.14,-306.88,-559.39
1020,1715533789780,-1.71,-1.46,0.4,-291.14,-306.88,-559.39
1021,1715533789790,-1.06,-1.83,1.12,-291.14,-306.88,-559.39
1022,1715533789800,-1.06,-1.83,1.12,-291.14,-306.88,-559.39
1023,1715533789810,-1.06,-1.83,1.12,-291.14,-306.88,-559.39
1024,1715533789820,-1.06,-1.83,1.12,-291.14,-306.88,-559.39
1025,1715533789830,-1.06,-1.83,1.12,-291.14,-306.88,-559.39
1026,1715533789840,-1.06,-1.83,1.12,-291.14,-306.88,-559.39
1027,1715533789850,-1.06,-1.83,1.12,-291.14,-306.88,-559.39
1028,1715533789860,-1.06,-1.83,1.12,-291.14,-306.88,-559.39
1029,1715533789870,-1.27,-1.59,1.01,-273.71500000000003,-197.995,-463.075
1030,1715533789880,-1.4799999999999998,-1.3500000000000003,0.9,-256.29,-89.11,-366.76
1031,1715533789890,-1.48,-1.35,0.9,-256.29,-89.11,-366.76
1032,1715533789900,-1.4000000000000001,-1.2566666666666666,1.2866666666666666,-157.25,72.26333333333332,-346.2133333333333
1033,1715533789910,-1.36,-1.21,1.4799999999999998,-107.73,152.95,-335.94
1034,1715533789920,-1.36,-1.21,1.48,-107.73,152.95,-335.94
1035,1715533789930,-1.36,-1.21,1.4799999999999998,-107.73,152.95,-335.94
1036,1715533789940,-2.393333333333333,-0.5133333333333333,1.36,-100.85333333333334,110.28666666666665,-340.66
1037,1715533789950,-4.46,0.88,1.12,-87.1,24.96,-350.1
1038,1715533789960,-4.46,0.88,1.12,-87.1,24.96,-350.1
1039,1715533789970,-4.46,0.88,1.12,-87.09999999999998,24.959999999999997,-350.1000000000001
1040,1715533789980,-5.036666666666666,1.0466666666666666,1.6333333333333335,-65.49333333333333,53.71,-275.0466666666667
1041,1715533789990,-6.19,1.38,2.66,-22.28,111.21,-124.94
1042,1715533790000,-6.19,1.38,2.66,-22.28,111.21,-124.94
1043,1715533790010,-6.19,1.38,2.66,-22.28,111.21,-124.94
1044,1715533790020,-7.28,0.75,1.29,74.39999999999999,61.97,-16.66
1045,1715533790030,-7.28,0.75,1.29,122.74,37.35,37.48
1046,1715533790040,-7.28,0.75,1.29,122.74,37.35,37.48
1047,1715533790050,-7.28,0.75,1.29,122.74,37.35,37.48
1048,1715533790060,-5.489999999999999,-0.5,1.59,-59.51,-103.52,247.25
1049,1715533790070,-5.489999999999999,-0.5,1.59,-59.51,-103.52,247.25
1050,1715533790080,-5.489999999999999,-0.5,1.59,-59.51,-103.52,247.25
1051,1715533790090,-4.865,-0.52,1.5375,-59.51,-103.52,247.25
1052,1715533790100,-2.99,-0.58,1.38,75.44,-147.71,275.76
1053,1715533790110,-2.99,-0.58,1.38,75.44,-147.71,275.76
1054,1715533790120,-2.99,-0.58,1.38,75.44,-147.71,275.76
1055,1715533790130,-2.99,-0.58,1.38,75.44,-147.71,275.76
1056,1715533790140,-2.99,-0.58,1.38,75.44,-147.71,275.76
1057,1715533790150,-2.99,-0.58,1.38,75.44,-147.71,275.76
1058,1715533790160,-2.99,-0.58,1.38,75.44,-147.71,275.76
1059,1715533790170,-2.99,-0.58,1.38,75.44,-147.71,275.76
1060,1715533790180,-2.99,-0.58,1.38,75.44,-147.71,275.76
1061,1715533790190,-2.99,-0.58,1.38,75.44,-147.71,275.76
1062,1715533790200,-2.72,-0.645,1.14,100.555,-115.4825,320.7725
1063,1715533790210,-1.8366666666666667,-1.38,0.26666666666666666,128.25333333333333,-41.14,476.07666666666665
1064,1715533790220,-1.8,-1.65,0.19,104.43,-52.31,486.21
1065,1715533790230,-1.8,-1.6499999999999997,0.19000000000000003,104.43,-52.31,486.21
1066,1715533790240,-1.8,-1.65,0.19,104.43,-52.31,486.21
1067,1715533790250,-1.46,-1.9400000000000002,0.42,77.53666666666668,-105.85666666666667,449.86999999999995
1068,1715533790260,-1.46,-1.9400000000000002,0.42,64.09,-132.63,431.7
1069,1715533790270,-1.46,-1.94,0.42,64.09,-132.63,431.7
1070,1715533790280,-1.46,-1.94,0.42,64.09,-132.63,431.7
1071,1715533790290,-1.5266666666666666,-1.7666666666666666,0.48666666666666664,107.42333333333333,-51.696666666666665,389.18
1072,1715533790300,-1.56,-1.68,0.52,129.09,-11.23,367.92
1073,1715533790310,-1.5599999999999998,-1.68,0.52,129.09,-11.229999999999999,367.92
1074,1715533790320,-1.56,-1.68,0.52,129.09,-11.23,367.92
1075,1715533790330,-1.5599999999999998,-1.68,0.52,129.09,-11.229999999999999,367.92
1076,1715533790340,-1.5599999999999998,-1.68,0.52,129.09,-11.229999999999999,367.92
1077,1715533790350,-1.56,-1.68,0.52,129.09,-11.23,367.92
1078,1715533790360,-1.5599999999999998,-1.68,0.52,129.09,-11.229999999999999,367.92
1079,1715533790370,-1.5599999999999998,-1.68,0.52,129.09,-11.229999999999999,367.92
1080,1715533790380,-1.5599999999999998,-1.68,0.52,129.09,-11.229999999999999,367.92
1081,1715533790390,-1.5599999999999998,-1.68,0.52,129.09,-11.229999999999999,367.92
1082,1715533790400,-1.7166666666666668,-1.2766666666666666,-0.20666666666666667,33.91333333333333,-15.846666666666664,391.0733333333333
1083,1715533790410,-1.55,-1.23,-0.38,-47.18,-67.32,381.96
1084,1715533790420,-1.55,-1.23,-0.38000000000000006,-47.18,-67.32,381.96
1085,1715533790430,-1.55,-1.23,-0.38000000000000006,-47.18,-67.32,381.96
1086,1715533790440,-1.55,-1.23,-0.38,-47.18,-67.32,381.96
1087,1715533790450,-0.09000000000000001,-1.3500000000000003,-0.48,-88.62,-208.18999999999997,313.9
1088,1715533790460,-0.09,-1.35,-0.48,-88.62,-208.19,313.9
1089,1715533790470,-0.09,-1.35,-0.48,-88.62,-208.19,313.9
1090,1715533790480,1.2366666666666666,-1.4966666666666668,-0.6366666666666666,-40.220000000000006,-187.29666666666665,297.26
1091,1715533790490,3.89,-1.79,-0.95,56.58,-145.51,263.98
1092,1715533790500,3.89,-1.79,-0.95,56.58,-145.51,263.98
1093,1715533790510,3.89,-1.79,-0.9499999999999998,56.580000000000005,-145.51,263.98
1094,1715533790520,4.37,-1.95,-1.59,4.03,-75.93,-2.75
1095,1715533790530,4.37,-1.95,-1.59,4.03,-75.93,-2.75
1096,1715533790540,4.37,-1.95,-1.59,4.03,-75.93,-2.75
1097,1715533790550,4.37,-1.95,-1.59,4.03,-75.93,-2.75
1098,1715533790560,4.21,-1.54,-1.85,23.86,-105.9,-163.33
1099,1715533790570,4.21,-1.54,-1.8500000000000003,23.86,-105.90000000000002,-163.33
1100,1715533790580,4.21,-1.54,-1.8500000000000003,23.86,-105.90000000000002,-163.33
1101,1715533790590,4.21,-1.54,-1.8500000000000003,23.86,-105.90000000000002,-163.33
1102,1715533790600,2.62,-1.71,-1.7700000000000002,93.2,75.93,-287.6
1103,1715533790610,2.62,-1.71,-1.7700000000000002,93.2,75.93,-287.6
1104,1715533790620,2.62,-1.71,-1.77,93.2,75.93,-287.6
1105,1715533790630,1.8133333333333335,-1.7566666666666666,-1.6166666666666665,79.40666666666667,98.24666666666667,-325.1166666666667
1106,1715533790640,0.2,-1.85,-1.31,51.82,142.88,-400.15
1107,1715533790650,0.2,-1.85,-1.31,51.82,142.88,-400.15
1108,1715533790660,0.2,-1.85,-1.31,51.82,142.88,-400.15
1109,1715533790670,0.2,-1.85,-1.31,51.82,142.88,-400.15
1110,1715533790680,0.20000000000000004,-1.8500000000000003,-1.31,51.82,142.88,-400.1499999999999
1111,1715533790690,0.2,-1.85,-1.31,51.82,142.88,-400.15
1112,1715533790700,0.20000000000000004,-1.8500000000000003,-1.31,51.82,142.88,-400.1499999999999
1113,1715533790710,0.2,-1.85,-1.31,51.82,142.88,-400.15
1114,1715533790720,0.2,-1.85,-1.31,51.82,142.88,-400.15
1115,1715533790730,-2.533333333333333,-1.9333333333333333,-0.16333333333333336,-133.32333333333335,75.82333333333334,-489.32
1116,1715533790740,-2.94,-1.96,0.02,-169.68,56.27,-490.54
1117,1715533790750,-2.7649999999999997,-1.94,0.24,-234.315,-18.249999999999996,-470.675
1118,1715533790760,-2.59,-1.92,0.46,-298.95,-92.77,-450.81
1119,1715533790770,-2.59,-1.92,0.46,-298.95,-92.77,-450.81
1120,1715533790780,-2.59,-1.92,0.46,-298.95,-92.77,-450.81
1121,1715533790790,-1.9366666666666668,-1.9666666666666668,0.6999999999999998,-324.1766666666667,-62.17666666666667,-392.8233333333333
1122,1715533790800,-1.61,-1.99,0.82,-336.79,-46.88,-363.83
1123,1715533790810,-1.61,-1.99,0.82,-336.79,-46.88,-363.83
1124,1715533790820,-1.61,-1.99,0.82,-336.79,-46.88,-363.83
1125,1715533790830,-1.4633333333333332,-1.9033333333333333,0.7799999999999999,-284.09666666666664,49.56,-323.99666666666667
1126,1715533790840,-1.39,-1.86,0.7600000000000001,-257.75,97.78000000000002,-304.08
1127,1715533790850,-1.39,-1.86,0.7600000000000001,-257.75,97.78000000000002,-304.08
1128,1715533790860,-1.39,-1.86,0.7600000000000001,-257.75,97.78000000000002,-304.08
1129,1715533790870,-1.39,-1.86,0.76,-257.75,97.78,-304.08
1130,1715533790880,-1.39,-1.86,0.7600000000000001,-257.75,97.78000000000002,-304.08
1131,1715533790890,-1.39,-1.86,0.7600000000000001,-257.75,97.78000000000002,-304.08
1132,1715533790900,-1.39,-1.86,0.7600000000000001,-257.75,97.78000000000002,-304.08
1133,1715533790910,-1.39,-1.86,0.76,-257.75,97.78,-304.08
1134,1715533790920,-1.6166666666666665,-1.8733333333333333,0.9,-225.07666666666668,134.51999999999998,-325.28
1135,1715533790930,-1.7299999999999998,-1.88,0.9700000000000001,-208.74,152.89,-335.88
1136,1715533790940,-1.9849999999999999,-1.3475,1.4649999999999999,-178.4325,99.88,-368.925
1137,1715533790950,-2.07,-1.17,1.63,-168.33,82.21,-379.94
1138,1715533790960,-2.07,-1.17,1.63,-168.33,82.21,-379.94
1139,1715533790970,-2.07,-1.17,1.63,-168.33,82.21,-379.94
1140,1715533790980,-3.283333333333333,0.26333333333333336,2.243333333333333,-164.63,-9.13666666666667,-386.98
1141,1715533790990,-3.89,0.98,2.55,-162.78,-54.81,-390.5
1142,1715533791000,-3.89,0.98,2.55,-162.78,-54.81,-390.5
1143,1715533791010,-3.89,0.98,2.55,-162.78,-54.81,-390.5
1144,1715533791020,-7.39,0.79,3.32,95.03,226.99,-150.7
1145,1715533791030,-7.39,0.79,3.32,95.03000000000002,226.99,-150.7
1146,1715533791040,-7.39,0.79,3.32,95.03,226.99,-150.7
1147,1715533791050,-7.39,0.79,3.32,95.03000000000002,226.99,-150.7
1148,1715533791060,-6.923333333333333,-0.6633333333333332,3.186666666666667,-5.023333333333331,-41.77,82.00666666666667
1149,1715533791070,-6.69,-1.39,3.1199999999999997,-55.04999999999999,-176.15,198.36
1150,1715533791080,-6.69,-1.39,3.1199999999999997,-55.04999999999999,-176.15,198.36
1151,1715533791090,-6.69,-1.39,3.1199999999999997,-55.04999999999999,-176.15,198.36
1152,1715533791100,-2.99,-1.96,2.58,68.175,-187.27249999999998,229.995
1153,1715533791110,-2.99,-1.96,2.58,109.25,-190.98,240.54
1154,1715533791120,-2.99,-1.96,2.58,109.25,-190.98,240.54
1155,1715533791130,-2.7433333333333336,-1.4066666666666665,1.9266666666666667,194.78333333333333,-135.44,232.43999999999997
1156,1715533791140,-2.62,-1.13,1.6,237.55,-107.67,228.39
1157,1715533791150,-2.62,-1.13,1.6,237.55,-107.67,228.39
1158,1715533791160,-2.62,-1.13,1.6,237.55,-107.67,228.39
1159,1715533791170,-2.62,-1.13,1.6,237.55,-107.67,228.39
1160,1715533791180,-2.62,-1.13,1.6000000000000003,237.55000000000004,-107.67,228.39
1161,1715533791190,-2.62,-1.13,1.6000000000000003,237.55000000000004,-107.67,228.39
1162,1715533791200,-2.62,-1.13,1.6000000000000003,237.55000000000004,-107.67,228.39
1163,1715533791210,-2.62,-1.13,1.6,237.55,-107.67,228.39
1164,1715533791220,-2.62,-1.13,1.6000000000000003,237.55000000000004,-107.67,228.39
1165,1715533791230,-2.62,-1.13,1.6000000000000003,237.55000000000004,-107.67,228.39
1166,1715533791240,-2.62,-1.13,1.6000000000000003,237.55000000000004,-107.67,228.39
1167,1715533791250,-2.24,-1.2766666666666666,1.2,235.53666666666666,-106.53000000000002,295.60999999999996
1168,1715533791260,-1.48,-1.57,0.4,231.51,-104.25,430.05
1169,1715533791270,-1.48,-1.57,0.4,231.51,-104.25,430.05
1170,1715533791280,-1.38,-1.615,0.4475,231.51,-104.25,430.05
1171,1715533791290,-1.08,-1.75,0.59,211.49,-94.18,411.25
1172,1715533791300,-1.08,-1.75,0.59,211.49,-94.18,411.25
1173,1715533791310,-1.08,-1.75,0.59,211.49,-94.18,411.25
1174,1715533791320,-1.0133333333333334,-1.6333333333333335,0.5966666666666667,211.49,-94.18,411.25
1175,1715533791330,-0.88,-1.3999999999999997,0.61,218.32000000000002,-44.01,323.91
1176,1715533791340,-0.88,-1.4,0.61,218.32,-44.01,323.91
1177,1715533791350,-0.88,-1.3999999999999997,0.61,218.32000000000002,-44.01,323.91
1178,1715533791360,-0.88,-1.4,0.61,218.32,-44.01,323.91
1179,1715533791370,-0.88,-1.3999999999999997,0.61,218.32000000000002,-44.01,323.91
1180,1715533791380,-0.88,-1.3999999999999997,0.61,218.32000000000002,-44.01,323.91
1181,1715533791390,-0.88,-1.3999999999999997,0.61,218.32000000000002,-44.01,323.91
1182,1715533791400,-0.88,-1.3999999999999997,0.61,218.32000000000002,-44.01,323.91
1183,1715533791410,-0.88,-1.3999999999999997,0.61,218.32000000000002,-44.01,323.91
1184,1715533791420,-0.88,-1.3999999999999997,0.61,218.32000000000002,-44.01,323.91
1185,1715533791430,-0.88,-1.3999999999999997,0.61,218.32000000000002,-44.01,323.91
1186,1715533791440,-0.88,-1.4,0.61,218.32,-44.01,323.91
1187,1715533791450,-1.21,-0.91,0.32,151.55,62.07,295.65
1188,1715533791460,-1.21,-0.91,0.32,151.55,62.07,295.65
1189,1715533791470,-1.21,-0.91,0.32,151.55,62.07,295.65
1190,1715533791480,-1.21,-0.91,0.32,151.55,62.07,295.65
1191,1715533791490,-1.0166666666666666,-1.0833333333333333,0.16,96.82333333333334,-6.976666666666667,241.49666666666667
1192,1715533791500,-0.92,-1.17,0.08,69.46,-41.5,214.42
1193,1715533791510,0.21999999999999997,-1.2166666666666666,-0.27999999999999997,120.46333333333332,-54.54333333333333,237.26666666666665
1194,1715533791520,2.5,-1.31,-1.0,222.47,-80.63,282.96
1195,1715533791530,2.5,-1.31,-1.0,222.47,-80.63,282.96
1196,1715533791540,2.5,-1.31,-1.0,222.47,-80.63,282.96
1197,1715533791550,3.895,-1.2349999999999999,-2.565,99.24,-18.955,138.125
1198,1715533791560,5.29,-1.16,-4.13,-23.99,42.72,-6.71
1199,1715533791570,5.29,-1.16,-4.13,-23.99,42.72,-6.71
1200,1715533791580,5.29,-1.16,-4.13,-23.99,42.72,-6.71
1201,1715533791590,5.37,-1.1733333333333331,-2.9899999999999998,-109.66333333333334,-14.630000000000004,-23.66
1202,1715533791600,5.41,-1.18,-2.42,-281.01,-129.33,-57.56
1203,1715533791610,5.41,-1.18,-2.42,-281.01,-129.33,-57.56
1204,1715533791620,5.41,-1.18,-2.42,-281.01,-129.33,-57.56
1205,1715533791630,3.4,-1.54,-1.4749999999999999,-246.92,-53.12750000000001,-125.095
1206,1715533791640,2.73,-1.66,-1.16,-144.65,175.48,-327.7
1207,1715533791650,2.73,-1.66,-1.16,-144.65,175.48,-327.7
1208,1715533791660,2.73,-1.66,-1.16,-144.65,175.48,-327.7
1209,1715533791670,2.73,-1.66,-1.16,-144.65,175.48,-327.7
1210,1715533791680,1.165,-2.1149999999999998,-0.63,-105.92500000000001,227.115,-349.765
1211,1715533791690,-0.4000000000000001,-2.57,-0.10000000000000002,-67.2,278.75,-371.83
1212,1715533791700,-0.4,-2.57,-0.1,-67.2,278.75,-371.83
1213,1715533791710,-0.4,-2.57,-0.1,-67.2,278.75,-371.83
1214,1715533791720,-0.4000000000000001,-2.57,-0.10000000000000002,-67.2,278.75,-371.83
1215,1715533791730,-0.4000000000000001,-2.57,-0.10000000000000002,-67.2,278.75,-371.83
1216,1715533791740,-0.4000000000000001,-2.57,-0.10000000000000002,-67.2,278.75,-371.83
1217,1715533791750,-0.4000000000000001,-2.57,-0.10000000000000002,-67.2,278.75,-371.83
1218,1715533791760,-0.4000000000000001,-2.57,-0.10000000000000002,-67.2,278.75,-371.83
1219,1715533791770,-0.4000000000000001,-2.57,-0.10000000000000002,-67.2,278.75,-371.83
1220,1715533791780,-2.75,-2.16,0.43,30.209999999999997,113.04,-449.16
1221,1715533791790,-2.23,-1.64,0.22,-15.26,-13.49,-406.12999999999994
1222,1715533791800,-2.23,-1.64,0.22,-15.26,-13.49,-406.13
1223,1715533791810,-2.23,-1.64,0.22,-15.26,-13.49,-406.12999999999994
1224,1715533791820,-2.23,-1.64,0.22,-15.26,-13.49,-406.12999999999994
1225,1715533791830,-1.7966666666666669,-1.6066666666666667,0.4066666666666667,-119.87333333333333,-116.07000000000001,-414.75666666666666
1226,1715533791840,-1.58,-1.59,0.5,-172.18,-167.36,-419.07
1227,1715533791850,-1.58,-1.59,0.5,-172.17999999999998,-167.36,-419.07
1228,1715533791860,-1.3666666666666665,-1.59,0.5933333333333334,-195.04666666666665,-142.66,-389.8966666666667
1229,1715533791870,-1.26,-1.59,0.64,-206.48,-130.31,-375.31
1230,1715533791880,-1.26,-1.59,0.64,-206.48,-130.31,-375.31
1231,1715533791890,-1.26,-1.59,0.64,-206.48,-130.31,-375.31
1232,1715533791900,-1.26,-1.59,0.64,-206.48,-130.31,-375.31
1233,1715533791910,-1.26,-1.59,0.64,-206.48,-130.31,-375.31
1234,1715533791920,-1.26,-1.59,0.64,-206.48,-130.31,-375.31
1235,1715533791930,-1.26,-1.59,0.64,-206.48,-130.31,-375.31
1236,1715533791940,-1.26,-1.59,0.64,-206.48,-130.31,-375.31
1237,1715533791950,-1.26,-1.59,0.64,-206.48,-130.31,-375.31
1238,1715533791960,-1.26,-1.59,0.64,-206.48,-130.31,-375.31
1239,1715533791970,-1.54,-1.33,1.08,-297.12,-121.33999999999999,-363.89000000000004
1240,1715533791980,-2.54,-0.42333333333333334,1.6333333333333335,-311.32,-10.293333333333337,-319.33666666666664
1241,1715533791990,-3.04,0.03,1.91,-318.42,45.23,-297.06
1242,1715533792000,-3.04,0.03,1.91,-318.42,45.23,-297.06
1243,1715533792010,-3.29,-0.025,3.225,-312.485,-31.980000000000004,-300.03499999999997
1244,1715533792020,-3.5400000000000005,-0.08,4.54,-294.68,-263.61,-308.96
1245,1715533792030,-3.54,-0.08,4.54,-294.68,-263.61,-308.96
1246,1715533792040,-3.54,-0.08,4.54,-294.68,-263.61,-308.96
1247,1715533792050,-4.366666666666667,-1.32,5.566666666666666,-70.84,35.98999999999999,-126.17999999999999
1248,1715533792060,-4.78,-1.9400000000000002,6.080000000000001,41.08,185.79,-34.79
1249,1715533792070,-4.78,-1.9400000000000002,6.080000000000001,41.08,185.79,-34.79
1250,1715533792080,-4.78,-1.9400000000000002,6.080000000000001,41.08,185.79,-34.79
1251,1715533792090,-4.816666666666666,-1.93,5.426666666666667,110.39333333333333,100.94999999999999,9.663333333333332
1252,1715533792100,-4.89,-1.91,4.12,249.02,-68.73,98.57
1253,1715533792110,-4.89,-1.91,4.12,249.02,-68.73,98.57
1254,1715533792120,-4.89,-1.91,4.12,249.02,-68.73,98.57
1255,1715533792130,-4.89,-1.91,4.12,249.02,-68.73,98.57
1256,1715533792140,-2.82,-1.93,2.95,331.24,-44.62,167.42
1257,1715533792150,-2.82,-1.93,2.95,331.24,-44.62,167.42
1258,1715533792160,-2.82,-1.93,2.9500000000000006,331.24,-44.62,167.42
1259,1715533792170,-2.565,-1.39,1.8775,373.3975,89.92250000000001,267.53
1260,1715533792180,-2.48,-1.21,1.52,387.45,134.77,300.9
1261,1715533792190,-2.48,-1.21,1.52,387.45,134.77,300.9
1262,1715533792200,-2.3033333333333332,-1.2233333333333334,1.28,369.71000000000004,95.68666666666667,325.94666666666666
1263,1715533792210,-1.95,-1.25,0.8,334.23,17.52,376.04
1264,1715533792220,-1.95,-1.25,0.8,334.23,17.52,376.04
1265,1715533792230,-1.95,-1.25,0.8000000000000002,334.23,17.52,376.04
1266,1715533792240,-1.95,-1.25,0.8,334.23,17.52,376.04
1267,1715533792250,-1.95,-1.25,0.8000000000000002,334.23,17.52,376.04
1268,1715533792260,-1.95,-1.25,0.8000000000000002,334.23,17.52,376.04
1269,1715533792270,-1.95,-1.25,0.8000000000000002,334.23,17.52,376.04
1270,1715533792280,-1.95,-1.25,0.8000000000000002,334.23,17.52,376.04
1271,1715533792290,-1.95,-1.25,0.8,334.23,17.52,376.04
1272,1715533792300,-1.55,-1.6633333333333333,0.5733333333333334,223.39000000000001,-14.666666666666666,476.70666666666665
1273,1715533792310,-1.35,-1.87,0.46,167.97,-30.76,527.04
1274,1715533792320,-1.3233333333333335,-1.8233333333333335,0.5433333333333333,158.16333333333333,25.066666666666663,507.60999999999996
1275,1715533792330,-1.27,-1.7299999999999998,0.71,138.55,136.72,468.75
1276,1715533792340,-1.27,-1.73,0.71,138.55,136.72,468.75
1277,1715533792350,-1.27,-1.7299999999999998,0.71,138.55,136.72,468.75
1278,1715533792360,-1.58,-1.43,0.67,60.12,-6.29,373.96
1279,1715533792370,-1.58,-1.43,0.67,60.12,-6.29,373.96
1280,1715533792380,-1.58,-1.43,0.67,60.12,-6.29,373.96
1281,1715533792390,-1.7233333333333334,-1.4566666666666668,0.5733333333333334,53.589999999999996,14.89,383.4833333333333
1282,1715533792400,-2.01,-1.51,0.38,40.53,57.25,402.53
1283,1715533792410,-2.01,-1.51,0.38,40.53,57.25,402.53
1284,1715533792420,-2.01,-1.51,0.38000000000000006,40.53,57.25,402.53
1285,1715533792430,-2.01,-1.51,0.38,40.53,57.25,402.53
1286,1715533792440,-2.01,-1.51,0.38000000000000006,40.53,57.25,402.53
1287,1715533792450,-2.01,-1.51,0.38,40.53,57.25,402.53
1288,1715533792460,-2.01,-1.51,0.38000000000000006,40.53,57.25,402.53
1289,1715533792470,-2.01,-1.51,0.38,40.53,57.25,402.53
1290,1715533792480,-2.01,-1.51,0.38000000000000006,40.53,57.25,402.53
1291,1715533792490,-1.163333333333333,-1.6233333333333333,-0.05666666666666668,-15.300000000000002,-169.23333333333335,344.25666666666666
1292,1715533792500,0.55,-1.88,-0.28,-4.64,-331.12,249.68999999999997
1293,1715533792510,1.5899999999999999,-1.4733333333333334,-1.4733333333333334,-14.813333333333333,-473.85999999999996,94.33666666666666
1294,1715533792520,2.11,-1.27,-2.07,-19.9,-545.23,16.66
1295,1715533792530,2.11,-1.27,-2.07,-19.9,-545.23,16.66
1296,1715533792540,2.11,-1.27,-2.07,-19.9,-545.23,16.66
1297,1715533792550,2.28,-1.1300000000000001,-2.4899999999999998,53.626666666666665,-367.41333333333336,18.290000000000003
1298,1715533792560,2.62,-0.85,-3.33,200.67999999999998,-11.78,21.55
1299,1715533792570,2.62,-0.85,-3.33,200.67999999999998,-11.78,21.55
1300,1715533792580,2.62,-0.85,-3.33,200.68,-11.78,21.55
1301,1715533792590,3.52,-0.93,-3.65,200.67999999999998,-11.78,21.55
1302,1715533792600,3.52,-0.93,-3.65,52.79999999999999,-53.41,-132.2
1303,1715533792610,3.52,-0.93,-3.65,52.8,-53.41,-132.2
1304,1715533792620,3.52,-0.93,-3.65,52.79999999999999,-53.41,-132.2
1305,1715533792630,3.1,-1.0425,-3.395,8.579999999999998,65.3375,-201.7325
1306,1715533792640,2.9599999999999995,-1.08,-3.31,-6.16,104.92,-224.91
1307,1715533792650,2.96,-1.08,-3.31,-6.16,104.92,-224.91
1308,1715533792660,2.2225,-1.2875,-2.85,-22.365000000000002,126.1,-259.4575
1309,1715533792670,0.01,-1.91,-1.47,-70.98,189.64,-363.1
1310,1715533792680,0.01,-1.91,-1.47,-70.98,189.64,-363.1
1311,1715533792690,0.01,-1.91,-1.47,-70.98,189.64,-363.1
1312,1715533792700,0.01,-1.91,-1.47,-70.98,189.64,-363.1000000000001
1313,1715533792710,-1.6800000000000002,-1.95,-0.37,-99.85,200.68,-389.77
1314,1715533792720,-1.68,-1.95,-0.36999999999999994,-99.84999999999998,200.67999999999998,-389.77
1315,1715533792730,-1.68,-1.95,-0.36999999999999994,-99.84999999999998,200.67999999999998,-389.77
1316,1715533792740,-1.68,-1.95,-0.36999999999999994,-99.84999999999998,200.67999999999998,-389.77
1317,1715533792750,-1.68,-1.95,-0.37,-99.85,200.68,-389.77
1318,1715533792760,-1.68,-1.95,-0.36999999999999994,-99.84999999999998,200.67999999999998,-389.77
1319,1715533792770,-1.68,-1.95,-0.36999999999999994,-99.84999999999998,200.67999999999998,-389.77
1320,1715533792780,-1.68,-1.95,-0.37,-99.85,200.68,-389.77
1321,1715533792790,-1.68,-1.95,-0.36999999999999994,-99.84999999999998,200.67999999999998,-389.77
1322,1715533792800,-1.68,-1.95,-0.36999999999999994,-99.84999999999998,200.67999999999998,-389.77
1323,1715533792810,-1.68,-1.95,-0.36999999999999994,-99.84999999999998,200.67999999999998,-389.77
1324,1715533792820,-1.68,-1.95,-0.37,-99.85,200.68,-389.77
1325,1715533792830,-2.0075000000000003,-1.615,0.76,-219.785,66.7875,-358.1225
1326,1715533792840,-1.79,-1.54,0.77,-230.16,26.55,-347.29
1327,1715533792850,-1.79,-1.54,0.77,-230.16,26.55,-347.29
1328,1715533792860,-1.7299999999999998,-1.5866666666666667,0.7966666666666667,-294.41333333333336,-22.236666666666668,-355.30333333333334
1329,1715533792870,-1.7,-1.61,0.81,-326.54,-46.63,-359.31
1330,1715533792880,-1.7,-1.61,0.81,-326.54,-46.63,-359.31
1331,1715533792890,-1.5999999999999999,-1.68,0.8233333333333334,-326.54,-46.63,-359.31
1332,1715533792900,-1.4,-1.82,0.85,-337.71,43.64,-332.4
1333,1715533792910,-1.3999999999999997,-1.82,0.85,-337.71,43.64000000000001,-332.4
1334,1715533792920,-1.3999999999999997,-1.82,0.85,-337.71,43.64000000000001,-332.4
1335,1715533792930,-1.3999999999999997,-1.82,0.85,-337.71,43.64000000000001,-332.4
1336,1715533792940,-1.3999999999999997,-1.82,0.85,-337.71,43.64000000000001,-332.4
1337,1715533792950,-1.3999999999999997,-1.82,0.85,-337.71,43.64000000000001,-332.4
1338,1715533792960,-1.3999999999999997,-1.82,0.85,-337.71,43.64000000000001,-332.4
1339,1715533792970,-1.3999999999999997,-1.82,0.85,-337.71,43.64000000000001,-332.4
1340,1715533792980,-1.3999999999999997,-1.82,0.85,-337.71,43.64000000000001,-332.4
1341,1715533792990,-1.3999999999999997,-1.82,0.85,-337.71,43.64000000000001,-332.4
1342,1715533793000,-1.3999999999999997,-1.82,0.85,-337.71,43.64000000000001,-332.4
1343,1715533793010,-1.3999999999999997,-1.82,0.85,-337.71,43.64000000000001,-332.4
1344,1715533793020,-2.84,-1.1,2.98,-345.34,53.96,-383.12000000000006
1345,1715533793030,-2.84,-1.1,2.98,-345.34,53.96,-383.12
1346,1715533793040,-2.84,-1.1,2.98,-345.34,53.96,-383.12000000000006
1347,1715533793050,-4.79,0.6,4.75,-190.80000000000004,-89.11,-242.07000000000002
1348,1715533793060,-4.79,0.6,4.75,-190.80000000000004,-89.11,-242.07000000000002
1349,1715533793070,-4.79,0.6,4.75,-190.8,-89.11,-242.07
1350,1715533793080,-4.79,0.6,4.75,-190.80000000000004,-89.11,-242.07000000000002
1351,1715533793090,-6.97,-0.58,5.4,23.3475,160.0925,-30.487499999999997
1352,1715533793100,-6.97,-0.58,5.4,94.73,243.16,40.04
1353,1715533793110,-6.97,-0.58,5.400000000000001,94.73,243.16,40.04
1354,1715533793120,-6.97,-0.58,5.400000000000001,94.73,243.16,40.04
1355,1715533793130,-4.25,-1.76,3.6300000000000003,71.47,-202.88,219.91
1356,1715533793140,-4.25,-1.76,3.63,71.47,-202.88,219.91
1357,1715533793150,-4.25,-1.76,3.63,71.47,-202.88,219.91
1358,1715533793160,-3.283333333333333,-1.5933333333333335,3.0100000000000002,71.47,-202.88,219.91
1359,1715533793170,-2.8,-1.51,2.7,228.21249999999998,-113.1125,214.92249999999999
1360,1715533793180,-2.7999999999999994,-1.51,2.7000000000000006,280.46,-83.19,213.26
1361,1715533793190,-2.7999999999999994,-1.51,2.7000000000000006,280.46,-83.19,213.26
1362,1715533793200,-2.615,-1.13,2.065,308.595,-66.77,238.95499999999998
1363,1715533793210,-2.43,-0.75,1.43,336.73,-50.35,264.65
1364,1715533793220,-2.43,-0.75,1.43,336.73,-50.35,264.65
1365,1715533793230,-2.43,-0.75,1.43,336.73,-50.35,264.65
1366,1715533793240,-1.9766666666666666,-1.01,1.0366666666666666,350.77,-19.87666666666667,327.10999999999996
1367,1715533793250,-1.75,-1.14,0.84,357.79,-4.64,358.34
1368,1715533793260,-1.75,-1.14,0.84,357.79,-4.64,358.34
1369,1715533793270,-1.75,-1.14,0.84,357.79,-4.64,358.34
1370,1715533793280,-1.75,-1.14,0.84,357.79,-4.64,358.34
1371,1715533793290,-1.75,-1.14,0.84,357.79,-4.64,358.34
1372,1715533793300,-1.75,-1.14,0.84,357.79,-4.64,358.34
1373,1715533793310,-1.75,-1.14,0.84,357.79,-4.64,358.34
1374,1715533793320,-1.75,-1.14,0.84,357.79,-4.64,358.34
1375,1715533793330,-1.75,-1.14,0.84,357.79,-4.64,358.34
1376,1715533793340,-1.75,-1.14,0.84,357.79,-4.64,358.34
1377,1715533793350,-1.57,-1.7066666666666668,0.6733333333333333,211.1833333333333,-132.60666666666665,389.02
1378,1715533793360,-1.18,-1.72,0.85,211.61,-6.53,375.06
1379,1715533793370,-1.18,-1.72,0.85,211.61,-6.53,375.06
1380,1715533793380,-1.18,-1.72,0.85,211.61,-6.53,375.06
1381,1715533793390,-1.18,-1.72,0.85,211.61,-6.53,375.06
1382,1715533793400,-1.6000000000000003,-1.46,0.58,174.67999999999998,-4.52,317.75
1383,1715533793410,-1.6000000000000003,-1.46,0.58,174.67999999999998,-4.52,317.75
1384,1715533793420,-1.6000000000000003,-1.46,0.58,174.67999999999998,-4.52,317.75
1385,1715533793430,-1.6800000000000002,-1.455,0.51,156.125,-46.48,298.83000000000004
1386,1715533793440,-1.76,-1.45,0.44,137.57,-88.44,279.91
1387,1715533793450,-1.76,-1.45,0.44,137.57,-88.44,279.91
1388,1715533793460,-1.76,-1.45,0.44,137.57,-88.44,279.91
1389,1715533793470,-1.76,-1.45,0.44,137.57,-88.44,279.91
1390,1715533793480,-1.76,-1.45,0.44,137.57,-88.44,279.91
1391,1715533793490,-1.76,-1.45,0.44,137.57,-88.44,279.91
1392,1715533793500,-1.76,-1.45,0.44,137.57,-88.44,279.91
1393,1715533793510,-1.76,-1.45,0.44,137.57,-88.44,279.91
1394,1715533793520,-1.76,-1.45,0.44,137.57,-88.44,279.91
1395,1715533793530,-1.76,-1.45,0.44,137.57,-88.44,279.91
1396,1715533793540,-1.2433333333333334,-1.4266666666666665,0.023333333333333317,109.31333333333333,-72.45,300.8433333333333
1397,1715533793550,3.0,-0.81,-1.7700000000000002,50.03333333333333,-69.60333333333334,178.89
1398,1715533793560,3.0,-0.81,-1.77,48.65,-84.17,96.98
1399,1715533793570,3.0,-0.81,-1.77,48.65,-84.17,96.98
1400,1715533793580,3.45,-0.62,-1.915,-44.39999999999999,-85.575,64.42
1401,1715533793590,3.9,-0.43,-2.06,-137.45,-86.98,31.86
1402,1715533793600,3.9,-0.43,-2.06,-137.45,-86.98,31.86
1403,1715533793610,3.9,-0.43,-2.06,-137.45,-86.98,31.86
1404,1715533793620,4.06,-0.18,-1.815,-129.06,-117.345,-48.279999999999994
1405,1715533793630,4.22,0.07,-1.57,-120.67,-147.71,-128.42
1406,1715533793640,4.22,0.07,-1.57,-120.67,-147.71,-128.42
1407,1715533793650,4.22,0.07,-1.57,-120.67,-147.71,-128.42
1408,1715533793660,3.945,-0.215,-1.5550000000000002,-34.915,-52.525000000000006,-138.855
1409,1715533793670,3.67,-0.5,-1.54,50.84,42.66,-149.29
1410,1715533793680,3.67,-0.5,-1.54,50.84,42.66,-149.29
1411,1715533793690,3.67,-0.5,-1.54,50.84,42.66,-149.29
1412,1715533793700,1.8499999999999999,-1.32,-1.4933333333333334,88.40000000000002,188.58,-219.5233333333333
1413,1715533793710,0.94,-1.73,-1.47,107.18,261.54,-254.64
1414,1715533793720,0.94,-1.7299999999999998,-1.47,107.18,261.54,-254.64
1415,1715533793730,0.94,-1.73,-1.47,107.18,261.54,-254.64
1416,1715533793740,-1.25,-1.89,-1.2,99.24,201.78,-374.82
1417,1715533793750,-1.25,-1.89,-1.2,99.24,201.78,-374.82
1418,1715533793760,-1.5433333333333332,-1.8566666666666667,-1.0733333333333333,99.24,201.78,-374.82
1419,1715533793770,-2.13,-1.79,-0.82,51.51333333333333,131.59333333333333,-418.23333333333335
1420,1715533793780,-2.13,-1.79,-0.82,27.649999999999995,96.5,-439.94
1421,1715533793790,-2.13,-1.79,-0.82,27.649999999999995,96.5,-439.94
1422,1715533793800,-2.13,-1.79,-0.82,27.649999999999995,96.5,-439.94
1423,1715533793810,-2.13,-1.79,-0.82,27.65,96.5,-439.94
1424,1715533793820,-2.13,-1.79,-0.82,27.649999999999995,96.5,-439.94
1425,1715533793830,-2.13,-1.79,-0.82,27.649999999999995,96.5,-439.94
1426,1715533793840,-2.13,-1.79,-0.82,27.649999999999995,96.5,-439.94
1427,1715533793850,-2.13,-1.79,-0.82,27.649999999999995,96.5,-439.94
1428,1715533793860,-2.13,-1.79,-0.82,27.65,96.5,-439.94
1429,1715533793870,-2.1666666666666665,-1.7866666666666668,-0.4766666666666666,-75.82666666666665,38.983333333333334,-428.2633333333333
1430,1715533793880,-2.24,-1.78,0.21,-282.78,-76.05,-404.91
1431,1715533793890,-1.44,-1.94,0.66,-328.49,-73.24,-364.5
1432,1715533793900,-1.4400000000000002,-1.9400000000000002,0.66,-328.49,-73.24,-364.5
1433,1715533793910,-1.4400000000000002,-1.9400000000000002,0.66,-328.49,-73.24,-364.5
1434,1715533793920,-1.5225,-1.7825,0.54,-328.49,-73.24,-364.5
1435,1715533793930,-1.55,-1.73,0.5,-243.59,153.5,-262.39
1436,1715533793940,-1.55,-1.7299999999999998,0.5,-243.59,153.5,-262.39
1437,1715533793950,-1.55,-1.7299999999999998,0.5,-243.59,153.5,-262.39
1438,1715533793960,-1.5875000000000001,-1.8125,0.5675,-254.16500000000002,64.745,-320.02
1439,1715533793970,-1.6000000000000003,-1.84,0.59,-257.69,35.16,-339.23
1440,1715533793980,-1.6000000000000003,-1.84,0.59,-257.69,35.16,-339.23
1441,1715533793990,-1.6000000000000003,-1.84,0.59,-257.69,35.16,-339.23
1442,1715533794000,-1.6000000000000003,-1.84,0.59,-257.69,35.16,-339.23
1443,1715533794010,-1.6,-1.84,0.59,-257.69,35.16,-339.23
1444,1715533794020,-1.6000000000000003,-1.84,0.59,-257.69,35.16,-339.23
1445,1715533794030,-1.6,-1.84,0.59,-257.69,35.16,-339.23
1446,1715533794040,-1.6000000000000003,-1.84,0.59,-257.69,35.16,-339.23
1447,1715533794050,-1.6000000000000003,-1.84,0.59,-257.69,35.16,-339.23
1448,1715533794060,-1.6,-1.84,0.59,-257.69,35.16,-339.23
1449,1715533794070,-3.5,0.24000000000000002,2.7800000000000002,-63.9,134.64,-341.49
1450,1715533794080,-6.14,0.81,3.02,9.77,128.17,-255.70499999999998
1451,1715533794090,-6.14,0.81,3.02,83.44,121.7,-169.92
1452,1715533794100,-6.14,0.81,3.02,83.44,121.7,-169.92
1453,1715533794110,-6.3566666666666665,0.8300000000000001,2.966666666666667,76.05333333333333,60.09666666666667,-106.40333333333332
1454,1715533794120,-6.79,0.87,2.86,61.28,-63.11,20.63
1455,1715533794130,-6.79,0.87,2.86,61.28,-63.10999999999999,20.63
1456,1715533794140,-6.79,0.87,2.86,61.28,-63.10999999999999,20.63
1457,1715533794150,-6.029999999999999,0.29000000000000004,2.54,45.655,-122.65,113.465
1458,1715533794160,-5.27,-0.29,2.22,30.03,-182.18999999999997,206.30000000000004
1459,1715533794170,-5.27,-0.29,2.22,30.03,-182.18999999999997,206.30000000000004
1460,1715533794180,-5.27,-0.29,2.22,30.03,-182.18999999999997,206.30000000000004
1461,1715533794190,-4.1433333333333335,-0.39666666666666667,1.9266666666666667,76.05,-164.0,219.91
1462,1715533794200,-3.58,-0.45,1.78,168.09,-127.62,247.13
1463,1715533794210,-3.58,-0.45,1.78,168.09,-127.62,247.13
1464,1715533794220,-3.58,-0.45,1.78,168.09,-127.62,247.13
1465,1715533794230,-2.845,-0.36750000000000005,1.1724999999999999,244.6725,-65.64,299.96
1466,1715533794240,-2.6,-0.34,0.9700000000000001,270.2,-44.98,317.57
1467,1715533794250,-2.6,-0.34,0.9700000000000001,270.2,-44.98,317.57
1468,1715533794260,-2.6,-0.34,0.9700000000000001,270.2,-44.98,317.57
1469,1715533794270,-2.29,-0.88,0.32,272.245,-49.285,363.62
1470,1715533794280,-2.29,-0.88,0.32,274.29,-53.59,409.67
1471,1715533794290,-2.29,-0.88,0.32,274.29,-53.59,409.67
1472,1715533794300,-2.29,-0.88,0.32,274.29,-53.59,409.67
1473,1715533794310,-2.29,-0.88,0.32,274.29,-53.59,409.67
1474,1715533794320,-2.29,-0.88,0.32,274.29,-53.59,409.67
1475,1715533794330,-2.29,-0.88,0.32,274.29,-53.59,409.67
1476,1715533794340,-2.29,-0.88,0.32,274.29,-53.59,409.67
1477,1715533794350,-2.29,-0.88,0.32,274.29,-53.59,409.67
1478,1715533794360,-2.29,-0.88,0.32,274.29,-53.59,409.67
1479,1715533794370,-2.29,-0.88,0.32,274.29,-53.59,409.67
1480,1715533794380,-2.29,-0.88,0.32,274.29,-53.59,409.67
1481,1715533794390,-2.29,-0.88,0.32,274.29,-53.59,409.67
1482,1715533794400,-2.1,-1.75,0.62,143.8,-47.669999999999995,352.97
1483,1715533794410,-2.1,-1.75,0.62,143.8,-47.669999999999995,352.97
1484,1715533794420,-1.98,-1.67,0.39,143.86,-29.97,354.37
1485,1715533794430,-1.86,-1.59,0.16,143.92,-12.270000000000001,355.77
1486,1715533794440,-1.86,-1.59,0.16,143.92,-12.270000000000001,355.77
1487,1715533794450,-1.86,-1.59,0.16,143.92,-12.27,355.77
1488,1715533794460,-1.7775,-1.5075,-0.0575,103.08999999999999,-9.705,375.78999999999996
1489,1715533794470,-1.75,-1.48,-0.13,62.26,-7.14,395.81
1490,1715533794480,-1.75,-1.48,-0.13,62.26,-7.14,395.81
1491,1715533794490,-1.75,-1.4799999999999998,-0.13,62.26,-7.14,395.81
1492,1715533794500,-1.4449999999999998,-1.55,-0.14,25.604999999999997,-43.305,374.845
1493,1715533794510,-1.14,-1.62,-0.15,-11.050000000000002,-79.47,353.87999999999994
1494,1715533794520,-1.14,-1.62,-0.15,-11.050000000000002,-79.47,353.87999999999994
1495,1715533794530,-1.14,-1.62,-0.15,-11.050000000000002,-79.47,353.87999999999994
1496,1715533794540,-1.14,-1.62,-0.15,-11.050000000000002,-79.47,353.87999999999994
1497,1715533794550,-1.14,-1.62,-0.15,-11.05,-79.47,353.88
1498,1715533794560,-1.14,-1.62,-0.15,-11.050000000000002,-79.47,353.87999999999994
1499,1715533794570,-1.14,-1.62,-0.15,-11.05,-79.47,353.88
1500,1715533794580,-1.14,-1.62,-0.15,-11.050000000000002,-79.47,353.87999999999994
1501,1715533794590,2.7399999999999998,-1.9133333333333333,-0.5499999999999999,44.65666666666667,-213.33666666666667,298.05333333333334
1502,1715533794600,4.68,-2.06,-0.75,72.51,-280.27,270.14
1503,1715533794610,4.75,-2.143333333333333,-1.7466666666666668,151.45000000000002,-158.23999999999998,170.67333333333332
1504,1715533794620,4.89,-2.31,-3.74,309.33,85.82,-28.26
1505,1715533794630,4.89,-2.31,-3.7400000000000007,309.33,85.82,-28.26
1506,1715533794640,4.89,-2.31,-3.7400000000000007,309.33,85.82,-28.26
1507,1715533794650,4.6579999999999995,-1.9620000000000002,-3.3560000000000003,216.01799999999997,-7.492000000000007,-135.804
1508,1715533794660,4.31,-1.44,-2.78,76.05,-147.46,-297.12
1509,1715533794670,4.31,-1.4400000000000002,-2.78,76.05,-147.46,-297.12
1510,1715533794680,4.31,-1.44,-2.78,76.05,-147.46,-297.12
1511,1715533794690,4.31,-1.4400000000000002,-2.78,76.05,-147.46,-297.12
1512,1715533794700,4.31,-1.44,-2.78,76.05,-147.46,-297.12
1513,1715533794710,1.02,-1.53,-2.24,84.05,-61.34000000000001,-462.52
1514,1715533794720,0.7600000000000001,-1.5483333333333331,-2.0483333333333333,84.05,-61.34,-462.52
1515,1715533794730,-0.54,-1.64,-1.09,-138.24,89.05,-368.59
1516,1715533794740,-0.54,-1.64,-1.09,-138.24,89.05,-368.59
1517,1715533794750,-0.54,-1.64,-1.09,-138.24,89.05,-368.59
1518,1715533794760,-0.818,-1.738,-0.842,-138.24,89.05,-368.59
1519,1715533794770,-1.93,-2.13,0.15,-250.915,118.255,-395.325
1520,1715533794780,-1.9300000000000002,-2.13,0.15,-363.59,147.46,-422.06000000000006
1521,1715533794790,-1.9300000000000002,-2.13,0.15,-363.59,147.46,-422.06000000000006
1522,1715533794800,-1.9300000000000002,-2.13,0.15,-363.59,147.46,-422.06000000000006
1523,1715533794810,-2.62,-2.42,1.16,-338.2,73.73,-377.81
1524,1715533794820,-2.62,-2.42,1.16,-338.2,73.73,-377.81
1525,1715533794830,-2.62,-2.42,1.16,-338.2,73.73,-377.81
1526,1715533794840,-2.62,-2.42,1.16,-338.2,73.73,-377.81
1527,1715533794850,-2.62,-2.42,1.16,-338.2,73.73,-377.81
1528,1715533794860,-2.62,-2.42,1.16,-338.2,73.73,-377.81
1529,1715533794870,-2.62,-2.42,1.16,-338.2,73.73,-377.81
1530,1715533794880,-2.62,-2.42,1.16,-338.2,73.73,-377.81
1531,1715533794890,-2.62,-2.42,1.16,-338.2,73.73,-377.81
1532,1715533794900,-2.62,-2.42,1.16,-338.2,73.73,-377.81
1533,1715533794910,-2.62,-2.42,1.16,-338.2,73.73,-377.81
1534,1715533794920,-2.2775,-2.2675,1.075,-304.2625,94.5125,-358.995
1535,1715533794930,-1.25,-1.8099999999999998,0.82,-202.44999999999996,156.86,-302.55
1536,1715533794940,-1.25,-1.81,0.82,-202.45,156.86,-302.55
1537,1715533794950,-1.25,-1.81,0.82,-202.45,156.86,-302.55
1538,1715533794960,-1.72,-1.75,1.06,-170.35,119.38,-357.18
1539,1715533794970,-1.72,-1.75,1.06,-170.35,119.38,-357.18
1540,1715533794980,-1.72,-1.75,1.06,-170.35,119.38,-357.18
1541,1715533794990,-1.72,-1.75,1.06,-170.35,119.38,-357.18
1542,1715533795000,-1.7666666666666666,-1.5233333333333334,1.24,-170.35,119.38,-357.18
1543,1715533795010,-1.79,-1.41,1.33,-152.04,-66.28,-367.8
1544,1715533795020,-1.79,-1.41,1.33,-152.04,-66.28,-367.8
1545,1715533795030,-1.79,-1.41,1.33,-152.04,-66.28,-367.8
1546,1715533795040,-1.79,-1.41,1.33,-152.04,-66.28,-367.8
1547,1715533795050,-1.79,-1.41,1.33,-152.04,-66.28,-367.8
1548,1715533795060,-1.79,-1.41,1.33,-152.04,-66.28,-367.8
1549,1715533795070,-1.79,-1.41,1.33,-152.04,-66.28,-367.8
1550,1715533795080,-1.79,-1.41,1.33,-152.04,-66.28,-367.8
1551,1715533795090,-1.79,-1.41,1.33,-152.04,-66.28,-367.8
1552,1715533795100,-1.79,-1.41,1.33,-152.04,-66.28,-367.8
1553,1715533795110,-1.915,-1.1175,1.355,-152.04,-66.28,-367.8
1554,1715533795120,-8.0,1.17,3.4599999999999995,101.07,157.96,-128.23
1555,1715533795130,-8.0,1.17,3.46,101.07,157.96,-128.23
1556,1715533795140,-8.0,1.17,3.4599999999999995,101.07,157.96,-128.23
1557,1715533795150,-8.0,1.17,3.46,101.07,157.96,-128.23
1558,1715533795160,-6.94,-0.04,1.74,21.67,-25.63,236.39
1559,1715533795170,-6.94,-0.04,1.74,21.67,-25.63,236.39
1560,1715533795180,-6.94,-0.04,1.74,21.67,-25.63,236.39
1561,1715533795190,-3.11,-1.31,2.54,-2.44,-256.77,222.78
1562,1715533795200,-3.11,-1.31,2.54,-2.44,-256.77,222.78
1563,1715533795210,-3.11,-1.31,2.54,-2.44,-256.77,222.78
1564,1715533795220,-3.11,-1.31,2.54,-2.44,-256.77,222.78
1565,1715533795230,-2.11,-0.72,1.65,167.48000000000002,-119.49,258.435
1566,1715533795240,-2.11,-0.7200000000000001,1.6499999999999997,224.12,-73.73,270.32
1567,1715533795250,-2.11,-0.7200000000000001,1.6499999999999997,224.12,-73.73,270.32
1568,1715533795260,-1.9666666666666666,-0.7200000000000001,1.4266666666666665,231.16,-50.903333333333336,297.4633333333333
1569,1715533795270,-1.68,-0.7200000000000001,0.98,245.24,-5.25,351.75
1570,1715533795280,-1.68,-0.7200000000000001,0.98,245.24,-5.25,351.75
1571,1715533795290,-1.68,-0.72,0.98,245.24,-5.25,351.75
1572,1715533795300,-1.6266666666666667,-0.9,0.8633333333333333,250.61,45.653333333333336,402.67333333333335
1573,1715533795310,-1.52,-1.26,0.63,261.35,147.46,504.52
1574,1715533795320,-1.5200000000000002,-1.26,0.63,261.35,147.46,504.52
1575,1715533795330,-1.5200000000000002,-1.26,0.63,261.35,147.46,504.52
1576,1715533795340,-1.7075,-1.4475,0.51,194.70000000000002,102.54,529.8499999999999
1577,1715533795350,-1.7700000000000002,-1.51,0.47,128.05,57.62,555.18
1578,1715533795360,-1.7700000000000002,-1.51,0.47,128.05,57.62,555.18
1579,1715533795370,-1.77,-1.51,0.47,128.05,57.62,555.18
1580,1715533795380,-1.7700000000000002,-1.51,0.47,128.05,57.62,555.18
1581,1715533795390,-1.7700000000000002,-1.51,0.47,128.05,57.62,555.18
1582,1715533795400,-1.7700000000000002,-1.51,0.47,128.05,57.62,555.18
1583,1715533795410,-1.77,-1.51,0.47,128.05,57.62,555.18
1584,1715533795420,-1.7700000000000002,-1.51,0.47,128.05,57.62,555.18
1585,1715533795430,-1.7700000000000002,-1.51,0.47,128.05,57.62,555.18
1586,1715533795440,-1.7700000000000002,-1.51,0.47,128.05,57.62,555.18
1587,1715533795450,-1.82,-1.42,0.77,90.82,-81.97,353.27
1588,1715533795460,-1.7,-1.4666666666666668,0.7233333333333333,114.54,-89.53666666666668,328.81666666666666
1589,1715533795470,-1.64,-1.49,0.6999999999999998,126.40000000000002,-93.32,316.59
1590,1715533795480,-1.64,-1.49,0.7,126.4,-93.32,316.59
1591,1715533795490,-1.5833333333333333,-1.5133333333333334,0.6133333333333333,126.40000000000002,-93.32,316.59
1592,1715533795500,-1.47,-1.5599999999999998,0.44,126.42,-81.88666666666667,324.84999999999997
1593,1715533795510,-1.47,-1.56,0.44,126.46,-59.02,341.37
1594,1715533795520,-1.47,-1.5599999999999998,0.44,126.46,-59.02,341.37000000000006
1595,1715533795530,-1.47,-1.5599999999999998,0.44,126.46,-59.02,341.37000000000006
1596,1715533795540,-0.9974999999999999,-1.5825,0.0875,139.0075,-61.2625,271.1025
1597,1715533795550,-0.84,-1.59,-0.03,143.19,-62.01,247.67999999999998
1598,1715533795560,-0.84,-1.59,-0.03,143.19,-62.01,247.67999999999998
1599,1715533795570,-0.84,-1.59,-0.03,143.19,-62.01,247.68
1600,1715533795580,-0.84,-1.59,-0.03,143.19,-62.01,247.67999999999998
1601,1715533795590,-0.84,-1.59,-0.03,143.19,-62.01,247.67999999999998
1602,1715533795600,-0.84,-1.59,-0.03,143.19,-62.01,247.67999999999998
1603,1715533795610,-0.84,-1.59,-0.03,143.19,-62.01,247.67999999999998
1604,1715533795620,-0.84,-1.59,-0.03,143.19,-62.01,247.67999999999998
1605,1715533795630,-0.84,-1.59,-0.03,143.19,-62.01,247.67999999999998
1606,1715533795640,2.5725000000000002,-1.4275,-1.545,54.7325,-90.66499999999999,120.80499999999999
1607,1715533795650,3.91,-1.01,-1.95,-107.44,-111.85333333333334,-67.34333333333333
1608,1715533795660,3.91,-1.01,-1.95,-137.63,-134.03,-97.17
1609,1715533795670,3.91,-1.01,-1.95,-137.63,-134.03,-97.17
1610,1715533795680,3.9375,-1.0375,-1.8599999999999999,-137.63,-134.03,-97.17
1611,1715533795690,4.02,-1.12,-1.59,-157.1,-228.88,-123.35
1612,1715533795700,4.02,-1.12,-1.59,-157.1,-228.88,-123.34999999999998
1613,1715533795710,4.02,-1.12,-1.59,-157.1,-228.88,-123.35
1614,1715533795720,3.2866666666666666,-1.3733333333333333,-1.3866666666666667,-121.05,-118.34666666666665,-207.15333333333334
1615,1715533795730,1.82,-1.88,-0.98,-48.95000000000001,102.71999999999998,-374.76
1616,1715533795740,1.82,-1.88,-0.98,-48.95000000000001,102.71999999999998,-374.76
1617,1715533795750,1.82,-1.88,-0.98,-48.95000000000001,102.71999999999998,-374.76
1618,1715533795760,0.41000000000000003,-2.26,-0.655,-48.95,102.72,-374.76
1619,1715533795770,-1.0,-2.64,-0.33,-46.20000000000001,261.05,-482.79
1620,1715533795780,-1.0,-2.64,-0.33,-46.20000000000001,261.05,-482.79
1621,1715533795790,-1.0,-2.64,-0.33,-46.2,261.05,-482.79
1622,1715533795800,-1.71,-2.6166666666666667,0.043333333333333335,-63.333333333333336,199.01666666666668,-499.33
1623,1715533795810,-3.1300000000000003,-2.57,0.79,-97.59999999999998,74.95,-532.41
1624,1715533795820,-3.13,-2.57,0.79,-97.6,74.95,-532.41
1625,1715533795830,-3.1300000000000003,-2.57,0.79,-97.59999999999998,74.95,-532.41
1626,1715533795840,-2.86,-2.11,1.03,-140.2,-95.33999999999999,-439.58
1627,1715533795850,-2.86,-2.11,1.03,-140.2,-95.33999999999999,-439.58
1628,1715533795860,-2.86,-2.11,1.03,-140.2,-95.33999999999999,-439.58
1629,1715533795870,-2.86,-2.11,1.03,-140.2,-95.33999999999999,-439.58
1630,1715533795880,-1.8,-1.76,0.95,-196.17,-90.21,-365.78
1631,1715533795890,-1.8,-1.76,0.9499999999999998,-196.17,-90.21,-365.78
1632,1715533795900,-1.8,-1.76,0.9499999999999998,-196.17,-90.21,-365.78
1633,1715533795910,-1.8,-1.76,0.95,-196.17,-90.21,-365.78
1634,1715533795920,-1.8,-1.76,0.9499999999999998,-196.17,-90.21,-365.78
1635,1715533795930,-1.8,-1.76,0.9499999999999998,-196.17,-90.21,-365.78
1636,1715533795940,-1.8,-1.76,0.95,-196.17,-90.21,-365.78
1637,1715533795950,-1.8,-1.76,0.9499999999999998,-196.17,-90.21,-365.78
1638,1715533795960,-1.8,-1.7600000000000002,0.95,-196.17,-90.21,-365.78
1639,1715533795970,-1.63,-1.6400000000000001,0.87,-232.67000000000002,-85.36,-335.41499999999996
1640,1715533795980,-1.46,-1.52,0.79,-269.17,-80.51,-305.05
1641,1715533795990,-1.4733333333333334,-1.3399999999999999,0.75,-299.2366666666667,-92.67,-296.18333333333334
1642,1715533796000,-1.4799999999999998,-1.25,0.73,-314.27,-98.75,-291.75
1643,1715533796010,-1.48,-1.25,0.73,-314.27,-98.75,-291.75
1644,1715533796020,-1.4799999999999998,-1.25,0.73,-314.27,-98.75,-291.75
1645,1715533796030,-1.4425,-1.1675,0.8875,-314.90999999999997,-81.9825,-288.21
1646,1715533796040,-1.33,-0.92,1.36,-316.83,-31.679999999999996,-277.59
1647,1715533796050,-1.33,-0.92,1.36,-316.83,-31.679999999999996,-277.59
1648,1715533796060,-1.33,-0.92,1.36,-316.83,-31.679999999999996,-277.59
1649,1715533796070,-2.1550000000000002,0.39249999999999996,1.9300000000000002,-273.3,60.19499999999999,-237.02999999999997
1650,1715533796080,-2.43,0.83,2.12,-258.79,90.82,-223.51
1651,1715533796090,-2.43,0.83,2.12,-258.79,90.82,-223.51
1652,1715533796100,-2.43,0.83,2.12,-258.79,90.82,-223.51
1653,1715533796110,-2.43,0.83,2.12,-258.79,90.82,-223.51
1654,1715533796120,-2.43,0.83,2.12,-258.79,90.82,-223.51
1655,1715533796130,-2.43,0.83,2.12,-258.79,90.82,-223.51
1656,1715533796140,-2.43,0.83,2.12,-258.79,90.82,-223.51
1657,1715533796150,-2.43,0.83,2.12,-258.79,90.82,-223.51
1658,1715533796160,-3.8233333333333337,0.43,2.266666666666667,-192.26000000000002,116.35333333333331,-68.52
1659,1715533796170,-6.61,-0.37,2.56,-59.2,167.42,241.46
1660,1715533796180,-6.155,-0.7425,2.6125,-59.2,167.42,241.46
1661,1715533796190,-4.79,-1.86,2.77,-102.66000000000001,-332.46,183.9
1662,1715533796200,-4.79,-1.86,2.77,-102.66000000000001,-332.46,183.9
1663,1715533796210,-4.79,-1.86,2.77,-102.66,-332.46,183.9
1664,1715533796220,-4.79,-1.86,2.77,-102.66000000000001,-332.46,183.9
1665,1715533796230,-3.775,-1.44,2.33,13.945000000000007,-153.505,226.32
1666,1715533796240,-2.76,-1.02,1.89,130.55,25.45,268.74
1667,1715533796250,-2.76,-1.02,1.89,130.55,25.45,268.74
1668,1715533796260,-2.5599999999999996,-0.89,1.5299999999999998,140.625,-60.48499999999999,280.70000000000005
1669,1715533796270,-2.36,-0.7600000000000001,1.17,150.7,-146.42,292.66
1670,1715533796280,-2.36,-0.7600000000000001,1.17,150.7,-146.42,292.66
1671,1715533796290,-2.36,-0.76,1.17,150.7,-146.42,292.66
1672,1715533796300,-1.8125,-0.8125,0.885,178.745,-137.36,304.96000000000004
1673,1715533796310,-1.63,-0.83,0.79,206.79,-128.3,317.26
1674,1715533796320,-1.63,-0.83,0.79,206.79,-128.3,317.26
1675,1715533796330,-1.63,-0.83,0.79,206.79,-128.3,317.26
1676,1715533796340,-1.63,-0.83,0.79,206.79,-128.3,317.26
1677,1715533796350,-1.63,-1.42,0.51,227.42,-108.52,390.5
1678,1715533796360,-1.63,-1.42,0.51,227.42,-108.52,390.5
1679,1715533796370,-1.63,-1.42,0.51,227.42,-108.52,390.5
1680,1715533796380,-1.3500000000000003,-1.7299999999999998,0.44,212.83,-77.7,426.33
1681,1715533796390,-1.3500000000000003,-1.7299999999999998,0.44,212.83,-77.7,426.33
1682,1715533796400,-1.35,-1.73,0.44,212.83,-77.7,426.33
1683,1715533796410,-1.3500000000000003,-1.7299999999999998,0.44,212.83,-77.7,426.33
1684,1715533796420,-1.3500000000000003,-1.7299999999999998,0.44,212.83,-77.7,426.33
1685,1715533796430,-1.3500000000000003,-1.7299999999999998,0.44,212.83,-77.7,426.33
1686,1715533796440,-1.3500000000000003,-1.7299999999999998,0.44,212.83,-77.7,426.33
1687,1715533796450,-1.35,-1.73,0.44,212.83,-77.7,426.33
1688,1715533796460,-1.3500000000000003,-1.7299999999999998,0.44,212.83,-77.7,426.33
1689,1715533796470,-1.3500000000000003,-1.7299999999999998,0.44,212.83,-77.7,426.33
1690,1715533796480,-1.35,-1.73,0.44,212.83,-77.7,426.33
1691,1715533796490,-1.3500000000000003,-1.7299999999999998,0.44,212.83,-77.7,426.33
1692,1715533796500,-1.49,-1.31,0.33,136.72,6.53,364.26
1693,1715533796510,-1.49,-1.31,0.33,136.72,6.53,364.26
1694,1715533796520,-1.49,-1.31,0.33,136.72,6.53,364.26
1695,1715533796530,-1.605,-1.32,0.18,109.56,-66.955,341.005
1696,1715533796540,-1.72,-1.33,0.03,82.4,-140.44,317.75
1697,1715533796550,-1.72,-1.33,0.03,82.4,-140.44,317.75
1698,1715533796560,-1.72,-1.33,0.03,82.4,-140.44,317.75
1699,1715533796570,-1.08,-1.3699999999999999,-0.36999999999999994,71.78,-157.0,315.2233333333333
1700,1715533796580,-0.76,-1.39,-0.57,66.47,-165.28,313.96
1701,1715533796590,-0.7600000000000001,-1.39,-0.57,66.47,-165.28,313.96
1702,1715533796600,-0.76,-1.39,-0.57,66.47,-165.28,313.96
1703,1715533796610,-0.7600000000000001,-1.39,-0.57,66.47,-165.28,313.96
1704,1715533796620,-0.7600000000000001,-1.39,-0.57,66.47,-165.28,313.96
1705,1715533796630,-0.76,-1.39,-0.57,66.47,-165.28,313.96
1706,1715533796640,-0.7600000000000001,-1.39,-0.57,66.47,-165.28,313.96
1707,1715533796650,-0.76,-1.39,-0.57,66.47,-165.28,313.96
1708,1715533796660,-0.76,-1.39,-0.57,66.47,-165.28,313.96
1709,1715533796670,-0.76,-1.39,-0.57,66.47,-165.28,313.96
1710,1715533796680,-0.76,-1.39,-0.57,66.47,-165.28,313.96
1711,1715533796690,4.51,-0.93,-1.77,28.135,-34.7,-74.405
1712,1715533796700,4.51,-0.93,-1.7700000000000002,43.27,45.35,-133.06
1713,1715533796710,4.51,-0.93,-1.77,43.27,45.35,-133.06
1714,1715533796720,4.51,-0.93,-1.7700000000000002,43.27,45.35,-133.06
1715,1715533796730,3.54,-1.42,-1.17,101.32,112.0,-251.53
1716,1715533796740,3.5400000000000005,-1.42,-1.17,101.32,112.0,-251.53
1717,1715533796750,3.5400000000000005,-1.42,-1.17,101.32,112.0,-251.53
1718,1715533796760,1.8533333333333335,-1.88,-0.93,123.94,140.44,-299.1766666666667
1719,1715533796770,1.01,-2.11,-0.81,135.25,154.66,-323.0
1720,1715533796780,1.01,-2.11,-0.81,135.25,154.66,-323.0
1721,1715533796790,1.01,-2.11,-0.81,135.25,154.66,-323.0
