id,timestamp,acc_x,acc_y,acc_z,gyro_x,gyro_y,gyro_z
0,1715534422210,0.9450000000000001,0.33499999999999996,-1.64,-129.305,64.39,-43.06
1,1715534422220,1.07,-0.32,-0.67,-303.04,-84.35,-93.14
2,1715534422230,1.07,-0.32,-0.67,-303.04,-84.35,-93.14
3,1715534422240,1.07,-0.32,-0.67,-303.04,-84.35,-93.14
4,1715534422250,0.89,-1.19,0.5825,-331.51,-140.15,-135.29749999999999
5,1715534422260,0.83,-1.48,1.0,-341.0,-158.75,-149.35
6,1715534422270,0.8299999999999998,-1.48,1.0,-341.0,-158.75,-149.35
7,1715534422280,0.704,-1.574,0.85,-344.37,-162.034,-155.088
8,1715534422290,0.2,-1.95,0.25,-357.85,-175.17,-178.04
9,1715534422300,0.2,-1.95,0.25,-357.85,-175.17,-178.04
10,1715534422310,0.2,-1.95,0.25,-357.85,-175.17,-178.04
11,1715534422320,0.274,-2.0,0.384,-357.85,-175.17,-178.04
12,1715534422330,0.57,-2.2,0.9200000000000002,-314.158,-268.554,-158.084
13,1715534422340,0.57,-2.2,0.92,-285.03,-330.81,-144.78
14,1715534422350,0.57,-2.2,0.9200000000000002,-285.03,-330.81,-144.78
15,1715534422360,0.57,-2.2,0.92,-285.03,-330.81,-144.78
16,1715534422370,0.57,-2.2,0.9200000000000002,-285.03,-330.81,-144.78
17,1715534422380,0.57,-2.2,0.92,-285.03,-330.81,-144.78
18,1715534422390,0.6699999999999999,-1.955,1.135,-329.92499999999995,-231.66,-104.035
19,1715534422400,0.4566666666666667,-1.7633333333333334,0.9033333333333333,-440.85999999999996,-77.41666666666667,-114.48333333333335
20,1715534422410,0.3,-1.7899999999999998,0.68,-473.88,-49.87,-140.08
21,1715534422420,0.3,-1.7899999999999998,0.68,-473.88,-49.87,-140.08
22,1715534422430,0.3,-1.79,0.68,-473.88,-49.87,-140.08
23,1715534422440,0.3,-1.7899999999999998,0.68,-473.88,-49.87,-140.08
24,1715534422450,0.3,-1.7899999999999998,0.68,-473.88,-49.87,-140.08
25,1715534422460,0.3,-1.7899999999999998,0.68,-473.88,-49.87,-140.08
26,1715534422470,0.3,-1.7899999999999998,0.68,-473.88,-49.87,-140.08
27,1715534422480,0.3,-1.7899999999999998,0.68,-473.88,-49.87,-140.08
28,1715534422490,0.3,-1.7899999999999998,0.68,-473.88,-49.87,-140.08
29,1715534422500,0.3,-1.7899999999999998,0.68,-473.88,-49.87,-140.08
30,1715534422510,0.3,-1.79,0.68,-473.87999999999994,-49.87,-140.08
31,1715534422520,0.3,-1.7899999999999998,0.68,-473.88,-49.87,-140.08
32,1715534422530,0.3,-1.79,0.68,-473.87999999999994,-49.87,-140.08
33,1715534422540,0.3,-1.7899999999999998,0.68,-473.88,-49.87,-140.08
34,1715534422550,0.3,-1.79,0.68,-473.88,-49.87,-140.08
35,1715534422560,0.3,-1.79,0.68,-473.88,-49.87,-140.08
36,1715534422570,0.3,-1.79,0.68,-473.88,-49.87,-140.08
37,1715534422580,-0.6225,-1.745,4.0625,-278.8275,40.4525,-123.9175
38,1715534422590,-0.93,-1.73,5.19,-213.81,70.56,-118.53
39,1715534422600,-0.93,-1.73,5.19,-213.81,70.56,-118.53
40,1715534422610,-0.57,-2.143333333333333,5.93,-23.543333333333333,-43.373333333333335,-59.93666666666667
41,1715534422620,-0.39,-2.35,6.3,71.59,-100.34,-30.64
42,1715534422630,-0.065,-2.245,5.84,71.59,-100.34,-30.64
43,1715534422640,0.26,-2.14,5.38,213.13,-7.39,-43.03
44,1715534422650,0.26,-2.14,5.38,213.13,-7.39,-43.03
45,1715534422660,0.26,-2.14,5.38,213.13000000000002,-7.389999999999999,-43.03
46,1715534422670,0.33,-1.8833333333333335,4.8,258.05333333333334,6.0200000000000005,-21.483333333333334
47,1715534422680,0.47,-1.37,3.64,347.9,32.84,21.61
48,1715534422690,0.47,-1.37,3.64,347.8999999999999,32.84,21.61
49,1715534422700,0.47,-1.37,3.64,347.8999999999999,32.84,21.61
50,1715534422710,0.47,-1.37,3.64,347.8999999999999,32.84,21.61
51,1715534422720,0.735,-1.1500000000000001,3.0300000000000002,360.14,118.775,28.69
52,1715534422730,1.0,-0.93,2.42,372.37999999999994,204.71,35.77
53,1715534422740,1.0066666666666666,-1.0216666666666667,2.2533333333333334,383.24333333333334,202.06500000000003,29.42166666666667
54,1715534422750,1.04,-1.4799999999999998,1.42,437.56,188.84,-2.32
55,1715534422760,1.04,-1.48,1.42,437.56000000000006,188.84,-2.32
56,1715534422770,1.04,-1.48,1.42,437.56,188.84,-2.32
57,1715534422780,1.03,-1.5625,1.3074999999999999,446.8375,176.465,-19.974999999999998
58,1715534422790,1.0,-1.81,0.97,474.67,139.34,-72.94
59,1715534422800,1.0,-1.8099999999999998,0.9700000000000001,474.67,139.34,-72.94
60,1715534422810,1.0,-1.8099999999999998,0.9700000000000001,474.67,139.34,-72.94
61,1715534422820,1.02,-1.945,1.075,434.57000000000005,152.495,-89.265
62,1715534422830,1.04,-2.08,1.18,394.47,165.65,-105.58999999999999
63,1715534422840,1.04,-2.08,1.18,394.47,165.65,-105.59
64,1715534422850,1.04,-2.08,1.18,394.47,165.65,-105.58999999999999
65,1715534422860,0.97,-2.035,1.075,378.96500000000003,164.215,-80.93
66,1715534422870,0.9,-1.99,0.9700000000000001,363.46,162.78,-56.27
67,1715534422880,0.9,-1.99,0.97,363.46,162.78,-56.27
68,1715534422890,0.9,-1.99,0.9700000000000001,363.46,162.78,-56.27
69,1715534422900,0.9,-1.99,0.97,363.46,162.78,-56.27
70,1715534422910,0.9,-1.99,0.9700000000000001,363.46,162.78,-56.27
71,1715534422920,0.9,-1.99,0.97,363.46,162.78,-56.27
72,1715534422930,0.9,-1.99,0.9700000000000001,363.46,162.78,-56.27
73,1715534422940,0.9,-1.99,0.9700000000000001,363.46,162.78,-56.27
74,1715534422950,0.9,-1.99,0.97,363.46,162.78,-56.27
75,1715534422960,0.9,-1.99,0.9700000000000001,363.46,162.78,-56.27
76,1715534422970,0.9,-1.99,0.97,363.46,162.78,-56.27
77,1715534422980,0.9,-1.99,0.9700000000000001,363.46,162.78,-56.27
78,1715534422990,0.9,-1.99,0.9700000000000001,363.46,162.78,-56.27
79,1715534423000,0.9,-1.99,0.9700000000000001,363.46,162.78,-56.27
80,1715534423010,0.9,-1.99,0.9700000000000001,363.46,162.78,-56.27
81,1715534423020,0.9,-1.99,0.9700000000000001,363.46,162.78,-56.27
82,1715534423030,0.9,-1.99,0.9700000000000001,363.46,162.78,-56.27
83,1715534423040,0.9,-1.99,0.9700000000000001,363.46,162.78,-56.27
84,1715534423050,0.9,-1.99,0.97,363.46,162.78,-56.27
85,1715534423060,0.9,-1.99,0.9700000000000001,363.46,162.78,-56.27
86,1715534423070,0.9,-1.99,0.9700000000000001,363.46,162.78,-56.27
87,1715534423080,0.9,-1.99,0.97,363.46,162.78,-56.27
88,1715534423090,0.9,-1.99,0.97,363.46,162.78,-56.27
89,1715534423100,0.22333333333333338,-1.5599999999999998,-0.8866666666666666,255.91666666666666,92.36666666666667,-28.460000000000004
90,1715534423110,-1.13,-0.7,-4.6,40.83,-48.46,27.16
91,1715534423120,-1.13,-0.6999999999999998,-4.6,40.83,-48.46,27.16
92,1715534423130,-1.13,-0.79,-4.38,-53.559999999999995,-25.330000000000002,50.69
93,1715534423140,-1.13,-0.88,-4.16,-147.95,-2.2,74.22
94,1715534423150,-1.13,-0.88,-4.16,-147.95,-2.2,74.22
95,1715534423160,-1.13,-0.88,-4.16,-147.95,-2.2,74.22
96,1715534423170,-0.23666666666666666,-1.2466666666666666,-2.66,-253.41666666666666,-29.26,163.61333333333334
97,1715534423180,0.21,-1.43,-1.91,-306.15,-42.79,208.31000000000003
98,1715534423190,0.21,-1.43,-1.91,-306.15,-42.79,208.31000000000003
99,1715534423200,0.21,-1.43,-1.91,-306.15,-42.79,208.31000000000003
100,1715534423210,1.87,-1.95,1.26,-540.16,-92.41,241.82
101,1715534423220,1.87,-1.95,1.26,-540.16,-92.41,241.82
102,1715534423230,1.87,-1.95,1.26,-540.16,-92.41,241.82
103,1715534423240,1.8175000000000001,-1.9675,1.56,-540.16,-92.41,241.82
104,1715534423250,1.66,-2.02,2.46,-514.9825,-88.4275,168.6275
105,1715534423260,1.66,-2.02,2.46,-506.59,-87.1,144.23
106,1715534423270,1.66,-2.02,2.46,-506.59,-87.09999999999998,144.23
107,1715534423280,1.66,-2.02,2.46,-506.59,-87.09999999999998,144.23
108,1715534423290,1.3399999999999999,-1.8800000000000001,2.04,-420.60999999999996,-139.62666666666667,102.76333333333332
109,1715534423300,1.18,-1.8099999999999998,1.83,-377.62000000000006,-165.89,82.03
110,1715534423310,1.18,-1.81,1.83,-377.62,-165.89,82.03
111,1715534423320,1.0733333333333333,-1.7233333333333334,1.656666666666667,-356.05999999999995,-194.90333333333334,66.32333333333334
112,1715534423330,1.02,-1.68,1.57,-345.28,-209.41,58.47
113,1715534423340,1.02,-1.68,1.57,-345.28,-209.41,58.47
114,1715534423350,1.02,-1.68,1.57,-345.28,-209.41,58.47
115,1715534423360,0.7949999999999999,-1.56,1.2325000000000002,-409.6375,-126.7825,65.655
116,1715534423370,0.7200000000000001,-1.5200000000000002,1.12,-431.09,-99.24,68.05
117,1715534423380,0.72,-1.52,1.12,-431.09,-99.24,68.05
118,1715534423390,0.72,-1.52,1.12,-431.09,-99.24,68.05
119,1715534423400,0.8000000000000002,-1.27,0.69,-447.81,-123.05,38.15
120,1715534423410,0.8000000000000002,-1.27,0.69,-447.81,-123.05,38.15
121,1715534423420,0.8000000000000002,-1.27,0.69,-447.81,-123.05,38.15
122,1715534423430,0.8000000000000002,-1.27,0.69,-447.81,-123.05,38.15
123,1715534423440,1.055,-1.1875,1.305,-468.87,-152.21,10.084999999999999
124,1715534423450,1.14,-1.16,1.51,-475.89,-161.93,0.73
125,1715534423460,1.14,-1.16,1.51,-475.89000000000004,-161.93,0.73
126,1715534423470,1.14,-1.16,1.51,-475.89,-161.93,0.73
127,1715534423480,1.14,-1.16,1.51,-475.89000000000004,-161.93,0.73
128,1715534423490,1.14,-1.16,1.51,-475.89000000000004,-161.93,0.73
129,1715534423500,1.14,-1.16,1.51,-475.89,-161.93,0.73
130,1715534423510,1.14,-1.16,1.51,-475.89000000000004,-161.93,0.73
131,1715534423520,1.14,-1.16,1.51,-475.89,-161.93,0.73
132,1715534423530,1.14,-1.16,1.51,-475.89000000000004,-161.93,0.73
133,1715534423540,1.14,-1.16,1.51,-475.89,-161.93,0.73
134,1715534423550,1.14,-1.16,1.51,-475.89000000000004,-161.93,0.73
135,1715534423560,1.14,-1.16,1.51,-475.89,-161.93,0.73
136,1715534423570,1.14,-1.16,1.51,-475.89000000000004,-161.93,0.73
137,1715534423580,1.14,-1.16,1.51,-475.89000000000004,-161.93,0.73
138,1715534423590,1.14,-1.16,1.51,-475.89000000000004,-161.93,0.73
139,1715534423600,1.14,-1.16,1.51,-475.89,-161.93,0.73
140,1715534423610,1.14,-1.16,1.51,-475.89000000000004,-161.93,0.73
141,1715534423620,1.14,-1.16,1.51,-475.89,-161.93,0.73
142,1715534423630,1.2933333333333332,-2.15,5.563333333333333,230.48666666666668,73.54666666666667,-20.546666666666667
143,1715534423640,0.88,-2.19,4.27,226.62,202.94,-6.96
144,1715534423650,0.88,-2.19,4.27,226.62,202.93999999999997,-6.96
145,1715534423660,0.88,-2.19,4.27,226.62,202.94,-6.96
146,1715534423670,0.92,-1.29,2.91,282.90000000000003,170.71333333333334,52.73333333333333
147,1715534423680,0.92,-1.29,2.91,311.04,154.6,82.58
148,1715534423690,0.92,-1.29,2.91,311.04,154.6,82.58
149,1715534423700,0.92,-1.29,2.91,311.04,154.6,82.58
150,1715534423710,0.92,-1.29,2.91,311.04,154.6,82.58
151,1715534423720,1.0425,-1.1775,2.69,338.6875,149.565,79.4675
152,1715534423730,1.41,-0.84,2.03,421.63,134.46,70.13
153,1715534423740,1.412,-0.9640000000000001,1.892,419.262,145.67800000000003,46.986
154,1715534423750,1.42,-1.46,1.34,409.79,190.55000000000004,-45.59
155,1715534423760,1.42,-1.46,1.34,409.79,190.55000000000004,-45.59
156,1715534423770,1.42,-1.46,1.34,409.79,190.55000000000004,-45.59
157,1715534423780,1.3025,-1.6225,1.2425000000000002,406.6775,182.0825,-55.432500000000005
158,1715534423790,0.95,-2.11,0.95,397.34,156.68,-84.96
159,1715534423800,0.9499999999999998,-2.11,0.9499999999999998,397.34,156.68,-84.96
160,1715534423810,0.9499999999999998,-2.11,0.9499999999999998,397.34,156.68,-84.96
161,1715534423820,1.115,-2.05,1.115,402.78749999999997,146.685,-84.06
162,1715534423830,1.28,-1.99,1.28,419.13,116.7,-81.36
163,1715534423840,1.28,-1.99,1.28,419.13,116.7,-81.36
164,1715534423850,1.28,-1.99,1.28,419.12999999999994,116.7,-81.36
165,1715534423860,1.28,-1.99,1.28,419.12999999999994,116.7,-81.36
166,1715534423870,1.08,-1.95,0.99,404.05,77.94,-134.28
167,1715534423880,1.08,-1.95,0.9899999999999999,404.05,77.94,-134.28
168,1715534423890,1.08,-1.95,0.9899999999999999,404.05,77.94,-134.28
169,1715534423900,1.215,-1.79,1.08,397.765,74.86,-132.29500000000002
170,1715534423910,1.3500000000000003,-1.63,1.17,391.48,71.78,-130.31
171,1715534423920,1.3500000000000003,-1.63,1.17,391.48,71.78,-130.31
172,1715534423930,1.35,-1.63,1.17,391.48,71.78,-130.31
173,1715534423940,1.35,-1.63,1.17,391.48,71.78,-130.31
174,1715534423950,1.35,-1.63,1.17,391.48,71.78,-130.31
175,1715534423960,1.3500000000000003,-1.63,1.17,391.48,71.78,-130.31
176,1715534423970,1.435,-1.58,0.615,274.05,61.0625,-150.13
177,1715534423980,1.21,-1.64,0.24,166.02,91.55,-115.48
178,1715534423990,1.21,-1.64,0.24,166.02,91.55,-115.48
179,1715534424000,1.21,-1.64,0.24,166.02,91.55,-115.48
180,1715534424010,0.5425,-1.5775,-0.6074999999999999,179.11,68.9825,-136.14
181,1715534424020,-1.46,-1.39,-3.15,218.38,1.28,-198.12
182,1715534424030,-1.46,-1.39,-3.15,218.38,1.28,-198.12
183,1715534424040,-1.46,-1.39,-3.15,218.38,1.28,-198.12
184,1715534424050,-2.3266666666666667,-1.3366666666666667,-4.19,174.55666666666664,11.533333333333333,-151.67333333333332
185,1715534424060,-2.76,-1.31,-4.71,86.91000000000001,32.04,-58.78
186,1715534424070,-2.76,-1.31,-4.71,86.91,32.04,-58.78
187,1715534424080,-2.76,-1.31,-4.71,86.91,32.04,-58.78
188,1715534424090,-2.76,-1.31,-4.71,86.91,32.04,-58.78
189,1715534424100,-2.76,-1.31,-4.71,86.91000000000001,32.04,-58.78
190,1715534424110,-2.76,-1.31,-4.71,86.91,32.04,-58.78
191,1715534424120,-2.76,-1.31,-4.71,86.91000000000001,32.04,-58.78
192,1715534424130,-2.76,-1.31,-4.71,86.91,32.04,-58.78
193,1715534424140,-2.76,-1.31,-4.71,86.91000000000001,32.04,-58.78
194,1715534424150,-2.415,-1.275,-4.125,-33.785,-15.260000000000002,36.129999999999995
195,1715534424160,-2.07,-1.24,-3.54,-154.48,-62.56,131.04
196,1715534424170,-0.8399999999999999,-1.5150000000000001,-2.095,-186.1275,-50.735,183.225
197,1715534424180,0.38999999999999996,-1.79,-0.65,-281.07,-15.26,339.78
198,1715534424190,0.39,-1.79,-0.65,-281.07,-15.26,339.78
199,1715534424200,0.38999999999999996,-1.79,-0.65,-281.07,-15.26,339.78
200,1715534424210,2.15,-1.79,0.72,-372.435,-42.2675,344.955
201,1715534424220,2.15,-1.79,0.7200000000000001,-402.89000000000004,-51.27,346.68
202,1715534424230,2.15,-1.79,0.72,-402.89,-51.27,346.68
203,1715534424240,2.13,-1.88,1.185,-402.89,-51.27,346.68
204,1715534424250,2.11,-1.97,1.6499999999999997,-356.0566666666667,-158.16333333333333,253.82666666666668
205,1715534424260,2.11,-1.97,1.65,-332.64,-211.61,207.4
206,1715534424270,2.11,-1.97,1.6499999999999997,-332.64,-211.61,207.4
207,1715534424280,1.9974999999999998,-1.9175,1.6824999999999999,-341.3375,-185.4875,205.5375
208,1715534424290,1.66,-1.76,1.78,-367.43,-107.12,199.95
209,1715534424300,1.66,-1.76,1.78,-367.43,-107.12,199.95
210,1715534424310,1.66,-1.76,1.78,-367.43,-107.12,199.95
211,1715534424320,1.27,-1.7,1.3900000000000001,-414.6725,-58.0475,188.8275
212,1715534424330,1.14,-1.68,1.26,-430.42,-41.69,185.12
213,1715534424340,1.14,-1.6800000000000002,1.26,-430.41999999999996,-41.69,185.12
214,1715534424350,1.14,-1.68,1.26,-430.42,-41.69,185.12
215,1715534424360,0.93,-1.8500000000000003,1.34,-445.31333333333333,-49.04999999999999,160.18
216,1715534424370,0.93,-1.85,1.34,-452.76,-52.73,147.71
217,1715534424380,0.93,-1.85,1.34,-452.76000000000005,-52.73,147.71
218,1715534424390,0.93,-1.8500000000000003,1.34,-452.76,-52.73,147.71
219,1715534424400,0.75,-1.54,1.14,-567.93,79.47,148.19
220,1715534424410,0.75,-1.54,1.14,-567.93,79.47,148.19
221,1715534424420,0.75,-1.54,1.14,-567.93,79.47,148.19
222,1715534424430,0.7766666666666667,-1.4966666666666668,1.3366666666666667,-567.93,79.47,148.19
223,1715534424440,0.83,-1.41,1.73,-520.94,-62.56,28.26
224,1715534424450,0.83,-1.41,1.7299999999999998,-520.94,-62.56,28.26
225,1715534424460,0.83,-1.41,1.73,-520.94,-62.56,28.26
226,1715534424470,0.8633333333333333,-1.26,2.263333333333333,-520.94,-62.56,28.26
227,1715534424480,0.93,-0.96,3.33,-446.355,-48.34,27.22
228,1715534424490,0.93,-0.96,3.33,-371.77,-34.12,26.18
229,1715534424500,0.93,-0.96,3.33,-371.77,-34.12,26.18
230,1715534424510,0.7233333333333333,-0.9066666666666666,3.72,-371.77,-34.12,26.179999999999996
231,1715534424520,0.31,-0.8,4.5,-266.6,-50.48,-24.41
232,1715534424530,0.31,-0.8000000000000002,4.5,-266.6,-50.48,-24.41
233,1715534424540,0.31,-0.8,4.5,-266.6,-50.48,-24.41
234,1715534424550,1.21,-1.24,5.88,-266.6,-50.48,-24.41
235,1715534424560,2.11,-1.68,7.260000000000001,-144.20666666666668,-65.28666666666666,5.616666666666666
236,1715534424570,2.11,-1.68,7.26,-83.01,-72.69,20.63
237,1715534424580,2.11,-1.68,7.26,-83.01,-72.69,20.63
238,1715534424590,2.11,-1.68,7.26,-83.01,-72.69,20.63
239,1715534424600,2.11,-1.68,7.26,-83.01,-72.69,20.63
240,1715534424610,2.11,-1.68,7.260000000000001,-83.01,-72.69,20.63
241,1715534424620,2.11,-1.68,7.260000000000001,-83.01,-72.69,20.63
242,1715534424630,2.11,-1.68,7.26,-83.01,-72.69,20.63
243,1715534424640,2.11,-1.68,7.26,-83.01,-72.69,20.63
244,1715534424650,2.11,-1.68,7.260000000000001,-83.01,-72.69,20.63
245,1715534424660,2.11,-1.68,7.26,-83.01,-72.69,20.63
246,1715534424670,2.11,-1.68,7.26,-83.01,-72.69,20.63
247,1715534424680,0.61,-1.17,2.32,287.66,171.08,-22.4
248,1715534424690,0.61,-1.17,2.32,287.66,171.08,-22.4
249,1715534424700,0.61,-1.17,2.32,287.66,171.08,-22.4
250,1715534424710,0.87,-0.77,1.7299999999999998,393.07,145.87,46.81
251,1715534424720,0.87,-0.77,1.7299999999999998,393.07,145.87,46.81
252,1715534424730,0.87,-0.77,1.73,393.07,145.87,46.81
253,1715534424740,0.87,-0.77,1.73,393.07,145.87,46.81
254,1715534424750,1.08,-1.2,0.9200000000000002,464.6,158.45,-37.9
255,1715534424760,1.08,-1.2,0.92,464.6000000000001,158.45,-37.9
256,1715534424770,1.08,-1.2,0.92,464.6,158.45,-37.9
257,1715534424780,1.08,-1.2,0.92,464.6000000000001,158.45,-37.9
258,1715534424790,0.84,-1.78,0.9066666666666667,446.6933333333333,94.56333333333333,-92.83333333333333
259,1715534424800,0.72,-2.07,0.9,437.74,62.62,-120.3
260,1715534424810,0.72,-2.07,0.9,437.74,62.62,-120.3
261,1715534424820,0.8200000000000001,-2.025,1.205,401.12,95.885,-100.435
262,1715534424830,0.92,-1.9799999999999998,1.51,364.5,129.15,-80.57
263,1715534424840,0.92,-1.98,1.51,364.5,129.15,-80.57
264,1715534424850,0.92,-1.9799999999999998,1.51,364.5,129.15,-80.57
265,1715534424860,0.92,-1.98,1.51,364.5,129.15,-80.57
266,1715534424870,1.05,-1.72,1.04,399.23,106.26,-107.42
267,1715534424880,1.05,-1.72,1.04,399.23,106.26,-107.42
268,1715534424890,1.05,-1.72,1.04,399.23,106.26,-107.42
269,1715534424900,1.26,-1.68,0.88,369.69,136.96,-164.73
270,1715534424910,1.26,-1.68,0.88,369.69,136.96,-164.73
271,1715534424920,1.26,-1.68,0.88,369.69,136.96,-164.73
272,1715534424930,1.2466666666666668,-1.61,0.7933333333333333,334.49333333333334,148.84333333333333,-166.25666666666666
273,1715534424940,1.22,-1.47,0.62,264.1,172.61,-169.31
274,1715534424950,1.22,-1.47,0.62,264.1,172.61,-169.31
275,1715534424960,1.22,-1.47,0.62,264.1,172.61,-169.31
276,1715534424970,1.22,-1.47,0.62,264.1,172.61,-169.31
277,1715534424980,0.82,-1.45,-0.62,222.78000000000003,213.61999999999998,-163.45
278,1715534424990,0.82,-1.45,-0.62,222.78,213.62,-163.45
279,1715534425000,0.82,-1.45,-0.62,222.78,213.62,-163.45
280,1715534425010,0.45749999999999996,-1.295,-1.1549999999999998,220.735,181.76,-158.2175
281,1715534425020,-0.63,-0.83,-2.76,214.6,86.18,-142.52
282,1715534425030,-0.63,-0.83,-2.76,214.6,86.18,-142.52
283,1715534425040,-0.63,-0.83,-2.76,214.6,86.18,-142.52
284,1715534425050,-1.325,-0.8049999999999999,-4.04,176.20999999999998,68.235,-140.2
285,1715534425060,-2.02,-0.7799999999999999,-5.32,137.82,50.29,-137.88
286,1715534425070,-2.02,-0.78,-5.32,137.82,50.29,-137.88
287,1715534425080,-2.02,-0.78,-5.32,137.82,50.29,-137.88
288,1715534425090,-2.4175,-1.77,-5.6575,137.82,50.29,-137.88
289,1715534425100,-2.55,-2.1,-5.77,-57.74,-137.7,25.27
290,1715534425110,-2.55,-2.1,-5.77,-57.74,-137.7,25.27
291,1715534425120,-2.55,-2.1,-5.77,-57.74,-137.7,25.27
292,1715534425130,-2.55,-2.1,-5.77,-57.74,-137.7,25.27
293,1715534425140,-2.55,-2.1,-5.77,-57.74,-137.7,25.27
294,1715534425150,-2.55,-2.1,-5.77,-57.74,-137.7,25.27
295,1715534425160,-2.55,-2.1,-5.77,-57.74,-137.7,25.27
296,1715534425170,-2.55,-2.1,-5.77,-57.739999999999995,-137.7,25.27
297,1715534425180,-2.55,-2.1,-5.77,-57.74,-137.7,25.27
298,1715534425190,-2.55,-2.1,-5.77,-57.74,-137.7,25.27
299,1715534425200,0.20000000000000018,-2.04,-1.5549999999999997,-262.755,-115.16,153.3375
300,1715534425210,2.95,-1.98,2.66,-458.31,-131.77,206.18
301,1715534425220,2.95,-1.98,2.66,-458.31000000000006,-131.77,206.18
302,1715534425230,2.95,-1.98,2.66,-458.31,-131.77,206.18
303,1715534425240,2.305,-1.7650000000000001,2.33,-420.03999999999996,-106.2,175.385
304,1715534425250,1.66,-1.55,2.0,-381.77,-80.63,144.59
305,1715534425260,1.66,-1.55,2.0,-381.77,-80.63,144.59
306,1715534425270,1.6599999999999997,-1.55,2.0,-381.77,-80.63,144.59
307,1715534425280,1.2866666666666668,-1.4833333333333334,1.4666666666666668,-371.7633333333333,-92.42999999999999,125.95333333333333
308,1715534425290,1.1,-1.45,1.2,-351.75,-116.03,88.68
309,1715534425300,1.1,-1.45,1.2,-351.75,-116.03000000000002,88.68
310,1715534425310,1.1,-1.45,1.2,-351.75,-116.03,88.68
311,1715534425320,1.0,-1.4633333333333332,1.3,-384.5833333333333,-95.68333333333334,57.39333333333334
312,1715534425330,0.95,-1.47,1.35,-401.0,-85.51,41.75
313,1715534425340,0.95,-1.47,1.35,-401.0,-85.51,41.75
314,1715534425350,0.95,-1.47,1.35,-401.0,-85.51,41.75
315,1715534425360,0.6875,-1.5525,0.9225000000000001,-457.58,-29.62,22.0625
316,1715534425370,0.6,-1.58,0.78,-476.44,-10.99,15.5
317,1715534425380,0.6,-1.58,0.78,-476.44,-10.99,15.5
318,1715534425390,0.6,-1.58,0.78,-476.43999999999994,-10.99,15.5
319,1715534425400,0.8000000000000002,-1.5200000000000002,1.06,-375.60999999999996,-178.77,-28.320000000000004
320,1715534425410,0.8,-1.52,1.06,-375.61,-178.77,-28.32
321,1715534425420,0.8,-1.52,1.06,-375.61,-178.77,-28.32
322,1715534425430,0.8000000000000002,-1.5200000000000002,1.06,-375.60999999999996,-178.77,-28.320000000000004
323,1715534425440,0.64,-0.9800000000000001,2.01,-408.962,-112.56200000000001,-28.272000000000002
324,1715534425450,0.64,-0.98,2.01,-417.3,-96.01,-28.26
325,1715534425460,0.64,-0.98,2.01,-417.3,-96.01,-28.26
326,1715534425470,0.64,-0.98,2.01,-417.3,-96.01,-28.26
327,1715534425480,0.79,-0.4600000000000001,3.8199999999999994,-340.58,-112.43000000000002,-89.78
328,1715534425490,0.79,-0.46,3.82,-340.58,-112.43,-89.78
329,1715534425500,0.79,-0.46,3.82,-340.58,-112.43,-89.78
330,1715534425510,0.48000000000000004,-0.7125,4.574999999999999,-301.425,-107.7,-61.75
331,1715534425520,-0.45,-1.47,6.840000000000001,-183.96,-93.51,22.34
332,1715534425530,-0.45,-1.47,6.84,-183.96,-93.51,22.34
333,1715534425540,-0.45,-1.47,6.840000000000001,-183.96,-93.51,22.34
334,1715534425550,1.3575,-1.4249999999999998,6.967499999999999,47.527499999999996,-5.3850000000000025,57.724999999999994
335,1715534425560,1.96,-1.41,7.01,124.69,23.99,69.52
336,1715534425570,1.96,-1.41,7.01,124.69,23.99,69.52
337,1715534425580,1.96,-1.41,7.01,124.69,23.99,69.52
338,1715534425590,1.96,-1.41,7.01,124.69,23.99,69.52
339,1715534425600,,,,,,
340,1715534425610,1.55,-1.99,5.36,253.72,101.32,-67.93
341,1715534425620,1.55,-1.99,5.36,253.72,101.32,-67.93
342,1715534425630,,,,,,
343,1715534425640,1.25,-1.31,3.42,237.06,227.48,-16.05
344,1715534425650,1.25,-1.31,3.42,237.06,227.48,-16.05
345,1715534425660,1.25,-1.31,3.42,237.06,227.48,-16.05
346,1715534425670,1.25,-1.31,3.42,237.06,227.48,-16.05
347,1715534425680,1.25,-1.31,3.42,237.06,227.48,-16.05
348,1715534425690,1.25,-1.31,3.42,237.06,227.48,-16.05
349,1715534425700,1.25,-1.31,3.42,237.06,227.48,-16.05
350,1715534425710,1.25,-1.31,3.4200000000000004,237.06,227.47999999999996,-16.05
351,1715534425720,1.25,-1.31,3.42,237.06,227.48,-16.05
352,1715534425730,1.4,-1.155,2.65,302.155,239.29,-26.395000000000003
353,1715534425740,1.4380000000000002,-1.186,1.6939999999999997,381.154,240.724,-51.779999999999994
354,1715534425750,0.99,-1.93,0.95,436.77,199.22,-111.94
355,1715534425760,0.99,-1.9300000000000002,0.95,436.77,199.22,-111.94000000000001
356,1715534425770,0.99,-1.93,0.95,436.77,199.22,-111.94
357,1715534425780,0.8859999999999999,-2.186,1.054,451.122,129.01399999999998,-119.224
358,1715534425790,0.86,-2.25,1.08,460.69,82.21,-124.08
359,1715534425800,0.86,-2.25,1.08,460.69,82.21,-124.08
360,1715534425810,0.86,-2.25,1.08,460.68999999999994,82.21,-124.08
361,1715534425820,1.0,-1.93,1.05,393.55,151.31,-63.29
362,1715534425830,1.0,-1.93,1.05,393.55,151.31,-63.29
363,1715534425840,1.0,-1.9300000000000002,1.05,393.55,151.31,-63.29
364,1715534425850,1.0,-1.93,1.05,393.55,151.31,-63.29
365,1715534425860,1.02,-1.61,0.73,311.95,190.86,-86.98
366,1715534425870,1.02,-1.61,0.73,311.95,190.86,-86.98
367,1715534425880,1.02,-1.61,0.73,311.95,190.86,-86.98
368,1715534425890,1.02,-1.61,0.73,311.95,190.86,-86.98
369,1715534425900,0.86,-1.3,0.55,246.83,175.78,-73.61
370,1715534425910,0.86,-1.3,0.55,246.83,175.78,-73.61
371,1715534425920,0.86,-1.3,0.55,246.83,175.78,-73.61
372,1715534425930,1.03,-1.06,0.30500000000000005,161.56,256.56,-60.21
373,1715534425940,1.2,-0.82,0.06,76.29,337.34,-46.81
374,1715534425950,1.2,-0.82,0.06,76.29,337.34,-46.81
375,1715534425960,1.2,-0.82,0.06,76.29,337.34,-46.81
376,1715534425970,0.8099999999999999,-0.815,-0.5399999999999999,64.495,316.8775,-49.45
377,1715534425980,0.42000000000000004,-0.8100000000000002,-1.14,29.110000000000003,255.49,-57.36999999999999
378,1715534425990,0.42,-0.81,-1.14,29.11,255.49,-57.37
379,1715534426000,0.42,-0.81,-1.14,29.11,255.49,-57.37
380,1715534426010,-0.11249999999999999,-0.34500000000000003,-1.935,57.537499999999994,177.7775,-57.5075
381,1715534426020,-0.29,-0.19,-2.2,142.82,-55.36,-57.92
382,1715534426030,-0.29,-0.19,-2.2,142.82,-55.36,-57.92
383,1715534426040,-0.29,-0.19,-2.2,142.82,-55.36,-57.92
384,1715534426050,-0.194,-0.614,-4.568,39.806,-6.802,-77.88199999999999
385,1715534426060,-0.17,-0.72,-5.16,-28.87,25.57,-91.19
386,1715534426070,-0.17,-0.72,-5.16,-28.87,25.57,-91.19
387,1715534426080,-0.17,-0.72,-5.16,-28.87,25.57,-91.19
388,1715534426090,-0.77,0.38999999999999996,-4.85,-28.87,25.570000000000004,-91.19
389,1715534426100,-0.77,0.39,-4.85,241.03,-201.78,93.75
390,1715534426110,-0.77,0.39,-4.85,241.03,-201.78,93.75
391,1715534426120,-0.8966666666666666,-0.016666666666666646,-4.51,119.69,-169.96,98.02333333333333
392,1715534426130,-1.15,-0.83,-3.83,-122.99,-106.32,106.57
393,1715534426140,-1.15,-0.83,-3.83,-122.99,-106.32,106.57
394,1715534426150,-1.15,-0.83,-3.83,-122.99,-106.32,106.57
395,1715534426160,-1.15,-0.83,-3.83,-122.99,-106.32,106.57
396,1715534426170,-1.15,-0.83,-3.83,-122.99,-106.32,106.57
397,1715534426180,-1.15,-0.83,-3.83,-122.99,-106.32,106.57
398,1715534426190,-1.15,-0.83,-3.83,-122.99,-106.32,106.57
399,1715534426200,-1.15,-0.83,-3.83,-122.99,-106.32,106.57
400,1715534426210,-1.15,-0.83,-3.83,-122.99,-106.32,106.57
401,1715534426220,-1.15,-0.83,-3.83,-122.99,-106.32,106.57
402,1715534426230,-1.15,-0.8299999999999998,-3.8299999999999996,-122.98999999999998,-106.31999999999998,106.56999999999998
403,1715534426240,-1.15,-0.83,-3.83,-122.99,-106.32,106.57
404,1715534426250,-0.1766666666666666,-1.1766666666666667,-2.1633333333333336,-209.18999999999997,-118.79333333333334,160.81
405,1715534426260,,,,,,
406,1715534426270,1.34,-1.82,2.06,-438.48,-46.33,165.53
407,1715534426280,0.94,-1.76,1.46,-376.89,-70.31,114.81
408,1715534426290,,,,,,
409,1715534426300,,,,,,
410,1715534426310,0.89,-1.75,1.32,-440.43,-51.27,56.15
411,1715534426320,0.89,-1.75,1.32,-440.43,-51.27,56.15
412,1715534426330,0.89,-1.75,1.32,-440.43,-51.27,56.15
413,1715534426340,0.69,-1.9,1.3,-440.43,-51.27,56.15
414,1715534426350,0.49000000000000005,-2.05,1.28,-543.09,16.54,3.91
415,1715534426360,0.49,-2.05,1.28,-543.09,16.54,3.91
416,1715534426370,0.49,-2.05,1.28,-543.09,16.54,3.91
417,1715534426380,0.435,-2.045,1.095,-501.13,-34.64,-8.45
418,1715534426390,0.38000000000000006,-2.04,0.91,-459.17,-85.82,-20.81
419,1715534426400,0.38,-2.04,0.91,-459.17,-85.82,-20.81
420,1715534426410,0.38,-2.04,0.91,-459.17,-85.82,-20.81
421,1715534426420,0.3725,-1.9300000000000002,1.0274999999999999,-445.7575,-107.38,-22.259999999999998
422,1715534426430,0.35,-1.6,1.38,-405.52,-172.06,-26.61
423,1715534426440,0.35,-1.6,1.38,-405.52,-172.06,-26.61
424,1715534426450,0.35,-1.6,1.38,-405.52,-172.06,-26.61
425,1715534426460,0.51,-1.05,1.895,-388.065,-196.75,-16.08
426,1715534426470,0.67,-0.5,2.41,-370.61,-221.44,-5.55
427,1715534426480,0.67,-0.5,2.41,-370.61,-221.44,-5.55
428,1715534426490,0.67,-0.5,2.41,-370.61,-221.44,-5.55
429,1715534426500,0.39,-0.955,4.49,-331.79,-188.785,30.305
430,1715534426510,0.11,-1.41,6.57,-292.97,-156.13,66.16
431,1715534426520,0.11,-1.41,6.57,-292.97,-156.13,66.16
432,1715534426530,0.11,-1.41,6.57,-292.97,-156.13,66.16
433,1715534426540,2.63,0.31,7.3,92.22,-74.77,106.45
434,1715534426550,2.63,0.31,7.3,92.21999999999998,-74.77,106.45
435,1715534426560,2.63,0.31,7.3,92.21999999999998,-74.77,106.45
436,1715534426570,2.63,0.31,7.3,92.22,-74.77,106.45
437,1715534426580,2.29,-1.36,5.84,222.23,28.93,-180.48
438,1715534426590,2.29,-1.36,5.84,222.23,28.93,-180.48
439,1715534426600,2.29,-1.36,5.84,222.23,28.929999999999996,-180.48
440,1715534426610,2.29,-1.36,5.84,222.23,28.93,-180.48
441,1715534426620,0.83,-1.94,4.25,163.15,192.63,-134.95
442,1715534426630,0.83,-1.94,4.25,163.15,192.63,-134.95
443,1715534426640,0.83,-1.9400000000000002,4.25,163.15,192.63,-134.95
444,1715534426650,0.83,-1.94,4.25,163.15,192.63,-134.95
445,1715534426660,0.54,-1.01,2.95,299.44,82.46,-10.8
446,1715534426670,0.54,-1.01,2.95,299.44,82.46,-10.8
447,1715534426680,0.54,-1.01,2.9500000000000006,299.44,82.46,-10.800000000000002
448,1715534426690,0.54,-1.01,2.95,299.44,82.46,-10.8
449,1715534426700,0.54,-1.01,2.95,299.44,82.46,-10.8
450,1715534426710,0.54,-1.01,2.95,299.44,82.46,-10.8
451,1715534426720,0.54,-1.01,2.95,299.44,82.46,-10.8
452,1715534426730,0.54,-1.01,2.9500000000000006,299.44,82.46,-10.800000000000002
453,1715534426740,0.54,-1.01,2.95,299.44,82.46,-10.8
454,1715534426750,0.54,-1.01,2.95,299.44,82.46,-10.8
455,1715534426760,0.54,-1.01,2.9500000000000006,299.44,82.46,-10.800000000000002
456,1715534426770,0.7150000000000001,-1.5,2.05,360.53499999999997,62.80499999999999,-109.74000000000001
457,1715534426780,0.89,-1.99,1.15,421.63,43.15,-208.68
458,1715534426790,0.89,-1.99,1.15,421.62999999999994,43.15,-208.67999999999998
459,1715534426800,0.89,-1.99,1.15,421.63,43.15,-208.68
460,1715534426810,0.99,-1.9,1.34,371.365,79.5925,-192.615
461,1715534426820,0.9899999999999999,-1.8999999999999997,1.34,354.60999999999996,91.74,-187.26
462,1715534426830,0.99,-1.9,1.34,354.61,91.74,-187.26
463,1715534426840,1.0075,-1.9249999999999998,1.3,336.62,113.58999999999999,-192.325
464,1715534426850,1.06,-2.0,1.18,282.65,179.14,-207.52
465,1715534426860,1.06,-2.0,1.18,282.65,179.14,-207.52
466,1715534426870,1.06,-2.0,1.18,282.65,179.14,-207.52
467,1715534426880,0.9950000000000001,-1.885,1.035,278.47,179.72,-182.65
468,1715534426890,0.93,-1.7700000000000002,0.89,274.29,180.30000000000004,-157.78
469,1715534426900,0.93,-1.7700000000000002,0.89,274.29,180.30000000000004,-157.78
470,1715534426910,0.93,-1.77,0.89,274.29,180.3,-157.78
471,1715534426920,0.935,-1.6825,0.7875,269.225,169.45000000000002,-155.29250000000002
472,1715534426930,0.95,-1.42,0.48,254.03,136.9,-147.83
473,1715534426940,0.9499999999999998,-1.42,0.48,254.03,136.9,-147.83
474,1715534426950,0.95,-1.42,0.48,254.03,136.9,-147.83
475,1715534426960,0.9299999999999999,-1.41,0.245,218.01999999999998,168.945,-140.14
476,1715534426970,0.91,-1.4,0.01,182.01,200.99,-132.45
477,1715534426980,0.91,-1.4,0.01,182.01,200.99,-132.45
478,1715534426990,0.9099999999999999,-1.4,0.01,182.01,200.99,-132.45
479,1715534427000,0.043333333333333335,-1.16,-1.3833333333333335,157.27,193.33666666666667,-97.05
480,1715534427010,-0.39,-1.04,-2.08,144.9,189.51,-79.35
481,1715534427020,-0.39,-1.04,-2.08,144.9,189.51,-79.35
482,1715534427030,-0.39,-1.04,-2.08,144.9,189.51,-79.35
483,1715534427040,-0.7066666666666667,-0.88,-2.7533333333333334,134.83,147.31666666666666,-69.13666666666667
484,1715534427050,-1.34,-0.56,-4.1,114.69,62.93,-48.71
485,1715534427060,-1.34,-0.56,-4.1,114.69,62.93,-48.71
486,1715534427070,-1.34,-0.56,-4.1,114.69,62.93,-48.71
487,1715534427080,-2.25,-1.0,-5.92,133.12,-118.47,73.3
488,1715534427090,-2.25,-1.0,-5.92,133.12,-118.47,73.3
489,1715534427100,-2.25,-1.0,-5.919999999999999,133.12,-118.46999999999998,73.3
490,1715534427110,-2.25,-1.0,-5.92,133.12,-118.47,73.3
491,1715534427120,-1.87,-1.19,-4.9,-102.39333333333333,-33.916666666666664,156.06666666666666
492,1715534427130,-1.87,-1.19,-4.9,-220.15,8.36,197.45
493,1715534427140,-1.87,-1.19,-4.9,-220.15,8.36,197.45
494,1715534427150,-1.0133333333333334,-1.3566666666666667,-3.7933333333333334,-220.15,8.36,197.44999999999996
495,1715534427160,0.7,-1.69,-1.58,-331.12,-120.72999999999999,315.31
496,1715534427170,0.6999999999999998,-1.6900000000000002,-1.58,-331.12,-120.73,315.31
497,1715534427180,0.7,-1.69,-1.58,-331.12,-120.73,315.31
498,1715534427190,1.7533333333333332,-1.9833333333333332,0.3466666666666667,-396.14000000000004,-103.19333333333334,298.91
499,1715534427200,2.28,-2.13,1.31,-526.18,-68.12,266.11
500,1715534427210,2.28,-2.13,1.31,-526.18,-68.12,266.11
501,1715534427220,2.28,-2.13,1.31,-526.18,-68.12,266.11
502,1715534427230,2.28,-2.13,1.31,-526.18,-68.12,266.11
503,1715534427240,2.28,-2.13,1.31,-526.18,-68.12,266.11
504,1715534427250,2.28,-2.13,1.31,-526.18,-68.12,266.11
505,1715534427260,2.28,-2.13,1.31,-526.18,-68.12,266.11
506,1715534427270,2.28,-2.13,1.31,-526.18,-68.12,266.11
507,1715534427280,2.28,-2.13,1.31,-526.18,-68.12,266.11
508,1715534427290,2.28,-2.13,1.31,-526.18,-68.12,266.11
509,1715534427300,1.35,-2.06,1.93,-383.85,-108.64,91.49
510,1715534427310,0.91,-1.75,1.3,-345.58,-122.31,78.67
511,1715534427320,0.91,-1.75,1.3,-345.58,-122.31,78.67
512,1715534427330,0.91,-1.75,1.3,-345.58,-122.31,78.67
513,1715534427340,0.91,-1.75,1.3,-345.58,-122.31,78.67
514,1715534427350,0.88,-1.64,1.17,-408.69,-86.43,86.49
515,1715534427360,0.88,-1.64,1.17,-408.69,-86.43,86.49
516,1715534427370,0.88,-1.64,1.17,-408.69,-86.43,86.49
517,1715534427380,0.8049999999999999,-1.6949999999999998,1.1,-444.855,-91.28,75.015
518,1715534427390,0.73,-1.75,1.03,-481.02,-96.13,63.54
519,1715534427400,0.73,-1.75,1.03,-481.02,-96.13,63.54
520,1715534427410,0.73,-1.75,1.03,-481.02,-96.13,63.54
521,1715534427420,0.8019999999999999,-1.574,1.3900000000000001,-481.02,-96.13,63.54
522,1715534427430,0.91,-1.31,1.93,-424.3,-153.25666666666666,68.78666666666666
523,1715534427440,0.91,-1.31,1.93,-395.94,-181.82,71.41
524,1715534427450,0.91,-1.31,1.93,-395.94,-181.82,71.41
525,1715534427460,1.0,-0.62,2.5225,-333.5925,-142.595,68.845
526,1715534427470,1.03,-0.38999999999999996,2.72,-312.81,-129.52,67.99
527,1715534427480,1.03,-0.38999999999999996,2.72,-312.81,-129.52,67.99
528,1715534427490,1.03,-0.39,2.72,-312.81,-129.52,67.99
529,1715534427500,1.33,0.1275,4.0925,-270.0975,-77.1025,13.93
530,1715534427510,1.43,0.3,4.55,-255.86,-59.63,-4.09
531,1715534427520,1.43,0.3,4.55,-255.86,-59.63,-4.09
532,1715534427530,1.43,0.3,4.55,-255.86,-59.63,-4.09
533,1715534427540,1.45,-0.06,6.91,-173.1,31.86,-42.97
534,1715534427550,1.45,-0.06,6.91,-173.1,31.86,-42.97
535,1715534427560,1.45,-0.06,6.91,-173.1,31.86,-42.97
536,1715534427570,1.45,-0.06,6.91,-173.1,31.86,-42.97
537,1715534427580,2.22,-1.7899999999999998,5.87,228.45,31.07,-96.44
538,1715534427590,2.22,-1.79,5.87,228.44999999999996,31.070000000000004,-96.44
539,1715534427600,2.22,-1.79,5.87,228.44999999999996,31.070000000000004,-96.44
540,1715534427610,2.0,-1.79,5.456666666666667,228.44999999999996,31.070000000000004,-96.44
541,1715534427620,1.56,-1.79,4.63,221.68,134.16,-123.05
542,1715534427630,1.5599999999999998,-1.79,4.63,221.67999999999998,134.16,-123.05
543,1715534427640,1.5599999999999998,-1.79,4.63,221.67999999999998,134.16,-123.05
544,1715534427650,1.5599999999999998,-1.79,4.63,221.67999999999998,134.16,-123.05
545,1715534427660,0.63,-1.24,3.0499999999999994,268.49,145.14,-36.25
546,1715534427670,0.63,-1.24,3.0499999999999994,268.49,145.14,-36.25
547,1715534427680,0.63,-1.24,3.0499999999999994,268.49,145.14,-36.25
548,1715534427690,0.7433333333333333,-1.08,2.7699999999999996,323.99333333333334,126.60666666666667,-14.93
549,1715534427700,0.97,-0.76,2.21,435.0,89.54,27.71
550,1715534427710,0.9700000000000001,-0.7600000000000001,2.21,435.0,89.54,27.709999999999997
551,1715534427720,0.9700000000000001,-0.7600000000000001,2.21,435.0,89.54,27.709999999999997
552,1715534427730,0.97,-0.76,2.21,435.0,89.54,27.71
553,1715534427740,0.9700000000000001,-0.7600000000000001,2.21,435.0,89.54,27.709999999999997
554,1715534427750,0.9700000000000001,-0.7600000000000001,2.21,435.0,89.54,27.709999999999997
555,1715534427760,0.97,-0.76,2.21,435.0,89.54,27.71
556,1715534427770,0.97,-0.76,2.21,435.0,89.54,27.71
557,1715534427780,0.97,-0.76,2.21,435.0,89.54,27.71
558,1715534427790,0.97,-0.76,2.21,435.0,89.54,27.71
559,1715534427800,0.97,-0.76,2.21,435.0,89.54,27.71
560,1715534427810,0.97,-0.76,2.21,435.0,89.54,27.71
561,1715534427820,1.14,-1.0266666666666666,1.8166666666666667,392.56,127.33999999999999,-34.38333333333333
562,1715534427830,1.48,-1.56,1.03,307.68,202.94,-158.57
563,1715534427840,1.4799999999999998,-1.5599999999999998,1.03,307.68,202.93999999999997,-158.57
564,1715534427850,0.85,-2.04,0.69,291.385,211.82,-157.105
565,1715534427860,0.85,-2.04,0.69,275.09,220.69999999999996,-155.64
566,1715534427870,0.85,-2.04,0.69,275.09,220.69999999999996,-155.64
567,1715534427880,0.8266666666666667,-1.8366666666666667,0.63,288.0466666666666,192.94999999999996,-139.46666666666667
568,1715534427890,0.78,-1.43,0.51,313.96,137.45,-107.12
569,1715534427900,0.7799999999999999,-1.43,0.51,313.96,137.45,-107.12
570,1715534427910,0.78,-1.43,0.51,313.96,137.45,-107.12
571,1715534427920,0.775,-1.4649999999999999,0.42500000000000004,325.195,69.55,-143.585
572,1715534427930,0.77,-1.5,0.34,336.43,1.65,-180.05
573,1715534427940,0.77,-1.5,0.34,336.43,1.6499999999999997,-180.05000000000004
574,1715534427950,0.77,-1.5,0.34,336.43,1.65,-180.05
575,1715534427960,1.0833333333333333,-1.4333333333333333,0.36000000000000004,291.67,6.976666666666667,-152.01666666666668
576,1715534427970,1.24,-1.4,0.37,269.29,9.64,-138.0
577,1715534427980,1.24,-1.3999999999999997,0.36999999999999994,269.29,9.64,-138.0
578,1715534427990,1.24,-1.4,0.37,269.29,9.64,-138.0
579,1715534428000,0.3,-1.26,-0.66,234.90333333333334,37.96,-168.92666666666665
580,1715534428010,0.3,-1.26,-0.66,217.71,52.12,-184.39
581,1715534428020,0.3,-1.26,-0.66,217.71,52.12,-184.39
582,1715534428030,0.3,-1.26,-0.66,217.71,52.12,-184.39
583,1715534428040,-2.42,-0.22,-5.43,147.22,69.95,-187.32000000000002
584,1715534428050,-2.42,-0.22,-5.43,147.22,69.95,-187.32
585,1715534428060,-2.42,-0.22,-5.43,147.22,69.95,-187.32
586,1715534428070,-2.7099999999999995,-0.6666666666666666,-5.1866666666666665,147.22,69.95,-187.32000000000002
587,1715534428080,-3.2900000000000005,-1.5599999999999998,-4.7,-3.72,-92.34999999999998,-71.53
588,1715534428090,-3.29,-1.56,-4.7,-3.72,-92.35,-71.53
589,1715534428100,-3.29,-1.56,-4.7,-3.72,-92.35,-71.53
590,1715534428110,-2.8600000000000003,-1.545,-4.08,-59.949999999999996,-73.0925,-3.842500000000001
591,1715534428120,-2.43,-1.53,-3.4599999999999995,-228.64,-15.32,199.22
592,1715534428130,-2.43,-1.53,-3.46,-228.64,-15.32,199.22
593,1715534428140,-2.43,-1.53,-3.46,-228.63999999999996,-15.319999999999999,199.22
594,1715534428150,-0.6033333333333334,-1.4766666666666666,-1.86,-265.09999999999997,-37.86000000000001,304.56666666666666
595,1715534428160,0.31,-1.45,-1.06,-283.33,-49.13,357.24
596,1715534428170,0.31,-1.45,-1.06,-283.33,-49.13,357.24
597,1715534428180,0.31,-1.45,-1.06,-283.33,-49.13,357.24
598,1715534428190,0.8166666666666668,-1.4966666666666668,-0.31000000000000005,-320.23333333333335,-50.53333333333334,340.86333333333334
599,1715534428200,1.83,-1.59,1.19,-394.04,-53.34,308.11
600,1715534428210,1.83,-1.59,1.19,-394.04,-53.34,308.11
601,1715534428220,1.83,-1.59,1.19,-394.04,-53.34,308.11
602,1715534428230,1.7475,-1.53,1.6775,-376.15999999999997,-59.295,268.16
603,1715534428240,1.72,-1.51,1.8400000000000003,-358.28,-65.25,228.20999999999998
604,1715534428250,1.72,-1.51,1.84,-358.28,-65.25,228.21
605,1715534428260,1.72,-1.51,1.84,-358.28,-65.25,228.21
606,1715534428270,1.72,-1.51,1.84,-358.28,-65.25,228.21
607,1715534428280,1.72,-1.51,1.84,-358.28,-65.25,228.21
608,1715534428290,1.72,-1.51,1.84,-358.28,-65.25,228.21
609,1715534428300,1.72,-1.51,1.84,-358.28,-65.25,228.21
610,1715534428310,1.72,-1.51,1.84,-358.28,-65.25,228.21
611,1715534428320,1.72,-1.51,1.84,-358.28,-65.25,228.21
612,1715534428330,1.72,-1.51,1.84,-358.28,-65.25,228.21
613,1715534428340,1.72,-1.51,1.84,-358.28,-65.25,228.21
614,1715534428350,0.78,-1.23,1.07,-402.28,-6.9,138.31
615,1715534428360,0.78,-1.23,1.07,-402.28,-6.9,138.31
616,1715534428370,0.78,-1.23,1.07,-402.28,-6.9,138.31
617,1715534428380,0.6075,-1.2675,0.9575,-416.745,-16.055,116.42500000000001
618,1715534428390,0.55,-1.28,0.92,-431.21,-25.209999999999997,94.54
619,1715534428400,0.55,-1.28,0.92,-431.21,-25.209999999999997,94.54
620,1715534428410,0.55,-1.28,0.92,-431.21,-25.209999999999997,94.54
621,1715534428420,0.605,-1.32,0.98,-429.44,-34.515,75.71000000000001
622,1715534428430,0.66,-1.36,1.04,-427.67,-43.82,56.88
623,1715534428440,0.66,-1.36,1.04,-427.67,-43.82,56.88
624,1715534428450,0.66,-1.36,1.04,-427.67,-43.82,56.88
625,1715534428460,0.5666666666666668,-1.1600000000000001,1.5533333333333335,-453.1033333333333,-30.72,47.080000000000005
626,1715534428470,0.52,-1.06,1.81,-465.82,-24.17,42.18
627,1715534428480,0.52,-1.06,1.81,-465.82,-24.17,42.18
628,1715534428490,0.52,-1.06,1.8099999999999998,-465.82,-24.17,42.18
629,1715534428500,0.6625,-0.505,3.0100000000000002,-382.3675,-73.9325,21.8025
630,1715534428510,0.71,-0.32,3.41,-354.55,-90.52,15.01
631,1715534428520,0.71,-0.32,3.41,-354.55,-90.52,15.01
632,1715534428530,0.71,-0.32,3.41,-354.55,-90.52,15.01
633,1715534428540,0.28,-1.16,5.96,-227.54,-102.29,-14.83
634,1715534428550,0.28,-1.16,5.96,-227.54,-102.29,-14.83
635,1715534428560,0.28,-1.16,5.96,-227.54,-102.29,-14.83
636,1715534428570,0.28,-1.16,5.96,-227.54,-102.29,-14.83
637,1715534428580,1.7575,-1.76,7.1000000000000005,1.2025000000000041,-91.76750000000001,50.81
638,1715534428590,2.25,-1.96,7.48,77.45,-88.26,72.69
639,1715534428600,2.25,-1.96,7.48,77.45,-88.26,72.69
640,1715534428610,2.16,-1.9133333333333333,6.88,134.41666666666666,-41.24,27.546666666666663
641,1715534428620,1.9799999999999998,-1.82,5.68,248.35,52.79999999999999,-62.74
642,1715534428630,1.9799999999999998,-1.82,5.68,248.35,52.79999999999999,-62.74
643,1715534428640,1.98,-1.82,5.68,248.35,52.8,-62.74
644,1715534428650,1.9799999999999998,-1.82,5.68,248.35,52.79999999999999,-62.74
645,1715534428660,1.15,-1.15,2.98,282.9,158.2,-35.83
646,1715534428670,1.15,-1.15,2.98,282.9,158.2,-35.83
647,1715534428680,1.15,-1.15,2.98,282.9,158.2,-35.83
648,1715534428690,1.01,-0.8566666666666666,2.373333333333333,297.93333333333334,151.50666666666666,-33.71333333333333
649,1715534428700,0.94,-0.71,2.07,328.0,138.12,-29.48
650,1715534428710,0.94,-0.71,2.07,328.0,138.12,-29.48
651,1715534428720,0.94,-0.71,2.07,328.0,138.12,-29.48
652,1715534428730,0.955,-0.835,1.7149999999999999,371.275,114.83500000000001,-41.93
653,1715534428740,0.97,-0.96,1.36,414.55,91.55,-54.38
654,1715534428750,0.9700000000000001,-0.96,1.36,414.55,91.55,-54.38
655,1715534428760,0.97,-0.96,1.36,414.55,91.55,-54.38
656,1715534428770,0.85,-1.61,1.17,449.4,81.235,-106.595
657,1715534428780,0.85,-1.61,1.17,484.25,70.92,-158.81
658,1715534428790,0.85,-1.61,1.17,484.25,70.92,-158.81
659,1715534428800,0.85,-1.61,1.17,484.25,70.92,-158.81
660,1715534428810,0.85,-1.61,1.17,484.25,70.92,-158.81
661,1715534428820,0.85,-1.61,1.17,484.25,70.92,-158.81
662,1715534428830,0.85,-1.61,1.17,484.25,70.92,-158.81
663,1715534428840,0.85,-1.61,1.17,484.25,70.92,-158.81
664,1715534428850,0.85,-1.61,1.17,484.25,70.92,-158.81
665,1715534428860,0.85,-1.61,1.17,484.25,70.92,-158.81
666,1715534428870,0.8300000000000001,-1.755,1.2,423.31,109.74000000000001,-155.76
667,1715534428880,0.81,-1.8999999999999997,1.23,362.37000000000006,148.56,-152.71
668,1715534428890,0.74,-1.74,1.0,357.48,146.12,-140.26
669,1715534428900,0.7399999999999999,-1.74,1.0,357.48,146.12,-140.26
670,1715534428910,0.74,-1.74,1.0,357.48,146.12,-140.26
671,1715534428920,0.7733333333333334,-1.5999999999999999,0.9466666666666667,344.42,122.64,-132.85333333333332
672,1715534428930,0.79,-1.53,0.92,337.89,110.90000000000002,-129.15
673,1715534428940,0.79,-1.53,0.92,337.89,110.9,-129.15
674,1715534428950,0.79,-1.53,0.92,337.89,110.90000000000002,-129.15
675,1715534428960,0.865,-1.395,0.7350000000000001,296.57,140.84,-103.7
676,1715534428970,0.94,-1.26,0.55,255.25,170.78,-78.25
677,1715534428980,0.94,-1.26,0.55,255.25,170.78,-78.25
678,1715534428990,0.94,-1.26,0.55,255.25,170.78,-78.25
679,1715534429000,0.56,-0.95,-1.24,158.87,242.37,-63.17
680,1715534429010,0.56,-0.95,-1.24,158.87,242.37,-63.17
681,1715534429020,0.56,-0.95,-1.24,158.87,242.37,-63.17
682,1715534429030,0.1333333333333334,-0.7933333333333333,-1.9266666666666665,160.27666666666667,173.99,-73.18
683,1715534429040,-0.72,-0.48,-3.3,163.09,37.23,-93.2
684,1715534429050,-0.7200000000000001,-0.48,-3.2999999999999994,163.09,37.23,-93.2
685,1715534429060,-0.72,-0.48,-3.3,163.09,37.23,-93.2
686,1715534429070,-1.03,-0.6666666666666666,-3.78,115.99000000000001,11.269999999999998,-70.19
687,1715534429080,-1.65,-1.04,-4.74,21.79,-40.65,-24.17
688,1715534429090,-1.6499999999999997,-1.04,-4.74,21.790000000000003,-40.65,-24.17
689,1715534429100,-1.6499999999999997,-1.04,-4.74,21.790000000000003,-40.65,-24.17
690,1715534429110,-1.645,-0.9450000000000001,-4.665,-53.315,-38.239999999999995,68.66499999999999
691,1715534429120,-1.64,-0.85,-4.59,-128.42,-35.83,161.5
692,1715534429130,-1.64,-0.85,-4.59,-128.42,-35.83,161.5
693,1715534429140,-1.64,-0.85,-4.59,-128.42,-35.83,161.5
694,1715534429150,-0.62,-1.2,-2.8800000000000003,-268.86,-85.69,295.47
695,1715534429160,-0.62,-1.2,-2.8800000000000003,-268.86,-85.69,295.47
696,1715534429170,-0.62,-1.2,-2.88,-268.86,-85.69,295.47
697,1715534429180,-0.62,-1.2,-2.8800000000000003,-268.86,-85.69,295.47
698,1715534429190,1.75,-1.78,0.42,-399.8,-38.53,295.59
699,1715534429200,1.75,-1.78,0.42,-465.27,-14.949999999999998,295.65
700,1715534429210,1.75,-1.78,0.42,-465.27,-14.95,295.65
701,1715534429220,1.75,-1.78,0.42,-465.27,-14.95,295.65
702,1715534429230,2.15,-1.9799999999999998,2.35,-441.1000000000001,-57.62,173.83
703,1715534429240,2.15,-1.9799999999999998,2.35,-441.1000000000001,-57.62,173.83
704,1715534429250,2.15,-1.98,2.35,-441.1,-57.62,173.83
705,1715534429260,2.15,-1.9799999999999998,2.35,-441.1000000000001,-57.62,173.83
706,1715534429270,1.75,-1.8,2.49,-439.94,-22.525,134.185
707,1715534429280,1.35,-1.62,2.63,-438.78,12.57,94.54
708,1715534429290,1.3500000000000003,-1.62,2.63,-438.78,12.57,94.54
709,1715534429300,1.1133333333333335,-1.4933333333333334,2.25,-415.91333333333336,9.64,78.51
710,1715534429310,0.64,-1.24,1.49,-370.18,3.78,46.45
711,1715534429320,0.64,-1.24,1.49,-370.18,3.78,46.45000000000001
712,1715534429330,0.64,-1.24,1.49,-370.18,3.78,46.45
713,1715534429340,0.64,-1.24,1.49,-370.18,3.78,46.45
714,1715534429350,0.64,-1.24,1.49,-370.18,3.78,46.45000000000001
715,1715534429360,0.64,-1.24,1.49,-370.18,3.78,46.45000000000001
716,1715534429370,0.64,-1.24,1.49,-370.18,3.78,46.45000000000001
717,1715534429380,0.64,-1.24,1.49,-370.18,3.78,46.45000000000001
718,1715534429390,0.64,-1.24,1.49,-370.18,3.78,46.45
719,1715534429400,0.4,-0.99,0.64,-363.89,-63.84,4.58
720,1715534429410,0.4000000000000001,-0.9899999999999999,0.64,-363.89000000000004,-63.84,4.58
721,1715534429420,0.66,-0.7366666666666667,0.7933333333333333,-412.43666666666667,-85.0,-9.38
722,1715534429430,0.79,-0.61,0.87,-436.71,-95.58,-16.36
723,1715534429440,0.79,-0.61,0.87,-436.71,-95.58,-16.36
724,1715534429450,0.71,-0.6766666666666667,1.3933333333333333,-436.71,-95.58,-16.36
725,1715534429460,0.55,-0.81,2.44,-490.23,-101.56,-98.69
726,1715534429470,0.55,-0.81,2.44,-490.23,-101.56,-98.69
727,1715534429480,0.55,-0.81,2.44,-490.23,-101.56,-98.69
728,1715534429490,0.3966666666666667,-0.6366666666666667,3.1999999999999997,-490.23,-101.56,-98.69
729,1715534429500,0.09000000000000001,-0.29,4.72,-414.63000000000005,-86.42333333333333,-75.23333333333333
730,1715534429510,0.09,-0.29,4.72,-263.43,-56.15,-28.32
731,1715534429520,0.09,-0.29,4.72,-263.43,-56.15,-28.32
732,1715534429530,0.3733333333333333,-0.15333333333333332,5.113333333333333,-167.03333333333333,-79.40666666666667,-8.91
733,1715534429540,0.94,0.12,5.900000000000001,25.76,-125.92,29.91
734,1715534429550,0.94,0.12,5.900000000000001,25.76,-125.92,29.91
735,1715534429560,0.94,0.12,5.900000000000001,25.76,-125.92,29.91
736,1715534429570,0.94,0.12,5.900000000000001,25.76,-125.92,29.91
737,1715534429580,1.3666666666666665,-0.17333333333333334,5.633333333333333,77.35333333333334,-20.813333333333336,-24.090000000000003
738,1715534429590,1.58,-0.32,5.5,103.15,31.74,-51.09
739,1715534429600,1.58,-0.32,5.5,103.15,31.74,-51.09
740,1715534429610,1.13,-1.02,4.54,214.84,37.23,-110.59999999999998
741,1715534429620,1.13,-1.02,4.54,214.84,37.23,-110.59999999999998
742,1715534429630,1.13,-1.02,4.54,214.84,37.23,-110.59999999999998
743,1715534429640,1.13,-1.02,4.54,214.84,37.23,-110.59999999999998
744,1715534429650,1.12,-0.66,3.43,192.38,90.88,-21.73
745,1715534429660,1.12,-0.66,3.43,192.38,90.88,-21.73
746,1715534429670,1.12,-0.66,3.43,192.38,90.88,-21.73
747,1715534429680,1.1900000000000002,-0.4466666666666667,3.09,192.38,90.88,-21.73
748,1715534429690,1.33,-0.02,2.41,308.29,93.75,3.91
749,1715534429700,1.33,-0.02,2.41,308.29,93.75,3.91
750,1715534429710,1.33,-0.02,2.41,308.29,93.75,3.91
751,1715534429720,1.33,-0.02,2.41,308.29,93.75,3.91
752,1715534429730,1.29,-0.35333333333333333,1.7566666666666666,359.03,115.14999999999999,-43.696666666666665
753,1715534429740,1.27,-0.52,1.43,384.4,125.85,-67.5
754,1715534429750,1.27,-0.52,1.43,384.4,125.85,-67.5
755,1715534429760,1.2,-0.7966666666666667,1.3,378.2133333333333,133.31666666666666,-90.83666666666666
756,1715534429770,1.06,-1.3500000000000003,1.04,365.84,148.25,-137.51
757,1715534429780,1.06,-1.3500000000000003,1.04,365.84,148.25,-137.51
758,1715534429790,1.06,-1.3500000000000003,1.04,365.84,148.25,-137.51
759,1715534429800,0.9325,-1.4775,0.77,366.41999999999996,145.11,-132.415
760,1715534429810,0.89,-1.52,0.68,367.0,141.97,-127.32
761,1715534429820,0.89,-1.52,0.68,367.0,141.97,-127.32
762,1715534429830,,,,,,
763,1715534429840,,,,,,
764,1715534429850,0.89,-1.5200000000000002,0.68,367.0,141.97,-127.32
765,1715534429860,0.89,-1.52,0.68,367.0,141.97,-127.32
766,1715534429870,0.89,-1.5200000000000002,0.68,367.0,141.97,-127.32
767,1715534429880,0.89,-1.52,0.68,367.0,141.97,-127.31999999999998
768,1715534429890,0.89,-1.52,0.68,367.0,141.97,-127.32
769,1715534429900,0.89,-1.52,0.68,367.0,141.97,-127.32
770,1715534429910,,,,,,
771,1715534429920,0.74,-1.2,0.85,229.25,115.84,-109.86
772,1715534429930,0.74,-1.2,0.85,229.25,115.84,-109.85999999999999
773,1715534429940,0.74,-1.2,0.85,229.25,115.84,-109.85999999999999
774,1715534429950,0.7866666666666666,-1.16,0.85,232.22,120.33666666666666,-119.85000000000001
775,1715534429960,0.8800000000000001,-1.08,0.85,238.16,129.33,-139.83
776,1715534429970,0.88,-1.08,0.85,238.16,129.33,-139.83
777,1715534429980,0.88,-1.08,0.85,238.16,129.33,-139.83
778,1715534429990,0.7533333333333333,-1.0666666666666667,0.51,236.28666666666666,126.76666666666667,-135.09
779,1715534430000,0.5,-1.04,-0.17,232.54,121.64,-125.61
780,1715534430010,0.5,-1.04,-0.17,232.54000000000002,121.64000000000001,-125.60999999999999
781,1715534430020,0.5,-1.04,-0.17,232.54000000000002,121.64000000000001,-125.60999999999999
782,1715534430030,-0.33499999999999996,-0.87,-1.665,238.76999999999998,100.89,-133.18
783,1715534430040,-1.17,-0.7,-3.16,245.0,80.14,-140.75
784,1715534430050,-1.17,-0.7,-3.16,245.0,80.14,-140.75
785,1715534430060,-1.17,-0.6999999999999998,-3.16,245.0,80.14,-140.75
786,1715534430070,-2.94,-1.73,-5.79,150.9725,-93.17,-37.475
787,1715534430080,-2.94,-1.73,-5.79,119.63,-150.94,-3.05
788,1715534430090,-2.94,-1.7299999999999998,-5.79,119.63,-150.94,-3.0499999999999994
789,1715534430100,-2.6,-1.7,-5.5,-146.97,-9.09,236.51
790,1715534430110,-2.6,-1.7,-5.5,-146.97,-9.09,236.51
791,1715534430120,-2.6,-1.7,-5.5,-146.97,-9.09,236.51
792,1715534430130,-1.9200000000000002,-1.7075,-4.7,-187.375,-30.224999999999998,255.295
793,1715534430140,0.12,-1.73,-2.3,-308.59,-93.63,311.65
794,1715534430150,0.12,-1.73,-2.3,-308.59,-93.63,311.65
795,1715534430160,0.12,-1.73,-2.3,-308.59,-93.63,311.65
796,1715534430170,0.9239999999999998,-1.81,-0.9959999999999999,-331.246,-108.522,331.88599999999997
797,1715534430180,2.13,-1.93,0.96,-365.23,-130.86,362.24
798,1715534430190,2.13,-1.93,0.96,-365.23,-130.86,362.24
799,1715534430200,2.13,-1.93,0.96,-365.23,-130.86,362.24
800,1715534430210,2.175,-1.705,1.55,-365.23,-130.86,362.24
801,1715534430220,2.22,-1.4799999999999998,2.14,-425.29,-12.08,274.72
802,1715534430230,2.22,-1.48,2.14,-425.29,-12.08,274.72
803,1715534430240,2.22,-1.48,2.14,-425.29,-12.08,274.72
804,1715534430250,2.22,-1.48,2.14,-425.29,-12.08,274.72
805,1715534430260,2.22,-1.48,2.14,-425.29,-12.08,274.72
806,1715534430270,2.22,-1.48,2.14,-425.29,-12.08,274.72
807,1715534430280,2.22,-1.48,2.14,-425.29,-12.08,274.72
808,1715534430290,2.22,-1.4799999999999998,2.14,-425.29,-12.08,274.72
809,1715534430300,2.22,-1.48,2.14,-425.29,-12.08,274.72
810,1715534430310,2.22,-1.4799999999999998,2.14,-425.29,-12.08,274.72
811,1715534430320,2.22,-1.48,2.14,-425.29,-12.08,274.72
812,1715534430330,2.22,-1.4799999999999998,2.14,-425.29,-12.08,274.72
813,1715534430340,2.22,-1.4799999999999998,2.14,-425.29,-12.08,274.72
814,1715534430350,2.22,-1.48,2.14,-425.29,-12.08,274.72
815,1715534430360,2.22,-1.4799999999999998,2.14,-425.29,-12.08,274.72
816,1715534430370,2.22,-1.48,2.14,-425.29,-12.08,274.72
817,1715534430380,2.22,-1.4799999999999998,2.14,-425.29,-12.08,274.72
818,1715534430390,2.22,-1.48,2.14,-425.29,-12.08,274.72
819,1715534430400,2.22,-1.4799999999999998,2.14,-425.29,-12.08,274.72
820,1715534430410,2.22,-1.48,2.14,-425.29,-12.08,274.72
821,1715534430420,2.22,-1.48,2.14,-425.29,-12.08,274.72
822,1715534430430,2.22,-1.4799999999999998,2.14,-425.29,-12.08,274.72
823,1715534430440,1.6633333333333333,-1.1333333333333333,2.02,-410.31666666666666,-20.89,166.75000000000003
824,1715534430450,0.55,-0.44,1.78,-380.37,-38.51,-49.19
825,1715534430460,0.55,-0.44,1.78,-380.37,-38.51,-49.19
826,1715534430470,0.55,-0.44,1.78,-380.37000000000006,-38.51,-49.19
827,1715534430480,0.495,-0.12,2.45,-324.86,-65.4,-44.185
828,1715534430490,0.44,0.2,3.12,-269.35,-92.29,-39.18
829,1715534430500,0.44,0.2,3.12,-269.35,-92.29,-39.18
830,1715534430510,0.44,0.20000000000000004,3.1199999999999997,-269.35,-92.29,-39.18
831,1715534430520,0.27,0.23666666666666666,3.7733333333333334,-251.48666666666668,-74.65,-34.03333333333333
832,1715534430530,-0.07,0.31,5.08,-215.76,-39.37,-23.74
833,1715534430540,-0.07,0.31,5.08,-215.76,-39.37,-23.74
834,1715534430550,-0.07,0.31,5.08,-215.76,-39.37,-23.74
835,1715534430560,-0.07,0.31,5.08,-215.76,-39.37,-23.74
836,1715534430570,-0.07,0.31,5.08,-215.76,-39.37,-23.74
837,1715534430580,0.6033333333333334,-0.053333333333333344,5.723333333333334,-113.21999999999998,-52.553333333333335,-2.969999999999999
838,1715534430590,1.95,-0.78,7.01,91.86,-78.92,38.57
839,1715534430600,1.6499999999999997,-1.23,5.34,288.33,-29.540000000000003,-81.42
840,1715534430610,1.65,-1.23,5.34,288.33,-29.54,-81.42
841,1715534430620,1.6499999999999997,-1.23,5.34,288.33,-29.540000000000003,-81.42
842,1715534430630,1.6499999999999997,-1.23,5.34,288.33,-29.540000000000003,-81.42
843,1715534430640,1.01,-1.07,3.58,231.99,127.14,-38.45
844,1715534430650,1.01,-1.07,3.58,231.99,127.14,-38.45
845,1715534430660,1.01,-1.07,3.58,231.99,127.14,-38.45
846,1715534430670,1.01,-1.07,3.58,231.99,127.14,-38.45
847,1715534430680,1.0666666666666667,-0.8000000000000002,3.1233333333333335,257.09666666666664,133.93333333333334,-23.293333333333337
848,1715534430690,1.18,-0.26,2.21,307.31,147.52,7.02
849,1715534430700,1.18,-0.26,2.21,307.31,147.52,7.02
850,1715534430710,1.2533333333333332,-0.27999999999999997,1.67,334.57666666666665,151.2266666666667,-34.446666666666665
851,1715534430720,1.29,-0.29,1.3999999999999997,348.21,153.08,-55.18
852,1715534430730,1.29,-0.29,1.4,348.21,153.08,-55.18
853,1715534430740,1.29,-0.29,1.4,348.21,153.08,-55.18
854,1715534430750,1.11,-1.025,1.1825,345.645,167.54000000000002,-120.4975
855,1715534430760,1.05,-1.27,1.11,344.79,172.36,-142.27
856,1715534430770,1.05,-1.27,1.11,344.79,172.36,-142.27
857,1715534430780,1.05,-1.27,1.11,344.79,172.36,-142.27
858,1715534430790,0.855,-1.6675,1.17,370.8375,107.4025,-143.695
859,1715534430800,0.79,-1.8,1.19,379.52,85.75,-144.17
860,1715534430810,0.79,-1.8,1.19,379.52,85.75,-144.17
861,1715534430820,0.79,-1.8,1.19,379.52,85.75,-144.17
862,1715534430830,0.79,-1.8,1.19,379.52,85.75,-144.17
863,1715534430840,0.79,-1.8,1.19,379.52,85.75,-144.17
864,1715534430850,0.79,-1.8,1.19,379.52,85.75,-144.17
865,1715534430860,0.79,-1.8,1.19,379.52,85.75,-144.17
866,1715534430870,0.79,-1.8,1.19,379.52,85.75,-144.17
867,1715534430880,0.79,-1.8,1.19,379.52,85.75,-144.17
868,1715534430890,0.79,-1.8,1.19,379.52,85.75,-144.17
869,1715534430900,0.79,-1.8,1.19,379.52,85.75,-144.17
870,1715534430910,0.79,-1.8,1.19,379.52,85.75,-144.17
871,1715534430920,0.79,-1.8,1.19,379.52,85.75,-144.17
872,1715534430930,0.79,-1.8,1.19,379.52,85.75,-144.17
873,1715534430940,0.79,-1.8,1.19,379.52,85.75,-144.17
874,1715534430950,0.79,-1.8,1.19,379.52,85.75,-144.17
875,1715534430960,0.79,-1.8,1.19,379.52,85.75,-144.17
876,1715534430970,0.9666666666666668,-1.1266666666666667,0.7033333333333335,309.40333333333336,100.54666666666667,-100.72666666666667
877,1715534430980,0.7275,-0.8425,-0.22249999999999998,201.07999999999998,149.20250000000001,-134.84
878,1715534430990,0.66,-0.82,-0.43,170.35,170.9,-146.3
879,1715534431000,0.66,-0.82,-0.43,170.35,170.9,-146.3
880,1715534431010,0.66,-0.82,-0.43,170.35,170.9,-146.3
881,1715534431020,-0.3375,-0.535,-2.3875,149.965,117.98,-137.115
882,1715534431030,-0.67,-0.44,-3.0400000000000005,129.58,65.06,-127.93
883,1715534431040,-0.67,-0.44,-3.0400000000000005,129.58,65.06,-127.93
884,1715534431050,-0.67,-0.44,-3.0400000000000005,129.58,65.06,-127.93
885,1715534431060,-1.63,-0.65,-4.23,23.01,-74.52,-54.44
886,1715534431070,-1.63,-0.65,-4.23,23.01,-74.52,-54.44
887,1715534431080,-1.63,-0.65,-4.23,23.01,-74.52,-54.44
888,1715534431090,-1.63,-0.6766666666666667,-4.24,0.4066666666666687,-72.42666666666666,-4.2299999999999995
889,1715534431100,-1.63,-0.73,-4.26,-44.8,-68.24,96.19
890,1715534431110,-1.63,-0.73,-4.26,-44.79999999999999,-68.24,96.19
891,1715534431120,-1.63,-0.73,-4.26,-44.8,-68.24,96.19
892,1715534431130,-1.63,-0.73,-4.26,-44.79999999999999,-68.24,96.19
893,1715534431140,-0.95,-0.914,-3.3879999999999995,-99.144,-96.12,182.958
894,1715534431150,-0.7799999999999999,-0.96,-3.17,-112.73,-103.08999999999999,204.65
895,1715534431160,-0.7799999999999999,-0.96,-3.17,-112.73,-103.08999999999999,204.65
896,1715534431170,-0.78,-0.96,-3.17,-112.73,-103.09,204.65
897,1715534431180,-0.7799999999999999,-0.96,-3.17,-112.73,-103.08999999999999,204.65
898,1715534431190,-0.7799999999999999,-0.96,-3.17,-112.73,-103.08999999999999,204.65
899,1715534431200,0.9,-1.52,-0.57,-263.98,-77.82,288.21
900,1715534431210,0.9,-1.5200000000000002,-0.57,-263.98,-77.82,288.21
901,1715534431220,1.7,-1.7,1.23,-416.02,-104.92,250.85
902,1715534431230,1.7,-1.7,1.23,-416.02,-104.92,250.85
903,1715534431240,1.7,-1.7,1.23,-416.02,-104.92,250.85
904,1715534431250,1.7,-1.73,2.23,-435.67,-112.37,183.9
905,1715534431260,1.7,-1.7299999999999998,2.23,-435.67,-112.37,183.9
906,1715534431270,1.7,-1.7299999999999998,2.23,-435.67,-112.37,183.9
907,1715534431280,1.7,-1.73,2.23,-435.67,-112.37,183.9
908,1715534431290,1.7,-1.7299999999999998,2.23,-435.67,-112.37,183.9
909,1715534431300,1.7,-1.73,2.23,-435.67,-112.37,183.9
910,1715534431310,1.7,-1.73,2.23,-435.67,-112.37,183.9
911,1715534431320,1.7,-1.7299999999999998,2.23,-435.67,-112.37,183.9
912,1715534431330,1.7,-1.7299999999999998,2.23,-435.67,-112.37,183.9
913,1715534431340,1.7,-1.7299999999999998,2.23,-435.67,-112.37,183.9
914,1715534431350,1.7,-1.73,2.23,-435.67,-112.37,183.9
915,1715534431360,1.7,-1.7299999999999998,2.23,-435.67,-112.37,183.9
916,1715534431370,1.7,-1.73,2.23,-435.67,-112.37,183.9
917,1715534431380,1.7,-1.7299999999999998,2.23,-435.67,-112.37,183.9
918,1715534431390,1.7,-1.73,2.23,-435.67,-112.37,183.9
919,1715534431400,1.7,-1.7299999999999998,2.23,-435.67,-112.37,183.9
920,1715534431410,1.7,-1.73,2.23,-435.67,-112.37,183.9
921,1715534431420,1.7,-1.7299999999999998,2.23,-435.67,-112.37,183.9
922,1715534431430,1.7,-1.73,2.23,-435.67,-112.37,183.9
923,1715534431440,1.7,-1.73,2.23,-435.67,-112.37,183.9
924,1715534431450,1.7,-1.73,2.23,-435.67,-112.37,183.9
925,1715534431460,1.7,-1.7299999999999998,2.23,-435.67,-112.37,183.9
926,1715534431470,1.7,-1.7299999999999998,2.23,-435.67,-112.37,183.9
927,1715534431480,1.7,-1.7299999999999998,2.23,-435.67,-112.37,183.9
928,1715534431490,1.2566666666666666,-0.9933333333333333,2.8266666666666667,-367.92,-134.87,114.39999999999999
929,1715534431500,0.37,0.48,4.02,-232.42,-179.87,-24.6
930,1715534431510,0.36999999999999994,0.48,4.02,-232.42,-179.87,-24.600000000000005
931,1715534431520,1.0975000000000001,0.8775,5.2725,-123.1975,-130.6175,91.76250000000002
932,1715534431530,1.34,1.01,5.69,-86.79,-114.2,130.55
933,1715534431540,1.34,1.01,5.69,-86.79,-114.2,130.55
934,1715534431550,1.6525,0.77,5.66,-30.6075,-85.39,69.24000000000001
935,1715534431560,2.59,0.05,5.57,137.94,1.04,-114.69
936,1715534431570,2.59,0.05000000000000001,5.57,137.94,1.04,-114.69
937,1715534431580,2.59,0.05,5.57,137.94,1.04,-114.69
938,1715534431590,2.59,0.05000000000000001,5.57,137.94,1.04,-114.69
939,1715534431600,2.17,-1.09,4.77,149.9,126.46,-96.8
940,1715534431610,2.17,-1.09,4.77,149.9,126.46,-96.8
941,1715534431620,2.17,-1.09,4.77,149.9,126.46,-96.8
942,1715534431630,1.8499999999999999,-0.7633333333333333,3.983333333333333,146.26,127.09333333333332,-90.75666666666666
943,1715534431640,1.6900000000000002,-0.6,3.59,138.98,128.36,-78.67
944,1715534431650,1.69,-0.6,3.59,138.98,128.36,-78.67
945,1715534431660,1.6900000000000002,-0.6,3.59,138.98,128.36,-78.67
946,1715534431670,1.2925,0.10500000000000002,2.99,228.47000000000003,72.605,-44.019999999999996
947,1715534431680,1.16,0.34,2.7900000000000005,258.3,54.02,-32.47
948,1715534431690,1.16,0.34,2.79,258.3,54.02,-32.47
949,1715534431700,1.16,0.34,2.79,258.3,54.02,-32.47
950,1715534431710,1.19,0.61,1.89,330.69,66.41,-68.91
951,1715534431720,1.19,0.61,1.89,330.69,66.41,-68.91
952,1715534431730,1.19,0.61,1.89,330.69,66.41,-68.91
953,1715534431740,1.19,0.61,1.89,330.69,66.41,-68.91
954,1715534431750,1.27,-0.45,1.31,410.52,43.70000000000001,-178.96
955,1715534431760,1.27,-0.45,1.31,410.52,43.7,-178.96
956,1715534431770,1.27,-0.45,1.31,410.52,43.70000000000001,-178.96
957,1715534431780,1.27,-0.45,1.31,410.52,43.7,-178.96
958,1715534431790,1.27,-0.45,1.31,410.52,43.70000000000001,-178.96
959,1715534431800,1.27,-0.45,1.31,410.52,43.7,-178.96
960,1715534431810,1.1300000000000001,-1.0366666666666668,1.1233333333333333,374.05999999999995,65.14666666666666,-228.47333333333333
961,1715534431820,1.0350000000000001,-1.32,1.08,355.83,75.87,-253.23
962,1715534431830,1.01,-1.31,1.13,355.83,75.87,-253.23
963,1715534431840,1.01,-1.31,1.13,355.83,75.87,-253.23
964,1715534431850,1.01,-1.31,1.13,280.09,106.66,-246.39499999999998
965,1715534431860,1.01,-1.31,1.13,204.35,137.45,-239.56000000000003
966,1715534431870,1.01,-1.31,1.13,204.35,137.45,-239.56000000000003
967,1715534431880,1.01,-1.31,1.13,204.35,137.45,-239.56000000000003
968,1715534431890,1.01,-1.31,1.13,204.35,137.45,-239.56000000000003
969,1715534431900,1.01,-1.31,1.13,204.35,137.45,-239.56000000000003
970,1715534431910,1.01,-1.31,1.13,204.35,137.45,-239.56
971,1715534431920,1.01,-1.31,1.13,204.35,137.45,-239.56000000000003
972,1715534431930,1.01,-1.31,1.13,204.35,137.45,-239.56
973,1715534431940,1.01,-1.31,1.13,204.35,137.45,-239.56000000000003
974,1715534431950,1.01,-1.31,1.13,204.35,137.45,-239.56
975,1715534431960,1.01,-1.31,1.13,204.35,137.45,-239.56
976,1715534431970,1.01,-1.31,1.13,204.35,137.45,-239.56000000000003
977,1715534431980,1.01,-1.31,1.13,204.35,137.45,-239.56000000000003
978,1715534431990,1.01,-1.31,1.13,204.35,137.45,-239.56
979,1715534432000,1.01,-1.31,1.13,204.35,137.45,-239.56000000000003
980,1715534432010,1.01,-1.31,1.13,204.35,137.45,-239.56
981,1715534432020,-0.56,-1.44,-3.53,99.61,222.11,-84.05
982,1715534432030,-0.56,-1.44,-3.53,99.61,222.11,-84.05
983,1715534432040,-0.56,-1.4400000000000002,-3.53,99.61,222.11,-84.05
984,1715534432050,-0.56,-1.4400000000000002,-3.53,99.61,222.11,-84.05
985,1715534432060,-0.56,-1.4400000000000002,-3.53,99.61,222.11,-84.05
986,1715534432070,-0.56,-1.4400000000000002,-3.53,99.61,222.11,-84.05
987,1715534432080,-1.39,-0.5,-3.78,-44.56,116.94,115.6
988,1715534432090,-1.2333333333333332,-0.3133333333333333,-4.18,-54.873333333333335,75.72333333333333,127.58333333333333
989,1715534432100,-0.92,0.06,-4.98,-75.5,-6.71,151.55
990,1715534432110,-0.92,0.06,-4.98,-75.5,-6.71,151.55
991,1715534432120,-0.92,0.06,-4.98,-75.5,-6.71,151.55
992,1715534432130,-1.25,0.02,-4.4,-47.91,-157.84,102.96999999999998
993,1715534432140,-1.25,0.02,-4.4,-47.91,-157.84,102.96999999999998
994,1715534432150,-1.25,0.02,-4.4,-47.91,-157.84,102.96999999999998
995,1715534432160,-1.25,0.02,-4.4,-47.91,-157.84,102.97
996,1715534432170,-0.18000000000000002,-1.23,-2.24,-184.99666666666667,-148.19333333333336,210.22333333333336
997,1715534432180,-0.18,-1.23,-2.24,-253.54,-143.37,263.85
998,1715534432190,-0.18000000000000002,-1.23,-2.24,-253.54,-143.37,263.85
999,1715534432200,-0.18,-1.23,-2.24,-253.54,-143.37,263.85
1000,1715534432210,-0.18000000000000002,-1.23,-2.24,-253.54,-143.37,263.85
1001,1715534432220,1.245,-2.1225,-0.53,-394.7575,-137.055,267.375
1002,1715534432230,1.72,-2.42,0.04,-441.83,-134.95,268.55
1003,1715534432240,1.72,-2.42,0.04,-441.83,-134.95,268.55
1004,1715534432250,2.48,-3.1,2.99,-474.3,-213.38,226.5
1005,1715534432260,2.48,-3.1,2.99,-474.3,-213.38,226.5
1006,1715534432270,2.48,-3.1,2.99,-474.3,-213.38,226.5
1007,1715534432280,2.3225,-2.84,2.9075,-462.9175,-166.9325,215.7575
1008,1715534432290,1.8500000000000003,-2.06,2.66,-428.77,-27.59,183.53
1009,1715534432300,1.85,-2.06,2.66,-428.77,-27.59,183.53
1010,1715534432310,1.8500000000000003,-2.06,2.66,-428.77,-27.59,183.53
1011,1715534432320,1.8500000000000003,-2.06,2.66,-428.77,-27.59,183.53
1012,1715534432330,1.8500000000000003,-2.06,2.66,-428.77,-27.59,183.53
1013,1715534432340,1.8500000000000003,-2.06,2.66,-428.77,-27.59,183.53
1014,1715534432350,1.85,-2.06,2.66,-428.77,-27.59,183.53
1015,1715534432360,1.85,-2.06,2.66,-428.77,-27.59,183.53
1016,1715534432370,1.8500000000000003,-2.06,2.66,-428.77,-27.59,183.53
1017,1715534432380,1.85,-2.06,2.66,-428.77,-27.59,183.53
1018,1715534432390,1.8500000000000003,-2.06,2.66,-428.77,-27.59,183.53
1019,1715534432400,1.8500000000000003,-2.06,2.66,-428.77,-27.59,183.53
1020,1715534432410,1.8500000000000003,-2.06,2.66,-428.77,-27.59,183.53
1021,1715534432420,1.8500000000000003,-2.06,2.66,-428.77,-27.59,183.53
1022,1715534432430,1.85,-2.06,2.66,-428.77,-27.59,183.53
1023,1715534432440,1.8500000000000003,-2.06,2.66,-428.77,-27.59,183.53
1024,1715534432450,1.85,-2.06,2.66,-428.77,-27.59,183.53
1025,1715534432460,1.8500000000000003,-2.06,2.66,-428.77,-27.59,183.53
1026,1715534432470,1.8500000000000003,-2.06,2.66,-428.77,-27.59,183.53
1027,1715534432480,1.85,-2.06,2.66,-428.77,-27.59,183.53
1028,1715534432490,1.8500000000000003,-2.06,2.66,-428.77,-27.59,183.53
1029,1715534432500,1.85,-2.06,2.66,-428.77,-27.59,183.53
1030,1715534432510,1.8500000000000003,-2.06,2.66,-428.77,-27.59,183.53
1031,1715534432520,1.85,-2.06,2.66,-428.77,-27.59,183.53
1032,1715534432530,1.8500000000000003,-2.06,2.66,-428.77,-27.59,183.53
1033,1715534432540,0.67,-0.48,3.266666666666667,-306.7033333333333,-108.68333333333332,49.663333333333334
1034,1715534432550,0.8725,0.4075,4.4375,-200.54999999999998,-130.2025,25.560000000000002
1035,1715534432560,3.25,0.7,7.04,-65.19,-73.12,154.05
1036,1715534432570,3.25,0.6999999999999998,7.04,-65.19,-73.12,154.05
1037,1715534432580,3.25,0.6999999999999998,7.04,-65.19,-73.12,154.05
1038,1715534432590,3.075,0.062499999999999944,6.8525,-3.5574999999999974,-61.95,67.64000000000001
1039,1715534432600,2.55,-1.85,6.29,181.34,-28.44,-191.59
1040,1715534432610,2.55,-1.8500000000000003,6.29,181.34,-28.44,-191.59
1041,1715534432620,2.55,-1.85,6.29,181.34,-28.44,-191.59
1042,1715534432630,2.55,-1.8500000000000003,6.29,181.34,-28.44,-191.59
1043,1715534432640,1.9649999999999999,-2.255,4.6325,189.71,107.74499999999999,-84.1525
1044,1715534432650,1.7700000000000002,-2.39,4.08,192.5,153.14,-48.34
1045,1715534432660,1.7700000000000002,-2.39,4.08,192.5,153.14,-48.34
1046,1715534432670,1.6766666666666667,-2.04,3.81,219.5,138.28666666666666,-28.380000000000006
1047,1715534432680,1.49,-1.34,3.27,273.5,108.58,11.54
1048,1715534432690,1.49,-1.34,3.27,273.5,108.58,11.54
1049,1715534432700,1.49,-1.34,3.27,273.5,108.58,11.54
1050,1715534432710,1.41,-0.5,2.15,379.33,107.73,-19.1
1051,1715534432720,1.41,-0.5,2.15,379.33,107.72999999999999,-19.1
1052,1715534432730,1.41,-0.5,2.15,379.33,107.73,-19.1
1053,1715534432740,1.41,-0.5,2.15,379.33,107.73,-19.1
1054,1715534432750,1.12,-0.67,1.28,448.24,73.97,-135.44
1055,1715534432760,1.12,-0.67,1.28,448.24,73.97,-135.44
1056,1715534432770,1.12,-0.67,1.28,448.24,73.97,-135.44
1057,1715534432780,1.12,-0.67,1.28,448.24,73.97,-135.44
1058,1715534432790,1.18,-1.45,0.96,349.60999999999996,137.39,-237.37
1059,1715534432800,1.18,-1.45,0.96,349.61,137.39,-237.37
1060,1715534432810,1.18,-1.45,0.96,349.60999999999996,137.39,-237.37
1061,1715534432820,1.1,-1.6400000000000001,1.03,314.36,126.375,-213.505
1062,1715534432830,1.02,-1.83,1.1,279.11,115.36,-189.64
1063,1715534432840,1.02,-1.83,1.1,279.11,115.36,-189.64
1064,1715534432850,1.02,-1.83,1.1,279.11,115.36,-189.64
1065,1715534432860,1.1866666666666668,-1.8699999999999999,1.4666666666666668,233.94333333333336,192.54666666666665,-199.64666666666668
1066,1715534432870,1.27,-1.89,1.6499999999999997,211.36,231.14,-204.65
1067,1715534432880,1.27,-1.89,1.65,211.36,231.14,-204.65
1068,1715534432890,1.27,-1.89,1.6499999999999997,211.36,231.14,-204.65
1069,1715534432900,1.3675,-2.0549999999999997,1.335,250.6825,256.775,-150.9575
1070,1715534432910,1.3999999999999997,-2.11,1.23,263.79,265.32,-133.06
1071,1715534432920,1.4,-2.11,1.23,263.79,265.32,-133.06
1072,1715534432930,1.3999999999999997,-2.11,1.23,263.79,265.32,-133.06
1073,1715534432940,1.4,-2.11,1.23,263.79,265.32,-133.06
1074,1715534432950,1.3999999999999997,-2.11,1.23,263.79,265.32,-133.06
1075,1715534432960,1.3999999999999997,-2.11,1.23,263.79,265.32,-133.06
1076,1715534432970,1.4,-2.11,1.23,263.79,265.32,-133.06
1077,1715534432980,1.3999999999999997,-2.11,1.23,263.79,265.32,-133.06
1078,1715534432990,1.3999999999999997,-2.11,1.23,263.79,265.32,-133.06
1079,1715534433000,1.4,-2.11,1.23,263.79,265.32,-133.06
1080,1715534433010,1.3999999999999997,-2.11,1.23,263.79,265.32,-133.06
1081,1715534433020,1.3999999999999997,-2.11,1.23,263.79,265.32,-133.06
1082,1715534433030,1.4,-2.11,1.23,263.79,265.32,-133.06
1083,1715534433040,1.3999999999999997,-2.11,1.23,263.79,265.32,-133.06
1084,1715534433050,1.4,-2.11,1.23,263.79,265.32,-133.06
1085,1715534433060,1.3999999999999997,-2.11,1.23,263.79,265.32,-133.06
1086,1715534433070,-0.67,-0.58,-3.31,109.8,68.97,-43.76
1087,1715534433080,-0.67,-0.58,-3.31,109.8,68.97,-43.76
1088,1715534433090,-0.67,-0.58,-3.31,109.8,68.97,-43.76
1089,1715534433100,-1.6,-0.78,-4.87,67.57,-35.16,45.29
1090,1715534433110,-1.6000000000000003,-0.7799999999999999,-4.87,67.57,-35.16,45.29
1091,1715534433120,-1.6,-0.78,-4.87,67.57,-35.16,45.29
1092,1715534433130,-1.7299999999999998,-1.0,-4.7,83.92,-166.93,125.73
1093,1715534433140,-1.73,-1.0,-4.7,83.92,-166.93,125.73
1094,1715534433150,-1.7299999999999998,-1.0,-4.7,83.92,-166.93,125.73
1095,1715534433160,-1.73,-1.0,-4.7,83.92,-166.93,125.73
1096,1715534433170,-0.46,-1.55,-2.97,-125.67,-88.38,332.46
1097,1715534433180,-0.46,-1.55,-2.97,-125.67,-88.38,332.46
1098,1715534433190,-0.46,-1.55,-2.97,-125.67,-88.38,332.46
1099,1715534433200,0.745,-1.4100000000000001,-1.79,-193.51,-63.26499999999999,332.75
1100,1715534433210,1.95,-1.27,-0.61,-397.03,12.08,333.62
1101,1715534433220,1.95,-1.27,-0.61,-397.03,12.08,333.62
1102,1715534433230,1.95,-1.27,-0.61,-397.03,12.08,333.62
1103,1715534433240,2.0725,-1.5425,0.03249999999999997,-423.59749999999997,-38.745,299.455
1104,1715534433250,2.44,-2.36,1.96,-503.3,-191.22,196.96
1105,1715534433260,2.44,-2.36,1.96,-503.3,-191.22,196.96
1106,1715534433270,2.44,-2.36,1.96,-503.3,-191.22,196.96
1107,1715534433280,2.2075,-1.9775,2.425,-438.155,-142.29,150.4975
1108,1715534433290,2.13,-1.8500000000000003,2.58,-416.44,-125.98,135.01
1109,1715534433300,2.13,-1.8500000000000003,2.58,-416.44,-125.98,135.01
1110,1715534433310,2.13,-1.85,2.58,-416.44,-125.98,135.01
1111,1715534433320,2.13,-1.8500000000000003,2.58,-416.44,-125.98,135.01
1112,1715534433330,2.13,-1.85,2.58,-416.44,-125.98,135.01
1113,1715534433340,1.9400000000000002,-1.8099999999999998,2.3266666666666667,-415.12000000000006,-114.3,121.96999999999998
1114,1715534433350,1.5599999999999998,-1.7299999999999998,1.82,-412.48,-90.94,95.89
1115,1715534433360,1.02,-1.67,1.49,-492.61,-3.72,76.72
1116,1715534433370,1.02,-1.67,1.49,-492.60999999999996,-3.72,76.72
1117,1715534433380,1.02,-1.67,1.49,-492.61,-3.72,76.72
1118,1715534433390,1.02,-1.67,1.49,-492.60999999999996,-3.72,76.72
1119,1715534433400,0.9433333333333334,-1.6666666666666667,1.3833333333333335,-467.09999999999997,-40.46333333333333,73.52666666666666
1120,1715534433410,0.79,-1.66,1.17,-416.08,-113.95,67.14
1121,1715534433420,0.79,-1.66,1.17,-416.08,-113.95,67.14
1122,1715534433430,0.7725,-1.51,1.2525,-406.695,-123.7625,55.985
1123,1715534433440,0.7200000000000001,-1.06,1.5,-378.54,-153.2,22.52
1124,1715534433450,0.7200000000000001,-1.06,1.5,-378.54,-153.2,22.52
1125,1715534433460,0.7200000000000001,-1.06,1.5,-378.54,-153.2,22.52
1126,1715534433470,0.5266666666666667,-0.6933333333333334,1.88,-378.54,-153.2,22.52
1127,1715534433480,0.43,-0.51,2.07,-301.88,-167.3,25.76
1128,1715534433490,0.43,-0.51,2.07,-301.88,-167.3,25.76
1129,1715534433500,0.43,-0.51,2.07,-301.88,-167.3,25.76
1130,1715534433510,0.43,-0.51,2.07,-301.88,-167.3,25.76
1131,1715534433520,0.43,-0.51,2.07,-301.88,-167.3,25.76
1132,1715534433530,0.43,-0.51,2.07,-301.88,-167.3,25.76
1133,1715534433540,0.43,-0.51,2.07,-301.88,-167.3,25.76
1134,1715534433550,0.43,-0.51,2.07,-301.88,-167.3,25.76
1135,1715534433560,0.43,-0.51,2.07,-301.88,-167.3,25.76
1136,1715534433570,0.43,-0.51,2.07,-301.88,-167.3,25.76
1137,1715534433580,0.43,-0.51,2.07,-301.88,-167.3,25.76
1138,1715534433590,2.223333333333333,-0.21666666666666667,5.096666666666667,-71.12666666666667,-19.146666666666672,32.67333333333334
1139,1715534433600,3.12,-0.07,6.61,44.25,54.93,36.13
1140,1715534433610,3.1199999999999997,-0.07,6.61,44.25,54.93,36.13
1141,1715534433620,2.81,-0.5833333333333334,6.0566666666666675,44.25,54.93,36.13
1142,1715534433630,2.19,-1.61,4.95,136.00333333333333,109.05000000000001,-102.66333333333334
1143,1715534433640,2.19,-1.61,4.95,181.88,136.11,-172.06
1144,1715534433650,2.19,-1.61,4.95,181.88,136.11,-172.06000000000003
1145,1715534433660,1.915,-1.5825,4.63,171.3525,152.68,-142.9925
1146,1715534433670,1.09,-1.5,3.67,139.77,202.39,-55.79
1147,1715534433680,1.09,-1.5,3.67,139.77,202.39,-55.79
1148,1715534433690,1.09,-1.5,3.67,139.77,202.39,-55.79
1149,1715534433700,1.1033333333333333,-1.1766666666666667,3.39,199.87,171.8133333333333,-34.1
1150,1715534433710,1.13,-0.53,2.83,320.07,110.66,9.28
1151,1715534433720,1.13,-0.53,2.83,320.07,110.66000000000001,9.28
1152,1715534433730,1.13,-0.53,2.83,320.07,110.66,9.28
1153,1715534433740,1.1833333333333333,-0.49666666666666665,2.0966666666666667,385.25666666666666,118.92,-22.459999999999997
1154,1715534433750,1.21,-0.48,1.73,417.85,123.05,-38.33
1155,1715534433760,1.21,-0.48,1.7299999999999998,417.8500000000001,123.05,-38.33
1156,1715534433770,1.21,-0.48,1.73,417.85,123.05,-38.33
1157,1715534433780,1.255,-0.975,1.585,400.545,138.37,-89.965
1158,1715534433790,1.3,-1.47,1.44,383.24,153.69,-141.6
1159,1715534433800,1.3,-1.47,1.4400000000000002,383.24,153.69,-141.6
1160,1715534433810,1.3,-1.47,1.4400000000000002,383.24,153.69,-141.6
1161,1715534433820,1.19,-2.03,1.23,369.08000000000004,181.95,-134.065
1162,1715534433830,1.19,-2.03,1.23,354.92,210.21,-126.53
1163,1715534433840,1.19,-2.03,1.23,354.92,210.21,-126.53000000000002
1164,1715534433850,1.19,-2.03,1.23,354.92,210.21,-126.53
1165,1715534433860,1.34,-1.86,1.06,351.56,197.81000000000003,-110.59999999999998
1166,1715534433870,1.34,-1.86,1.06,351.56,197.81,-110.6
1167,1715534433880,1.3,-1.85,1.0625,345.87,195.2475,-117.61749999999999
1168,1715534433890,1.18,-1.82,1.07,328.8,187.56000000000003,-138.67
1169,1715534433900,1.18,-1.82,1.07,328.8,187.56,-138.67
1170,1715534433910,1.18,-1.82,1.07,328.8,187.56000000000003,-138.67
1171,1715534433920,1.1625,-1.815,1.0350000000000001,322.8025,181.32,-132.9175
1172,1715534433930,1.11,-1.8,0.93,304.81,162.6,-115.66000000000001
1173,1715534433940,1.11,-1.8,0.93,304.81,162.6,-115.66
1174,1715534433950,1.11,-1.8,0.93,304.81,162.6,-115.66000000000001
1175,1715534433960,1.05,-1.5533333333333335,0.6766666666666667,275.6366666666667,158.36666666666667,-92.38666666666666
1176,1715534433970,1.02,-1.43,0.55,261.05,156.25,-80.75
1177,1715534433980,1.02,-1.43,0.55,261.05,156.25,-80.75
1178,1715534433990,1.02,-1.43,0.55,261.05,156.25,-80.75
1179,1715534434000,0.96,-1.4475,0.3975,244.9675,170.365,-67.9925
1180,1715534434010,0.7799999999999999,-1.5,-0.06,196.72,212.71,-29.72
1181,1715534434020,0.78,-1.5,-0.06,196.72,212.71,-29.72
1182,1715534434030,0.7799999999999999,-1.5,-0.06,196.72,212.71,-29.72
1183,1715534434040,0.78,-1.5,-0.06,196.72,212.71,-29.72
1184,1715534434050,0.7799999999999999,-1.5,-0.06,196.72,212.71,-29.72
1185,1715534434060,0.78,-1.5,-0.06,196.72,212.71,-29.72
1186,1715534434070,0.7799999999999999,-1.5,-0.06,196.72,212.71,-29.72
1187,1715534434080,0.78,-1.5,-0.06,196.72,212.71,-29.72
1188,1715534434090,0.7799999999999999,-1.5,-0.06,196.72,212.71,-29.72
1189,1715534434100,0.78,-1.5,-0.06,196.72,212.71,-29.72
1190,1715534434110,0.265,-1.28,-1.345,148.9275,171.0825,13.355000000000004
1191,1715534434120,-1.28,-0.62,-5.2,5.55,46.20000000000001,142.58
1192,1715534434130,-1.28,-0.62,-5.2,5.55,46.2,142.58
1193,1715534434140,-1.28,-0.62,-5.2,5.55,46.20000000000001,142.58
1194,1715534434150,-0.995,-0.36,-5.035,-13.185,3.020000000000003,171.45
1195,1715534434160,-0.71,-0.10000000000000002,-4.87,-31.92,-40.16,200.32000000000002
1196,1715534434170,-0.71,-0.1,-4.87,-31.92,-40.16,200.32
1197,1715534434180,-0.71,-0.10000000000000002,-4.87,-31.92,-40.16,200.32000000000002
1198,1715534434190,-0.06999999999999999,-0.7733333333333334,-3.4500000000000006,-142.31333333333333,-89.67999999999999,242.84
1199,1715534434200,0.25,-1.11,-2.74,-197.51,-114.44,264.1
1200,1715534434210,0.25,-1.11,-2.74,-197.51,-114.44,264.1
1201,1715534434220,0.25,-1.11,-2.74,-197.51,-114.44,264.1
1202,1715534434230,1.1366666666666667,-1.43,-1.0533333333333335,-335.00333333333333,-75.46,229.18666666666664
1203,1715534434240,1.58,-1.59,-0.21,-403.75,-55.97,211.73
1204,1715534434250,1.58,-1.59,-0.21,-403.75,-55.97,211.73
1205,1715534434260,1.605,-1.78,0.23500000000000001,-403.75,-55.97,211.73
1206,1715534434270,1.68,-2.35,1.57,-501.16,-85.14,108.76
1207,1715534434280,1.68,-2.35,1.57,-501.16,-85.14,108.76
1208,1715534434290,1.68,-2.35,1.57,-501.16,-85.14,108.76
1209,1715534434300,1.68,-2.35,1.57,-501.16,-85.14,108.76
1210,1715534434310,1.565,-2.31,1.6925000000000001,-502.99,-51.3575,100.98
1211,1715534434320,1.22,-2.19,2.06,-508.48,49.99,77.64
1212,1715534434330,1.22,-2.19,2.06,-508.48,49.99,77.64
1213,1715534434340,1.0875,-2.1174999999999997,1.8975,-494.1975,57.42,61.3125
1214,1715534434350,0.69,-1.8999999999999997,1.41,-451.3500000000001,79.71,12.33
1215,1715534434360,0.69,-1.9,1.41,-451.35,79.71,12.33
1216,1715534434370,0.69,-1.9,1.41,-451.35,79.71,12.33
1217,1715534434380,0.5233333333333333,-1.8133333333333332,1.3433333333333335,-422.68666666666667,29.926666666666662,-1.9133333333333329
1218,1715534434390,0.44,-1.77,1.31,-365.36,-69.64,-30.4
1219,1715534434400,0.44,-1.7700000000000002,1.31,-365.35999999999996,-69.64,-30.399999999999995
1220,1715534434410,0.44,-1.77,1.31,-365.36,-69.64,-30.4
1221,1715534434420,0.405,-1.62,1.245,-369.175,-45.745000000000005,-22.86
1222,1715534434430,0.37,-1.47,1.18,-372.99,-21.85,-15.32
1223,1715534434440,0.36999999999999994,-1.47,1.18,-372.99,-21.850000000000005,-15.32
1224,1715534434450,0.37,-1.47,1.18,-372.99,-21.85,-15.32
1225,1715534434460,0.19000000000000003,-1.4166666666666667,1.08,-376.16333333333336,-0.24333333333333348,-19.226666666666667
1226,1715534434470,0.1,-1.39,1.03,-377.75,10.56,-21.18
1227,1715534434480,0.10000000000000002,-1.39,1.03,-377.75,10.56,-21.18
1228,1715534434490,0.10000000000000002,-1.39,1.03,-377.75,10.56,-21.18
1229,1715534434500,-0.09999999999999999,-1.33,1.71,-396.0,-21.15,-36.195
1230,1715534434510,-0.3,-1.27,2.39,-414.25,-52.86,-51.21
1231,1715534434520,-0.3,-1.27,2.39,-414.25,-52.85999999999999,-51.21
1232,1715534434530,-0.3,-1.27,2.39,-414.25,-52.86,-51.21
1233,1715534434540,-0.04,-0.59,5.02,-315.8,-106.93,163.57
1234,1715534434550,-0.04,-0.59,5.02,-315.8,-106.93,163.57
1235,1715534434560,-0.04,-0.59,5.02,-315.8,-106.93,163.57
1236,1715534434570,-0.04,-0.59,5.02,-315.8,-106.93,163.57
1237,1715534434580,-0.04,-0.59,5.02,-315.8,-106.93,163.57
1238,1715534434590,-0.04,-0.59,5.02,-315.8,-106.93,163.57
1239,1715534434600,-0.04,-0.59,5.02,-315.8,-106.93,163.57
1240,1715534434610,-0.04,-0.59,5.02,-315.8,-106.93,163.57
1241,1715534434620,-0.04,-0.59,5.02,-315.8,-106.93,163.57
1242,1715534434630,-0.04,-0.59,5.02,-315.8,-106.93,163.57
1243,1715534434640,0.98,-1.055,5.905,3.9024999999999963,-9.610000000000003,102.0925
1244,1715534434650,1.2233333333333334,-1.3733333333333333,5.803333333333334,139.74666666666667,20.896666666666665,43.75999999999999
1245,1715534434660,1.03,-1.7,5.01,198.30000000000004,17.03,-31.92
1246,1715534434670,1.03,-1.7,5.01,198.3,17.03,-31.92
1247,1715534434680,1.03,-1.7,5.01,198.3,17.03,-31.92
1248,1715534434690,1.01,-1.1199999999999999,3.9166666666666665,259.54,97.30999999999999,15.4
1249,1715534434700,1.0,-0.83,3.37,290.16,137.45,39.06
1250,1715534434710,1.0,-0.83,3.37,290.16,137.45,39.06
1251,1715534434720,1.0,-0.83,3.3699999999999997,290.16,137.45,39.06
1252,1715534434730,0.9866666666666667,-0.6433333333333334,2.276666666666667,349.20000000000005,120.84999999999998,7.000000000000001
1253,1715534434740,0.98,-0.55,1.73,378.72,112.55,-9.03
1254,1715534434750,0.98,-0.55,1.73,378.72,112.55,-9.03
1255,1715534434760,0.98,-0.55,1.73,378.72,112.55,-9.03
1256,1715534434770,0.82,-1.28,1.46,431.34,82.95,-137.08
1257,1715534434780,0.82,-1.28,1.46,431.34,82.95,-137.08
1258,1715534434790,0.82,-1.28,1.46,431.34,82.95,-137.08
1259,1715534434800,0.82,-1.28,1.46,431.34,82.95,-137.08
1260,1715534434810,0.67,-2.18,1.1,433.59,179.57,-165.1
1261,1715534434820,0.67,-2.18,1.1,433.59,179.57000000000002,-165.1
1262,1715534434830,0.67,-2.18,1.1,433.59,179.57,-165.1
1263,1715534434840,0.67,-2.18,1.1,433.59,179.57,-165.1
1264,1715534434850,0.63,-2.13,1.3,362.49,169.49,-77.45
1265,1715534434860,0.63,-2.13,1.3,362.49,169.49,-77.45
1266,1715534434870,0.63,-2.13,1.3,362.49,169.49,-77.45
1267,1715534434880,0.6699999999999999,-1.9966666666666668,1.08,362.49,169.49,-77.45
1268,1715534434890,0.69,-1.93,0.97,378.72,200.01,-29.85
1269,1715534434900,0.69,-1.93,0.97,378.72,200.01,-29.85
1270,1715534434910,0.69,-1.93,0.97,378.72,200.01,-29.85
1271,1715534434920,0.5475,-1.6600000000000001,0.6625000000000001,378.72,200.01,-29.85
1272,1715534434930,0.5,-1.57,0.56,379.09,128.42,-38.39
1273,1715534434940,0.5,-1.57,0.56,379.09,128.42,-38.39
1274,1715534434950,0.5,-1.57,0.56,379.09,128.42,-38.39
1275,1715534434960,0.505,-1.4100000000000001,0.36500000000000005,377.015,80.25999999999999,-25.33
1276,1715534434970,0.51,-1.25,0.17,374.94,32.1,-12.27
1277,1715534434980,0.51,-1.25,0.17,374.94,32.1,-12.270000000000001
1278,1715534434990,0.51,-1.25,0.17,374.94,32.1,-12.27
1279,1715534435000,0.7399999999999999,-0.6999999999999998,-0.46,374.94,32.1,-12.270000000000001
1280,1715534435010,0.74,-0.7,-0.46,265.56,21.0,-75.56
1281,1715534435020,0.74,-0.7,-0.46,265.56,21.0,-75.56
1282,1715534435030,0.415,-0.6849999999999999,-0.9225000000000001,237.66750000000002,5.6175,-81.5425
1283,1715534435040,-0.56,-0.64,-2.31,153.99,-40.53,-99.49
1284,1715534435050,-0.56,-0.64,-2.31,153.99,-40.53,-99.49
1285,1715534435060,-0.56,-0.64,-2.31,153.99,-40.53,-99.49
1286,1715534435070,-0.56,-0.64,-2.31,153.99,-40.53,-99.49
1287,1715534435080,-0.56,-0.64,-2.31,153.99,-40.53,-99.49
1288,1715534435090,,,,,,
1289,1715534435100,-0.56,-0.64,-2.31,153.99,-40.53,-99.49
1290,1715534435110,-0.56,-0.64,-2.31,153.99,-40.53,-99.49
1291,1715534435120,,,,,,
1292,1715534435130,,,,,,
1293,1715534435140,,,,,,
1294,1715534435150,,,,,,
1295,1715534435160,,,,,,
1296,1715534435170,-1.59,-0.57,-2.6,-118.84,6.23,126.16
1297,1715534435180,-1.59,-0.57,-2.6,-118.84,6.23,126.16
1298,1715534435190,,,,,,
1299,1715534435200,,,,,,
1300,1715534435210,,,,,,
1301,1715534435220,,,,,,
1302,1715534435230,0.79,-1.12,-0.12,-267.7,58.84,300.54
1303,1715534435240,,,,,,
1304,1715534435250,0.79,-1.12,-0.12,-267.7,58.84,300.54
1305,1715534435260,0.79,-1.12,-0.12,-267.7,58.84,300.54
1306,1715534435270,,,,,,
1307,1715534435280,,,,,,
1308,1715534435290,,,,,,
1309,1715534435300,1.56,-1.71,0.93,-435.0,17.33,241.46
1310,1715534435310,,,,,,
1311,1715534435320,,,,,,
1312,1715534435330,,,,,,
1313,1715534435340,,,,,,
1314,1715534435350,,,,,,
1315,1715534435360,,,,,,
1316,1715534435370,,,,,,
1317,1715534435380,,,,,,
1318,1715534435390,,,,,,
1319,1715534435400,,,,,,
1320,1715534435410,,,,,,
1321,1715534435420,,,,,,
1322,1715534435430,,,,,,
1323,1715534435440,,,,,,
1324,1715534435450,0.81,-1.52,1.2,-389.34,-56.58,151.86
1325,1715534435460,,,,,,
1326,1715534435470,,,,,,
1327,1715534435480,0.84,-1.42,1.37,-489.26,-6.53,145.45
1328,1715534435490,0.8666666666666667,-1.2233333333333334,1.5766666666666669,-489.26,-6.53,145.45
1329,1715534435500,0.92,-0.83,1.99,-387.87999999999994,-107.42,76.78
1330,1715534435510,0.92,-0.83,1.99,-387.87999999999994,-107.42,76.78
1331,1715534435520,0.92,-0.83,1.99,-387.87999999999994,-107.42,76.78
1332,1715534435530,1.17,-0.31499999999999995,2.855,-319.765,-110.715,60.025000000000006
1333,1715534435540,1.42,0.20000000000000004,3.72,-251.65,-114.01,43.27
1334,1715534435550,1.42,0.2,3.72,-251.65,-114.01,43.27
1335,1715534435560,1.42,0.20000000000000004,3.72,-251.65,-114.01,43.27
1336,1715534435570,1.5999999999999999,-0.13999999999999999,5.72,-266.0733333333333,-101.39666666666666,46.56666666666666
1337,1715534435580,1.6900000000000002,-0.31,6.72,-294.92,-76.17,53.16
1338,1715534435590,1.69,-0.31,6.72,-294.92,-76.17,53.16
1339,1715534435600,1.6900000000000002,-0.31,6.72,-294.92,-76.17,53.16
1340,1715534435610,1.69,-0.31,6.72,-294.92,-76.17,53.16
1341,1715534435620,1.6900000000000002,-0.31,6.72,-294.92,-76.17,53.16
1342,1715534435630,1.6900000000000002,-0.31,6.72,-294.92,-76.17,53.16
1343,1715534435640,1.6900000000000002,-0.31,6.72,-294.92,-76.17,53.16
1344,1715534435650,1.69,-0.31,6.72,-294.92,-76.17,53.16
1345,1715534435660,1.69,-0.31,6.72,-294.92,-76.17,53.16
1346,1715534435670,1.6900000000000002,-0.31,6.72,-294.92,-76.17,53.16
1347,1715534435680,1.69,-0.31,6.72,-294.92,-76.17,53.16
1348,1715534435690,0.7200000000000001,-1.42,3.06,185.49,191.53,-98.57
1349,1715534435700,0.7200000000000001,-1.42,3.06,185.49,191.53,-98.57
1350,1715534435710,0.7200000000000001,-1.42,3.06,185.49,191.53,-98.57
1351,1715534435720,0.72,-1.42,3.06,185.49,191.53,-98.57
1352,1715534435730,0.9899999999999999,-0.82,2.18,315.12,155.46,-19.23
1353,1715534435740,0.9899999999999999,-0.82,2.18,315.12,155.46,-19.23
1354,1715534435750,0.99,-0.82,2.18,315.12,155.46,-19.23
1355,1715534435760,1.0633333333333335,-0.8733333333333334,1.5933333333333335,365.25333333333333,164.61333333333334,-37.82333333333333
1356,1715534435770,1.1,-0.9,1.3,390.32,169.19,-47.12
1357,1715534435780,1.1,-0.9,1.3,390.32,169.19,-47.12
1358,1715534435790,1.1,-0.9,1.3,390.32,169.19,-47.12
1359,1715534435800,1.0925,-1.3425,1.1125,390.32,169.19,-47.12
1360,1715534435810,1.09,-1.49,1.05,418.56,125.53000000000002,-134.72666666666666
1361,1715534435820,1.09,-1.49,1.05,432.68,103.7,-178.53
1362,1715534435830,1.09,-1.49,1.05,432.68,103.7,-178.53
1363,1715534435840,0.9475,-1.805,1.1025,392.12,125.4875,-199.68
1364,1715534435850,0.9,-1.91,1.12,378.6000000000001,132.75,-206.73
1365,1715534435860,0.9,-1.91,1.12,378.6,132.75,-206.73
1366,1715534435870,0.9,-1.91,1.12,378.6000000000001,132.75,-206.73
1367,1715534435880,0.865,-1.8725,1.0525,378.6,132.75,-206.73
1368,1715534435890,0.76,-1.76,0.85,378.6,132.75,-206.73
1369,1715534435900,0.7600000000000001,-1.76,0.85,334.08666666666664,139.26333333333335,-169.29
1370,1715534435910,0.7875,-1.7349999999999999,0.9249999999999999,312.73,129.52,-145.825
1371,1715534435920,0.87,-1.66,1.15,315.43,90.52,-131.59
1372,1715534435930,0.87,-1.66,1.15,315.43,90.52,-131.59
1373,1715534435940,0.87,-1.66,1.15,315.43,90.52,-131.59
1374,1715534435950,0.87,-1.66,1.15,315.43,90.52,-131.59
1375,1715534435960,0.71,-1.41,0.69,297.61,126.95,-83.56
1376,1715534435970,0.71,-1.41,0.69,297.61,126.95,-83.56
1377,1715534435980,0.71,-1.41,0.69,297.61,126.95,-83.56
1378,1715534435990,0.71,-1.2,0.34,280.94,55.73,-47.35999999999999
1379,1715534436000,0.71,-1.2,0.34,280.94,55.73,-47.36
1380,1715534436010,0.71,-1.2,0.34,280.94,55.73,-47.35999999999999
1381,1715534436020,0.71,-1.2,0.34,280.94,55.73,-47.35999999999999
1382,1715534436030,0.7175,-0.9975,0.025000000000000005,218.08999999999997,81.63499999999999,-81.9725
1383,1715534436040,0.7200000000000001,-0.93,-0.08,197.14,90.27,-93.51
1384,1715534436050,0.72,-0.93,-0.08,197.14,90.27,-93.51
1385,1715534436060,0.31,-0.7666666666666667,-0.5466666666666666,177.97666666666666,102.31333333333333,-104.33333333333333
1386,1715534436070,-0.51,-0.44,-1.4799999999999998,139.65,126.40000000000002,-125.98
1387,1715534436080,-0.51,-0.44,-1.48,139.65,126.4,-125.98
1388,1715534436090,-0.51,-0.44,-1.4799999999999998,139.65,126.40000000000002,-125.98
1389,1715534436100,-0.51,-0.44,-1.4799999999999998,139.65,126.40000000000002,-125.98
1390,1715534436110,-1.4900000000000002,0.485,-4.74,-163.115,154.45,-162.66
1391,1715534436120,-2.47,1.41,-8.0,-465.87999999999994,182.5,-199.34
1392,1715534436130,-2.47,1.41,-8.0,-465.88,182.5,-199.34
1393,1715534436140,-2.47,1.41,-8.0,-465.87999999999994,182.5,-199.34
1394,1715534436150,-2.47,1.41,-8.0,-465.87999999999994,182.5,-199.34
1395,1715534436160,-2.47,1.41,-8.0,-465.87999999999994,182.5,-199.34
1396,1715534436170,-2.47,1.41,-8.0,-465.88,182.5,-199.34
1397,1715534436180,-2.47,1.41,-8.0,-465.87999999999994,182.5,-199.34
1398,1715534436190,-2.47,1.41,-8.0,-465.87999999999994,182.5,-199.34
1399,1715534436200,-2.47,1.41,-8.0,-465.87999999999994,182.5,-199.34
1400,1715534436210,-2.236666666666667,0.38666666666666666,-6.373333333333334,-374.36999999999995,125.85666666666667,-47.076666666666675
1401,1715534436220,1.5599999999999998,-1.46,-0.67,-226.29666666666665,-38.25,308.47
1402,1715534436230,1.56,-1.46,-0.67,-243.77,-63.66,333.98
1403,1715534436240,1.56,-1.46,-0.67,-243.77,-63.66,333.98
1404,1715534436250,1.56,-1.46,-0.67,-243.77,-63.66,333.98
1405,1715534436260,2.24,-1.11,1.15,-364.14,-33.39,269.65
1406,1715534436270,2.24,-1.11,1.15,-364.14,-33.39,269.65
1407,1715534436280,2.24,-1.11,1.15,-364.14,-33.39,269.65
1408,1715534436290,2.0433333333333334,-1.1033333333333335,1.2766666666666666,-348.36999999999995,-51.47666666666667,236.67333333333332
1409,1715534436300,1.65,-1.09,1.53,-316.83,-87.65,170.72
1410,1715534436310,1.6499999999999997,-1.09,1.53,-316.83,-87.65000000000002,170.72
1411,1715534436320,1.6499999999999997,-1.09,1.53,-316.83,-87.65000000000002,170.72
1412,1715534436330,1.6499999999999997,-1.09,1.53,-316.83,-87.65000000000002,170.72
1413,1715534436340,1.13,-1.22,1.2,-302.8,-117.0,131.41
1414,1715534436350,1.13,-1.22,1.2,-302.8,-117.0,131.41
1415,1715534436360,1.13,-1.22,1.2,-302.8,-117.0,131.41
1416,1715534436370,1.1225,-1.3325,1.4625,-411.3325,-44.9025,110.6275
1417,1715534436380,1.12,-1.37,1.55,-447.51,-20.87,103.7
1418,1715534436390,1.12,-1.37,1.55,-447.51,-20.87,103.7
1419,1715534436400,1.12,-1.37,1.55,-447.51,-20.87,103.7
1420,1715534436410,0.91,-1.4975,1.385,-447.51,-20.87,103.7
1421,1715534436420,0.84,-1.54,1.33,-441.59,-49.56,39.92
1422,1715534436430,0.84,-1.54,1.33,-441.59,-49.56,39.92
1423,1715534436440,0.84,-1.54,1.33,-441.59,-49.56,39.92
1424,1715534436450,0.79,-1.52,1.29,-381.65,-148.25,12.39
1425,1715534436460,0.79,-1.52,1.29,-381.65,-148.25,12.39
1426,1715534436470,0.79,-1.52,1.29,-381.65,-148.25,12.39
1427,1715534436480,0.79,-1.52,1.29,-381.65,-148.25,12.39
1428,1715534436490,1.02,-1.39,1.59,-436.77,-115.23,27.100000000000005
1429,1715534436500,1.02,-1.39,1.59,-436.77,-115.23,27.1
1430,1715534436510,1.02,-1.39,1.59,-436.77,-115.23,27.1
1431,1715534436520,0.71,-1.02,1.73,-444.995,-108.0125,22.9025
1432,1715534436530,0.4,-0.65,1.87,-469.67,-86.36,10.31
1433,1715534436540,0.4000000000000001,-0.65,1.87,-469.67,-86.36,10.31
1434,1715534436550,0.4,-0.65,1.87,-469.67,-86.36,10.31
1435,1715534436560,0.4,-0.65,1.87,-469.67,-86.36,10.31
1436,1715534436570,0.45,0.32,5.05,-388.55,-89.84,-80.69
1437,1715534436580,0.45,0.32,5.05,-388.55,-89.83999999999999,-80.69
1438,1715534436590,0.45,0.32,5.05,-388.55,-89.83999999999999,-80.69
1439,1715534436600,1.49,-0.13,8.0,-48.71,-124.21,92.29
1440,1715534436610,1.49,-0.13,8.0,-48.71,-124.21,92.29
1441,1715534436620,1.49,-0.13,8.0,-48.71,-124.21,92.29
1442,1715534436630,1.49,-0.13,8.0,-48.71,-124.21,92.29
1443,1715534436640,1.9625000000000001,-1.1124999999999998,6.9425,169.735,-20.154999999999998,-57.3125
1444,1715534436650,2.12,-1.44,6.59,242.55,14.53,-107.18
1445,1715534436660,2.12,-1.44,6.59,242.55,14.53,-107.18
1446,1715534436670,2.12,-1.44,6.59,242.55,14.53,-107.18
1447,1715534436680,2.12,-1.4400000000000002,6.59,242.55000000000004,14.53,-107.18
1448,1715534436690,2.12,-1.44,6.59,242.55,14.53,-107.18
1449,1715534436700,2.12,-1.44,6.59,242.55,14.53,-107.18
1450,1715534436710,2.12,-1.4400000000000002,6.59,242.55000000000004,14.53,-107.18
1451,1715534436720,2.12,-1.44,6.59,242.55,14.53,-107.18
1452,1715534436730,2.12,-1.4400000000000002,6.59,242.55000000000004,14.53,-107.18
1453,1715534436740,0.85,-0.92,2.86,235.9,182.25,33.39
1454,1715534436750,0.915,-0.8175,2.5975,258.95500000000004,188.9175,43.6125
1455,1715534436760,1.11,-0.51,1.81,328.12,208.92,74.28
1456,1715534436770,1.11,-0.51,1.81,328.12,208.92,74.28
1457,1715534436780,1.11,-0.51,1.8099999999999998,328.12,208.92,74.28
1458,1715534436790,1.1600000000000001,-0.585,1.375,358.64,206.755,54.14
1459,1715534436800,1.21,-0.66,0.94,389.16,204.59,34.0
1460,1715534436810,1.21,-0.66,0.94,389.16,204.59,34.0
1461,1715534436820,1.21,-0.66,0.94,389.16,204.59,34.0
1462,1715534436830,1.0074999999999998,-1.0875,0.745,380.96250000000003,170.3975,-54.7175
1463,1715534436840,0.94,-1.23,0.68,378.23,159.0,-84.29
1464,1715534436850,0.9399999999999998,-1.23,0.68,378.23,159.0,-84.29
1465,1715534436860,0.94,-1.23,0.68,378.23,159.0,-84.29
1466,1715534436870,0.83,-1.4799999999999998,0.83,378.23,159.0,-84.29
1467,1715534436880,0.83,-1.48,0.83,363.65,84.23,-83.07
1468,1715534436890,0.83,-1.4799999999999998,0.83,363.6499999999999,84.23,-83.07
1469,1715534436900,0.83,-1.48,0.83,363.65,84.23,-83.07
1470,1715534436910,1.02,-1.32,1.23,314.43499999999995,107.6675,-70.38749999999999
1471,1715534436920,1.02,-1.32,1.23,298.03,115.48,-66.16
1472,1715534436930,1.02,-1.32,1.23,298.03,115.48,-66.16
1473,1715534436940,1.02,-1.32,1.23,298.03,115.48,-66.16
1474,1715534436950,0.88,-1.3999999999999997,0.89,317.57,111.51,-59.63
1475,1715534436960,0.88,-1.4,0.89,317.57,111.51,-59.63
1476,1715534436970,0.88,-1.3999999999999997,0.89,317.57,111.51,-59.63
1477,1715534436980,0.85,-1.185,0.6799999999999999,324.68,60.7,-56.945
1478,1715534436990,0.82,-0.9700000000000001,0.47,331.79,9.89,-54.26
1479,1715534437000,0.82,-0.97,0.47,331.79,9.89,-54.26
1480,1715534437010,0.82,-0.9700000000000001,0.47,331.79,9.89,-54.26
1481,1715534437020,0.9624999999999999,-0.745,0.38,314.485,1.1,-83.8
1482,1715534437030,1.01,-0.67,0.3499999999999999,297.18,-7.69,-113.33999999999999
1483,1715534437040,1.01,-0.67,0.35,297.18,-7.69,-113.34
1484,1715534437050,1.01,-0.67,0.3499999999999999,297.18,-7.69,-113.33999999999999
1485,1715534437060,0.9433333333333334,-0.73,0.08333333333333333,170.67333333333332,73.64999999999999,-158.87333333333333
1486,1715534437070,0.91,-0.7600000000000001,-0.05000000000000001,107.42,114.32,-181.64
1487,1715534437080,0.91,-0.7600000000000001,-0.05000000000000001,107.42,114.32,-181.64
1488,1715534437090,0.91,-0.7600000000000001,-0.05000000000000001,107.42,114.32,-181.64
1489,1715534437100,-0.53,-0.37,-1.9175,144.545,85.4825,-241.565
1490,1715534437110,-1.01,-0.24,-2.54,156.92,75.87,-261.54
1491,1715534437120,-1.01,-0.24,-2.54,156.92,75.87,-261.54
1492,1715534437130,-1.49,-0.5249999999999999,-3.075,161.20749999999998,19.4125,-215.9
1493,1715534437140,-2.93,-1.38,-4.68,174.07000000000002,-149.96,-78.98
1494,1715534437150,-2.93,-1.38,-4.68,174.07000000000002,-149.96,-78.98
1495,1715534437160,-2.93,-1.38,-4.68,174.07000000000002,-149.96,-78.98
1496,1715534437170,-2.93,-1.38,-4.68,174.07,-149.96,-78.98
1497,1715534437180,-2.93,-1.38,-4.68,174.07000000000002,-149.96,-78.98
1498,1715534437190,-2.93,-1.38,-4.68,174.07000000000002,-149.96,-78.98
1499,1715534437200,-2.93,-1.38,-4.68,174.07000000000002,-149.96,-78.98
1500,1715534437210,-2.93,-1.38,-4.68,174.07,-149.96,-78.98
1501,1715534437220,-2.93,-1.38,-4.68,174.07000000000002,-149.96,-78.98
1502,1715534437230,-2.93,-1.38,-4.68,174.07,-149.96,-78.98
1503,1715534437240,-2.93,-1.38,-4.68,174.07000000000002,-149.96,-78.98
1504,1715534437250,-2.93,-1.38,-4.68,174.07,-149.96,-78.98
1505,1715534437260,-1.2060000000000002,-1.456,-2.844,-19.558000000000003,-134.092,77.344
1506,1715534437270,1.38,-1.57,-0.09,-310.0,-110.29,311.83
1507,1715534437280,1.38,-1.57,-0.09,-310.0,-110.29,311.83
1508,1715534437290,1.71,-1.445,0.73,-332.735,-99.48500000000001,279.175
1509,1715534437300,2.04,-1.32,1.55,-355.47,-88.68,246.52
1510,1715534437310,2.04,-1.32,1.55,-355.47,-88.68,246.52000000000004
1511,1715534437320,2.04,-1.32,1.55,-355.47,-88.68,246.52
1512,1715534437330,1.48,-1.26,1.61,-303.96,-108.52000000000001,168.52
1513,1715534437340,1.4799999999999998,-1.26,1.61,-303.96,-108.52,168.52
1514,1715534437350,1.48,-1.26,1.61,-303.96,-108.52000000000001,168.52
1515,1715534437360,1.4799999999999998,-1.26,1.61,-303.96,-108.52,168.52
1516,1715534437370,1.168,-1.236,1.306,-315.72,-83.912,140.488
1517,1715534437380,1.09,-1.23,1.23,-318.66,-77.76,133.48
1518,1715534437390,1.09,-1.23,1.23,-318.66,-77.76,133.48
1519,1715534437400,1.0466666666666666,-1.2733333333333334,1.2133333333333332,-337.31666666666666,-72.81666666666668,123.65333333333332
1520,1715534437410,0.96,-1.36,1.18,-374.63,-62.92999999999999,104.0
1521,1715534437420,0.96,-1.36,1.18,-374.63,-62.92999999999999,104.0
1522,1715534437430,0.96,-1.36,1.18,-374.63,-62.93,104.0
1523,1715534437440,0.9125,-1.385,1.165,-371.975,-79.78999999999999,99.6975
1524,1715534437450,0.77,-1.46,1.12,-364.01,-130.37,86.79
1525,1715534437460,0.77,-1.46,1.12,-364.01,-130.37,86.79
1526,1715534437470,0.77,-1.46,1.12,-364.01,-130.37,86.79
1527,1715534437480,0.77,-1.46,1.12,-364.01,-130.37,86.79
1528,1715534437490,0.8233333333333333,-1.42,1.2133333333333334,-367.18333333333334,-139.20333333333335,94.03666666666668
1529,1715534437500,0.85,-1.4,1.26,-368.77,-143.62,97.66
1530,1715534437510,0.85,-1.4,1.26,-368.77,-143.62,97.66
1531,1715534437520,0.8233333333333334,-1.2866666666666666,1.4400000000000002,-399.12999999999994,-106.95333333333333,97.82000000000001
1532,1715534437530,0.81,-1.23,1.53,-414.31,-88.62,97.9
1533,1715534437540,0.81,-1.23,1.53,-414.31,-88.62,97.90000000000002
1534,1715534437550,0.81,-1.23,1.53,-414.31,-88.62,97.90000000000002
1535,1715534437560,0.7600000000000001,0.10000000000000002,2.55,-414.31,-88.62,97.90000000000002
1536,1715534437570,0.7600000000000001,0.10000000000000002,2.55,-374.6366666666667,-118.89333333333333,77.8
1537,1715534437580,0.76,0.1,2.55,-354.8,-134.03,67.75
1538,1715534437590,0.7600000000000001,0.10000000000000002,2.55,-354.8,-134.03,67.75
1539,1715534437600,0.03,0.44,4.33,-310.73,-95.95,-13.92
1540,1715534437610,0.03,0.44,4.33,-310.73,-95.95,-13.92
1541,1715534437620,0.03,0.44,4.33,-310.73,-95.95,-13.92
1542,1715534437630,0.9275,0.4625,5.2475000000000005,-253.28000000000003,-95.4925,44.11
1543,1715534437640,3.62,0.53,8.0,-80.93,-94.12,218.2
1544,1715534437650,3.6199999999999997,0.53,8.0,-80.93,-94.12,218.19999999999996
1545,1715534437660,3.6199999999999997,0.53,8.0,-80.93,-94.12,218.19999999999996
1546,1715534437670,3.21,-0.28500000000000003,7.07,-13.762500000000003,-60.335,121.58249999999998
1547,1715534437680,2.7999999999999994,-1.1,6.14,187.74,41.02,-168.27
1548,1715534437690,2.8,-1.1,6.14,187.74,41.02,-168.27
1549,1715534437700,2.7999999999999994,-1.1,6.14,187.74,41.02,-168.27
1550,1715534437710,2.7999999999999994,-1.1,6.14,187.74,41.02,-168.27
1551,1715534437720,2.8,-1.1,6.14,187.74,41.02,-168.27
1552,1715534437730,2.8,-1.1,6.14,187.74,41.02,-168.27
1553,1715534437740,2.8,-1.1,6.14,187.74,41.02,-168.27
1554,1715534437750,2.8,-1.1,6.14,187.74,41.02,-168.27
1555,1715534437760,2.8,-1.1,6.14,187.74,41.02,-168.27
1556,1715534437770,2.8,-1.1,6.14,187.74,41.02,-168.27
1557,1715534437780,2.7999999999999994,-1.1,6.14,187.74,41.02,-168.27
1558,1715534437790,0.97,-0.61,2.1,259.034,158.0,19.253999999999998
1559,1715534437800,0.9700000000000001,-0.61,2.1,318.85,185.0,78.19
1560,1715534437810,0.97,-0.61,2.1,318.85,185.0,78.19
1561,1715534437820,0.97,-0.61,2.1,318.85,185.0,78.19
1562,1715534437830,1.0,-1.0899999999999999,1.4024999999999999,356.3875,227.1125,85.9225
1563,1715534437840,1.01,-1.25,1.17,368.8999999999999,241.15,88.5
1564,1715534437850,1.01,-1.25,1.17,368.8999999999999,241.15,88.5
1565,1715534437860,0.9450000000000001,-1.3625,1.015,387.835,218.23250000000002,69.395
1566,1715534437870,0.75,-1.7,0.55,444.64,149.48,12.08
1567,1715534437880,0.75,-1.7,0.55,444.64000000000004,149.48,12.08
1568,1715534437890,0.75,-1.7,0.55,444.64000000000004,149.48,12.08
1569,1715534437900,0.8,-1.565,0.71,427.735,104.405,-4.795000000000001
1570,1715534437910,0.85,-1.43,0.87,410.83,59.330000000000005,-21.67
1571,1715534437920,0.85,-1.43,0.87,410.83,59.330000000000005,-21.67
1572,1715534437930,0.85,-1.43,0.87,410.83,59.33,-21.67
1573,1715534437940,0.7749999999999999,-1.3599999999999999,0.9199999999999999,378.94,64.88,-71.35
1574,1715534437950,0.6999999999999998,-1.29,0.9700000000000001,347.05,70.43,-121.03000000000002
1575,1715534437960,0.7,-1.29,0.97,347.05,70.43,-121.03
1576,1715534437970,0.6999999999999998,-1.29,0.9700000000000001,347.05,70.43,-121.03000000000002
1577,1715534437980,0.66,-1.3633333333333333,1.0899999999999999,333.09,63.23,-127.66333333333334
1578,1715534437990,0.64,-1.4,1.15,326.11,59.63,-130.98
1579,1715534438000,0.64,-1.3999999999999997,1.15,326.11,59.63,-130.98
1580,1715534438010,0.64,-1.3999999999999997,1.15,326.11,59.63,-130.98
1581,1715534438020,0.7066666666666667,-1.2266666666666666,0.9366666666666665,284.07666666666665,99.42333333333333,-131.5533333333333
1582,1715534438030,0.7399999999999999,-1.14,0.83,263.06,119.32,-131.84
1583,1715534438040,0.74,-1.14,0.83,263.06,119.32,-131.84
1584,1715534438050,0.715,-1.1524999999999999,0.6925,263.06,119.32,-131.84
1585,1715534438060,0.64,-1.19,0.28,286.99,24.78,-148.07
1586,1715534438070,0.64,-1.19,0.28,286.99,24.78,-148.07
1587,1715534438080,0.64,-1.19,0.28,286.99,24.78,-148.07
1588,1715534438090,0.64,-1.19,0.28,286.99,24.78,-148.07
1589,1715534438100,0.38999999999999996,-1.07,-0.56,156.31,43.95000000000001,-145.94
1590,1715534438110,0.39,-1.07,-0.56,156.31,43.95,-145.94
1591,1715534438120,0.38999999999999996,-1.07,-0.56,156.31,43.95000000000001,-145.94
1592,1715534438130,-0.050000000000000044,-0.9450000000000001,-1.2125,161.04,37.9225,-142.78
1593,1715534438140,-1.37,-0.57,-3.17,175.23,19.84,-133.3
1594,1715534438150,-1.37,-0.57,-3.17,175.23,19.84,-133.3
1595,1715534438160,-1.37,-0.57,-3.17,175.23,19.84,-133.3
1596,1715534438170,-1.73,-0.49,-3.3499999999999996,165.95499999999998,45.625,-66.19000000000001
1597,1715534438180,-2.09,-0.41,-3.53,156.68,71.41,0.92
1598,1715534438190,-2.09,-0.41,-3.53,156.68,71.41,0.92
1599,1715534438200,-2.09,-0.41,-3.53,156.68,71.41,0.92
1600,1715534438210,-2.236666666666667,-0.7833333333333332,-4.11,-35.379999999999995,-21.563333333333333,93.97333333333331
1601,1715534438220,-2.31,-0.9700000000000001,-4.4,-131.41,-68.05,140.5
1602,1715534438230,-2.31,-0.97,-4.4,-131.41,-68.05,140.5
1603,1715534438240,-2.31,-0.9700000000000001,-4.4,-131.41,-68.05,140.5
1604,1715534438250,-2.31,-0.97,-4.4,-131.41,-68.05,140.5
1605,1715534438260,-2.31,-0.97,-4.4,-131.41,-68.05,140.5
1606,1715534438270,-2.31,-0.97,-4.4,-131.41,-68.05,140.5
1607,1715534438280,-2.31,-0.9700000000000001,-4.4,-131.41,-68.05,140.5
1608,1715534438290,-2.31,-0.97,-4.4,-131.41,-68.05,140.5
1609,1715534438300,-2.31,-0.9700000000000001,-4.4,-131.41,-68.05,140.5
1610,1715534438310,0.5366666666666666,-1.8033333333333335,-1.0666666666666667,-263.93666666666667,-121.11,280.96666666666664
1611,1715534438320,1.96,-2.22,0.6,-330.2,-147.64,351.2
1612,1715534438330,2.36,-1.9666666666666668,1.78,-326.5,-128.67999999999998,300.00666666666666
1613,1715534438340,2.56,-1.84,2.37,-324.65,-119.2,274.41
1614,1715534438350,2.56,-1.84,2.37,-324.65,-119.2,274.41
1615,1715534438360,2.56,-1.84,2.37,-324.65,-119.2,274.41
1616,1715534438370,1.78,-1.21,2.12,-340.09,-38.15,197.51
1617,1715534438380,1.78,-1.21,2.12,-340.09,-38.15,197.51
1618,1715534438390,1.78,-1.21,2.12,-340.09,-38.15,197.51
1619,1715534438400,1.5333333333333332,-1.2166666666666666,1.906666666666667,-340.09,-38.15,197.51
1620,1715534438410,1.04,-1.23,1.48,-369.14,-9.555,161.89499999999998
1621,1715534438420,1.04,-1.23,1.48,-398.19,19.04,126.28
1622,1715534438430,1.04,-1.23,1.48,-398.19,19.04,126.28
1623,1715534438440,1.04,-1.23,1.4799999999999998,-398.19,19.04,126.28000000000002
1624,1715534438450,0.71,-1.38,1.33,-377.87000000000006,-34.97,92.58999999999999
1625,1715534438460,0.71,-1.38,1.33,-377.87000000000006,-34.97,92.58999999999999
1626,1715534438470,0.71,-1.38,1.33,-377.87,-34.97,92.59
1627,1715534438480,0.6366666666666666,-1.3533333333333335,1.3500000000000003,-375.2633333333333,-44.04333333333333,93.44333333333334
1628,1715534438490,0.6,-1.34,1.36,-373.96,-48.58,93.87
1629,1715534438500,0.6,-1.34,1.36,-373.96,-48.580000000000005,93.87
1630,1715534438510,0.6,-1.34,1.36,-373.96,-48.58,93.87
1631,1715534438520,0.59,-0.86,1.51,-396.46,-25.30666666666667,113.52333333333333
1632,1715534438530,0.59,-0.86,1.51,-407.71,-13.67,123.35
1633,1715534438540,0.59,-0.86,1.51,-407.71,-13.67,123.34999999999998
1634,1715534438550,0.59,-0.86,1.51,-407.71,-13.67,123.35
1635,1715534438560,0.76,0.26,2.04,-362.12,-42.85,75.32
1636,1715534438570,0.76,0.26,2.04,-362.12,-42.85,75.32
1637,1715534438580,0.76,0.26,2.04,-362.12,-42.85,75.32
1638,1715534438590,0.69,0.4375,2.3175,-351.83500000000004,-38.485,53.11749999999999
1639,1715534438600,0.48,0.9700000000000001,3.15,-320.98,-25.39,-13.49
1640,1715534438610,0.48,0.97,3.15,-320.98,-25.39,-13.49
1641,1715534438620,0.48,0.9700000000000001,3.15,-320.98,-25.39,-13.49
1642,1715534438630,0.7424999999999999,0.7775,3.9699999999999998,-320.98,-25.39,-13.49
1643,1715534438640,1.53,0.20000000000000004,6.43,-149.35,-133.79,127.26
1644,1715534438650,1.53,0.20000000000000004,6.43,-149.35,-133.79,127.26
1645,1715534438660,1.53,0.2,6.43,-149.35,-133.79,127.26
1646,1715534438670,2.1233333333333335,-0.4066666666666667,6.37,14.183333333333337,-26.609999999999996,-14.993333333333334
1647,1715534438680,2.42,-0.71,6.34,95.95,26.98,-86.12
1648,1715534438690,2.42,-0.71,6.34,95.95,26.98,-86.12
1649,1715534438700,2.42,-0.71,6.34,95.95,26.98,-86.12
1650,1715534438710,1.7866666666666664,-1.3633333333333333,5.426666666666667,95.95,26.98,-86.12
1651,1715534438720,1.47,-1.69,4.97,192.14,102.11,-153.26
1652,1715534438730,1.47,-1.6900000000000002,4.97,192.14,102.11,-153.26
1653,1715534438740,1.47,-1.69,4.97,192.14,102.11,-153.26
1654,1715534438750,1.47,-1.69,4.97,192.14,102.11,-153.26
1655,1715534438760,1.47,-1.6900000000000002,4.97,192.14,102.11,-153.26
1656,1715534438770,1.47,-1.69,4.97,192.14,102.11,-153.26
1657,1715534438780,1.47,-1.6900000000000002,4.97,192.14,102.11,-153.26
1658,1715534438790,1.47,-1.6900000000000002,4.97,192.14,102.11,-153.26
1659,1715534438800,1.47,-1.6900000000000002,4.97,192.14,102.11,-153.26
1660,1715534438810,1.47,-1.6900000000000002,4.97,192.14,102.11,-153.26
1661,1715534438820,1.47,-1.6900000000000002,4.97,192.14,102.11,-153.26
1662,1715534438830,1.47,-1.69,4.97,192.14,102.11,-153.26
1663,1715534438840,0.9825,-0.7225,1.6775,375.9475,206.6325,30.58
1664,1715534438850,1.06,-0.7600000000000001,1.4400000000000002,402.53,215.44999999999996,35.22
1665,1715534438860,1.0166666666666668,-0.98,1.2266666666666666,409.14000000000004,232.11333333333332,7.326666666666665
1666,1715534438870,0.93,-1.42,0.8000000000000002,422.35999999999996,265.44,-48.46
1667,1715534438880,0.93,-1.42,0.8,422.36,265.44,-48.46
1668,1715534438890,0.93,-1.42,0.8,422.36,265.44,-48.46
1669,1715534438900,0.93,-1.42,0.8000000000000002,422.35999999999996,265.44,-48.46
1670,1715534438910,0.49,-1.74,0.51,427.92,103.82,-66.96
1671,1715534438920,0.49,-1.74,0.51,427.92,103.82,-66.96
1672,1715534438930,0.49,-1.74,0.51,427.92,103.82,-66.96
1673,1715534438940,0.71,-1.3933333333333333,0.7233333333333333,427.71333333333337,31.84,-70.04666666666667
1674,1715534438950,0.82,-1.22,0.83,427.61,-4.15,-71.59
1675,1715534438960,0.82,-1.22,0.83,427.60999999999996,-4.15,-71.59
1676,1715534438970,0.82,-1.22,0.83,427.61,-4.15,-71.59
1677,1715534438980,0.79,-1.19,0.8733333333333334,400.39000000000004,9.156666666666668,-91.53000000000002
1678,1715534438990,0.73,-1.13,0.96,345.95,35.77,-131.41
1679,1715534439000,0.73,-1.13,0.96,345.95,35.77,-131.41
1680,1715534439010,0.73,-1.13,0.96,345.95,35.77,-131.41
1681,1715534439020,0.75,-0.89,0.6266666666666666,339.8433333333333,42.403333333333336,-121.35666666666667
1682,1715534439030,0.76,-0.77,0.46,336.79,45.72,-116.33
1683,1715534439040,0.7600000000000001,-0.77,0.46,336.79,45.72,-116.33
1684,1715534439050,0.7600000000000001,-0.77,0.46,336.79,45.72,-116.33
1685,1715534439060,0.73,-0.79,-0.09000000000000001,188.35,74.89,-187.26
1686,1715534439070,0.73,-0.79,-0.09000000000000001,188.35,74.89,-187.26
1687,1715534439080,0.73,-0.79,-0.09000000000000001,188.35,74.89,-187.26
1688,1715534439090,0.5666666666666667,-0.7666666666666666,-0.22999999999999998,188.35,74.89,-187.26
1689,1715534439100,0.24,-0.72,-0.51,121.425,84.16499999999999,-153.385
1690,1715534439110,0.24,-0.7200000000000001,-0.51,54.5,93.44,-119.51
1691,1715534439120,0.24,-0.72,-0.51,54.5,93.44,-119.51
1692,1715534439130,-0.6733333333333332,-0.7866666666666666,-1.7566666666666666,56.39333333333334,83.14666666666666,-84.17
1693,1715534439140,-1.13,-0.82,-2.38,60.18,62.56,-13.49
1694,1715534439150,-1.13,-0.82,-2.38,60.18,62.56,-13.49
1695,1715534439160,-1.13,-0.82,-2.38,60.18,62.56,-13.49
1696,1715534439170,-1.4166666666666667,-0.62,-3.1799999999999997,72.87333333333333,-45.10666666666666,-1.2833333333333332
1697,1715534439180,-1.56,-0.52,-3.58,79.22,-98.94,4.82
1698,1715534439190,-1.5599999999999998,-0.52,-3.58,79.22,-98.94,4.82
1699,1715534439200,-1.56,-0.52,-3.58,79.22,-98.94,4.82
1700,1715534439210,-2.47,-0.7200000000000001,-4.24,0.0799999999999983,-44.25333333333333,82.94666666666667
1701,1715534439220,-2.47,-0.7200000000000001,-4.24,-39.49,-16.91,122.01
1702,1715534439230,-2.47,-0.7200000000000001,-4.24,-39.49,-16.91,122.01
1703,1715534439240,-2.47,-0.72,-4.24,-39.49,-16.91,122.01
1704,1715534439250,-1.37,-1.0733333333333333,-3.16,-136.09,-63.01,224.47
1705,1715534439260,-0.82,-1.25,-2.62,-184.39,-86.06,275.7
1706,1715534439270,-0.82,-1.25,-2.62,-184.39,-86.06,275.7
1707,1715534439280,-0.82,-1.25,-2.62,-184.39,-86.06,275.7
1708,1715534439290,-0.82,-1.25,-2.62,-184.39,-86.06,275.7
1709,1715534439300,-0.82,-1.25,-2.62,-184.39,-86.06,275.7
1710,1715534439310,-0.82,-1.25,-2.62,-184.39,-86.06,275.7
1711,1715534439320,-0.82,-1.25,-2.62,-184.39,-86.06,275.7
1712,1715534439330,-0.82,-1.25,-2.62,-184.39,-86.06,275.7
1713,1715534439340,-0.82,-1.25,-2.62,-184.39,-86.06,275.7
1714,1715534439350,-0.82,-1.25,-2.62,-184.39,-86.06,275.7
1715,1715534439360,1.0933333333333333,-1.4966666666666668,0.30666666666666664,-297.95666666666665,-89.67999999999999,252.74666666666667
1716,1715534439370,1.76,-1.33,2.03,-335.75,-77.33,170.65
1717,1715534439380,1.76,-1.33,2.03,-335.75,-77.33,170.65
1718,1715534439390,1.76,-1.33,2.03,-335.75,-77.33,170.65
1719,1715534439400,1.4333333333333333,-1.1966666666666665,1.6966666666666665,-327.81666666666666,-63.53666666666667,143.27
1720,1715534439410,1.27,-1.13,1.53,-323.85,-56.64000000000001,129.58
1721,1715534439420,1.27,-1.13,1.53,-323.85,-56.64000000000001,129.58
1722,1715534439430,1.27,-1.13,1.53,-323.85,-56.64,129.58
1723,1715534439440,0.87,-1.0,1.2,-332.82,-48.95000000000001,89.96999999999998
1724,1715534439450,0.87,-1.0,1.2,-332.82,-48.95,89.97
1725,1715534439460,0.87,-1.0,1.2,-332.82,-48.95,89.97
1726,1715534439470,0.87,-1.0,1.2,-332.82,-48.95000000000001,89.96999999999998
1727,1715534439480,0.59,-1.17,0.7799999999999999,-352.6000000000001,-69.64,91.19
1728,1715534439490,0.59,-1.17,0.7799999999999999,-352.6000000000001,-69.64,91.19
1729,1715534439500,0.59,-1.17,0.7799999999999999,-352.6000000000001,-69.64,91.19
1730,1715534439510,0.59,-1.17,0.7799999999999999,-352.6000000000001,-69.64,91.19
1731,1715534439520,1.0,-1.19,1.25,-452.21,-50.29,86.73
1732,1715534439530,1.0,-1.19,1.25,-452.21,-50.29,86.73
1733,1715534439540,1.0,-1.19,1.25,-452.21,-50.29,86.73
1734,1715534439550,0.8525,-1.1425,1.545,-457.35249999999996,-65.6575,66.4675
1735,1715534439560,0.41,-1.0,2.43,-472.78,-111.76,5.68
1736,1715534439570,0.41,-1.0,2.43,-472.78,-111.76,5.68
1737,1715534439580,0.41,-1.0,2.43,-472.78,-111.76,5.68
1738,1715534439590,0.49333333333333335,-0.5033333333333333,3.1666666666666665,-472.78,-111.76,5.68
1739,1715534439600,0.66,0.49,4.64,-180.42,-142.15,102.29
1740,1715534439610,0.66,0.49,4.64,-180.42,-142.15,102.29
1741,1715534439620,0.66,0.49,4.64,-180.42,-142.15,102.29
1742,1715534439630,1.55,0.99,5.17,-180.42,-142.15,102.29
1743,1715534439640,2.44,1.49,5.7,-38.21,-118.29,240.23
1744,1715534439650,2.44,1.49,5.7,-38.21,-118.29,240.23
1745,1715534439660,2.44,1.49,5.7,-38.21,-118.29,240.23
1746,1715534439670,3.106666666666667,1.3966666666666665,5.826666666666667,11.270000000000001,-86.28666666666668,113.92999999999999
1747,1715534439680,4.44,1.21,6.08,110.23,-22.28,-138.67
1748,1715534439690,4.44,1.21,6.080000000000001,110.23,-22.28,-138.67
1749,1715534439700,4.44,1.21,6.08,110.23,-22.28,-138.67
1750,1715534439710,1.3999999999999997,-1.24,4.52,60.71,116.18666666666665,-202.51666666666665
1751,1715534439720,1.4,-1.24,4.52,35.95,185.42,-234.44
1752,1715534439730,1.4,-1.24,4.52,35.95,185.42,-234.44
1753,1715534439740,1.1733333333333331,-1.05,4.013333333333333,35.95,185.42,-234.43999999999997
1754,1715534439750,0.7200000000000001,-0.67,3.0,205.14,121.03000000000002,-33.57
1755,1715534439760,0.72,-0.67,3.0,205.14,121.03,-33.57
1756,1715534439770,0.7200000000000001,-0.67,3.0,205.14,121.03000000000002,-33.57
1757,1715534439780,0.8474999999999999,-0.48750000000000004,2.7625,236.23749999999998,107.755,-23.895
1758,1715534439790,1.23,0.06,2.05,329.53,67.93,5.13
1759,1715534439800,1.23,0.06,2.05,329.53,67.93,5.13
1760,1715534439810,1.23,0.06,2.05,329.53,67.93,5.13
1761,1715534439820,1.23,0.06,2.05,329.53,67.93,5.13
1762,1715534439830,1.23,0.06,2.05,329.53,67.93,5.13
1763,1715534439840,1.23,0.06,2.05,329.53,67.93,5.13
1764,1715534439850,1.23,0.06,2.05,329.53,67.93,5.13
1765,1715534439860,1.23,0.06,2.05,329.53,67.93,5.13
1766,1715534439870,1.23,0.06,2.05,329.53,67.93,5.13
1767,1715534439880,1.045,-0.58,1.5,318.115,117.825,-87.705
1768,1715534439890,0.86,-1.22,0.9499999999999998,306.7,167.72,-180.54
1769,1715534439900,0.77,-1.35,0.8899999999999999,288.575,170.5,-168.73
1770,1715534439910,0.68,-1.48,0.83,270.45,173.28,-156.92
1771,1715534439920,0.68,-1.48,0.83,270.45,173.28,-156.92
1772,1715534439930,0.68,-1.4799999999999998,0.83,270.45,173.28,-156.92
1773,1715534439940,0.6999999999999998,-1.42,1.07,270.63,160.46,-132.08
1774,1715534439950,0.6999999999999998,-1.42,1.07,270.63,160.46,-132.08
1775,1715534439960,0.6999999999999998,-1.42,1.07,270.63,160.46,-132.08
1776,1715534439970,0.6999999999999998,-1.4133333333333333,1.01,271.6066666666666,162.33333333333334,-118.47000000000001
1777,1715534439980,0.7,-1.4,0.89,273.56,166.08,-91.25
1778,1715534439990,0.6999999999999998,-1.3999999999999997,0.89,273.56,166.08,-91.25
1779,1715534440000,0.7,-1.4,0.89,273.56,166.08,-91.25
1780,1715534440010,0.7999999999999999,-1.29,0.86,269.83666666666664,152.55,-84.67666666666666
1781,1715534440020,1.0,-1.07,0.8,262.39,125.49,-71.53
1782,1715534440030,1.0,-1.07,0.8000000000000002,262.39,125.49,-71.53
1783,1715534440040,1.0,-1.07,0.8,262.39,125.49,-71.53
1784,1715534440050,1.0666666666666667,-0.9500000000000001,0.6266666666666667,252.50333333333333,127.15666666666665,-102.94333333333334
1785,1715534440060,1.1,-0.89,0.54,247.56000000000003,127.99,-118.65000000000002
1786,1715534440070,1.1,-0.89,0.54,247.56000000000003,127.99,-118.65000000000002
1787,1715534440080,1.1,-0.89,0.54,247.56000000000003,127.99,-118.65000000000002
1788,1715534440090,0.8,-0.8374999999999999,-0.21749999999999997,216.125,111.94,-131.315
1789,1715534440100,0.7,-0.82,-0.47,184.69,95.89,-143.98
1790,1715534440110,0.6999999999999998,-0.82,-0.47,184.68999999999997,95.89,-143.98
1791,1715534440120,0.7,-0.82,-0.47,184.69,95.89,-143.98
1792,1715534440130,-0.75,-0.62,-2.43,202.41,14.163333333333336,-136.69666666666666
1793,1715534440140,-0.75,-0.62,-2.43,237.85,-149.29,-122.13
1794,1715534440150,-0.75,-0.62,-2.43,237.85,-149.29,-122.13
1795,1715534440160,-1.4224999999999999,-0.84,-2.66,237.85,-149.29,-122.13
1796,1715534440170,-3.44,-1.5,-3.35,169.78,-156.07,-194.595
1797,1715534440180,-3.44,-1.5,-3.35,147.09,-158.33,-218.75
1798,1715534440190,-3.44,-1.5,-3.35,147.09,-158.33,-218.75
1799,1715534440200,-3.52,-1.575,-3.5175,147.09,-158.33,-218.75
1800,1715534440210,-3.76,-1.8,-4.02,13.67,4.09,217.83
1801,1715534440220,-3.76,-1.8,-4.02,13.67,4.09,217.83
1802,1715534440230,-3.76,-1.8,-4.02,13.67,4.09,217.83
1803,1715534440240,-3.1999999999999997,-1.745,-3.7924999999999995,-32.2425,1.4349999999999998,255.88750000000002
1804,1715534440250,-1.52,-1.58,-3.11,-169.98,-6.53,370.06
1805,1715534440260,-1.5200000000000002,-1.58,-3.11,-169.98,-6.53,370.06
1806,1715534440270,-1.52,-1.58,-3.11,-169.98,-6.53,370.06
1807,1715534440280,1.32,-1.8099999999999998,-0.19000000000000003,-241.23333333333335,-34.403333333333336,384.53999999999996
1808,1715534440290,1.32,-1.81,-0.19,-276.86,-48.34,391.78
1809,1715534440300,1.32,-1.8099999999999998,-0.19000000000000003,-276.86,-48.34,391.78
1810,1715534440310,1.32,-1.81,-0.19,-276.86,-48.34,391.78
1811,1715534440320,1.32,-1.8099999999999998,-0.19000000000000003,-276.86,-48.34,391.78
1812,1715534440330,1.32,-1.8099999999999998,-0.19000000000000003,-276.86,-48.34,391.78
1813,1715534440340,1.32,-1.8099999999999998,-0.19000000000000003,-276.86,-48.34,391.78
1814,1715534440350,1.32,-1.8099999999999998,-0.19000000000000003,-276.86,-48.34,391.78
1815,1715534440360,1.32,-1.8099999999999998,-0.19000000000000003,-276.86,-48.34,391.78
1816,1715534440370,1.32,-1.8099999999999998,-0.19000000000000003,-276.86,-48.34,391.78
1817,1715534440380,1.32,-1.8099999999999998,-0.19000000000000003,-276.86,-48.34,391.78
1818,1715534440390,1.32,-1.8099999999999998,-0.19000000000000003,-276.86,-48.34,391.78
1819,1715534440400,1.54,-1.5,0.775,-290.925,-48.155,304.53499999999997
1820,1715534440410,1.76,-1.19,1.74,-304.99,-47.97,217.29
1821,1715534440420,1.76,-1.19,1.74,-304.99,-47.97,217.29
1822,1715534440430,1.4849999999999999,-1.16,1.56,-321.82,-27.7825,209.385
