id,timestamp,acc_x,acc_y,acc_z,gyro_x,gyro_y,gyro_z
0,1715533718570,0.55,0.1,-2.18,46.45,15.26,-103.82
1,1715533718580,0.0,0.38,-3.07,-86.49,7.26,-79.71
2,1715533718590,-0.024999999999999998,0.4533333333333333,-3.0766666666666667,-92.98,6.010000000000001,-65.285
3,1715533718600,-0.15,0.82,-3.11,-125.43000000000002,-0.24,6.840000000000001
4,1715533718610,-0.15,0.82,-3.11,-125.43,-0.24,6.84
5,1715533718620,-0.15,0.82,-3.11,-125.43,-0.24,6.84
6,1715533718630,0.20833333333333334,0.995,-2.91,-206.705,-15.398333333333333,5.923333333333333
7,1715533718640,0.28,1.03,-2.8699999999999997,-222.96,-18.43,5.739999999999999
8,1715533718650,0.28,1.03,-2.87,-222.95999999999998,-18.43,5.74
9,1715533718660,0.39333333333333337,0.8300000000000001,-2.6266666666666665,-251.63666666666668,-24.126666666666665,-0.9133333333333328
10,1715533718670,0.96,-0.17,-1.41,-395.02,-52.60999999999999,-34.18
11,1715533718680,0.96,-0.17,-1.41,-395.02,-52.61,-34.18
12,1715533718690,0.96,-0.17,-1.41,-395.02,-52.60999999999999,-34.18
13,1715533718700,1.0066666666666666,-0.5033333333333333,-1.18,-386.0883333333333,-87.82833333333333,-43.79333333333333
14,1715533718710,1.1,-1.17,-0.72,-341.43,-263.92,-91.86
15,1715533718720,1.1,-1.17,-0.7200000000000001,-341.43,-263.92,-91.86
16,1715533718730,1.1,-1.17,-0.72,-341.43,-263.92,-91.86
17,1715533718740,1.2100000000000002,-1.375,-0.48500000000000004,-336.5566666666667,-287.43833333333333,-97.8
18,1715533718750,1.7600000000000002,-2.4,0.69,-312.19,-405.03,-127.5
19,1715533718760,1.7600000000000002,-2.4,0.69,-312.19,-405.03,-127.5
20,1715533718770,1.7600000000000002,-2.4,0.69,-312.19,-405.03,-127.5
21,1715533718780,1.508,-2.55,0.708,-353.158,-360.32599999999996,-111.78
22,1715533718790,1.34,-2.65,0.72,-414.61,-293.27,-88.2
23,1715533718800,1.34,-2.65,0.72,-414.61,-293.27,-88.2
24,1715533718810,1.34,-2.65,0.72,-414.61,-293.27,-88.2
25,1715533718820,1.34,-2.65,0.72,-414.61,-293.27,-88.2
26,1715533718830,1.34,-2.65,0.72,-414.61,-293.27,-88.2
27,1715533718840,1.34,-2.65,0.72,-414.61,-293.27,-88.2
28,1715533718850,1.34,-2.65,0.72,-414.61,-293.27,-88.2
29,1715533718860,1.34,-2.65,0.72,-414.61,-293.27,-88.2
30,1715533718870,1.34,-2.65,0.72,-414.61,-293.27,-88.2
31,1715533718880,1.34,-2.65,0.72,-414.61,-293.27,-88.2
32,1715533718890,1.34,-2.65,0.72,-414.61,-293.27,-88.2
33,1715533718900,1.48,-2.365,0.95,-352.65999999999997,-304.595,-48.1
34,1715533718910,1.365,-2.26,1.0375,-352.42,-259.475,-30.47
35,1715533718920,1.28,-2.32,0.99,-372.99,-240.66,-37.96
36,1715533718930,0.9266666666666667,-2.0866666666666664,1.5566666666666666,-351.9533333333334,-234.21,-17.046666666666667
37,1715533718940,0.75,-1.97,1.84,-309.88,-221.31000000000003,24.78
38,1715533718950,0.75,-1.97,1.84,-309.88,-221.31000000000003,24.78
39,1715533718960,0.75,-1.97,1.84,-309.88,-221.31000000000003,24.78
40,1715533718970,0.77,-1.6266666666666667,2.1733333333333333,-328.00666666666666,-147.41666666666666,44.800000000000004
41,1715533718980,0.81,-0.94,2.84,-364.26,0.37,84.84
42,1715533718990,0.81,-0.94,2.84,-364.26,0.37,84.84
43,1715533719000,0.81,-0.94,2.84,-364.26,0.36999999999999994,84.84
44,1715533719010,0.81,-0.94,2.84,-364.26,0.36999999999999994,84.84
45,1715533719020,0.81,-0.94,2.84,-364.26,0.37,84.84
46,1715533719030,0.81,-0.94,2.84,-364.26,0.36999999999999994,84.84
47,1715533719040,0.81,-0.94,2.84,-364.26,0.36999999999999994,84.84
48,1715533719050,0.81,-0.94,2.84,-364.26,0.37,84.84
49,1715533719060,0.81,-0.94,2.84,-364.26,0.36999999999999994,84.84
50,1715533719070,0.81,-0.94,2.84,-364.26,0.36999999999999994,84.84
51,1715533719080,0.81,-0.94,2.84,-364.26,0.37,84.84
52,1715533719090,0.9950000000000001,-1.1925,4.5425,-197.815,-19.62,49.455
53,1715533719100,1.01,-1.96,6.79,240.54,-65.0,23.07
54,1715533719110,1.1225,-2.0475,6.535,240.54,-65.0,23.07
55,1715533719120,1.46,-2.31,5.77,336.3,64.21,13.37
56,1715533719130,1.46,-2.31,5.77,336.3,64.21,13.37
57,1715533719140,1.46,-2.31,5.77,336.3,64.21,13.37
58,1715533719150,1.46,-2.31,5.77,336.3,64.21,13.37
59,1715533719160,1.3699999999999999,-1.77,4.516,365.016,132.4,35.924
60,1715533719170,1.31,-1.41,3.6800000000000006,384.16,177.86,50.96
61,1715533719180,1.31,-1.41,3.68,384.16,177.86,50.96
62,1715533719190,1.28,-1.44,3.125,405.49,163.715,41.53
63,1715533719200,1.25,-1.47,2.57,469.48,121.28000000000002,13.24
64,1715533719210,1.25,-1.47,2.57,469.48,121.28,13.24
65,1715533719220,1.25,-1.47,2.57,469.48,121.28000000000002,13.24
66,1715533719230,1.25,-1.47,2.57,469.48,121.28000000000002,13.24
67,1715533719240,1.42,-2.62,1.93,524.54,190.8,-67.81
68,1715533719250,1.42,-2.62,1.93,524.54,190.80000000000004,-67.81
69,1715533719260,1.42,-2.62,1.93,524.54,190.80000000000004,-67.81
70,1715533719270,1.39,-2.7925,1.63,497.39,183.705,-112.21000000000001
71,1715533719280,1.38,-2.85,1.53,488.34,181.34,-127.01
72,1715533719290,1.38,-2.85,1.53,488.34,181.34,-127.01
73,1715533719300,1.38,-2.85,1.53,488.34,181.34,-127.01
74,1715533719310,1.5375,-3.33,1.95,442.8375,251.33000000000004,-131.8175
75,1715533719320,1.59,-3.49,2.09,427.67,274.66,-133.42
76,1715533719330,1.59,-3.49,2.09,427.67,274.66,-133.42
77,1715533719340,1.59,-3.49,2.09,427.67,274.66,-133.42
78,1715533719350,1.59,-3.49,2.09,427.67,274.66,-133.42
79,1715533719360,1.59,-3.49,2.09,427.67,274.66,-133.42
80,1715533719370,1.59,-3.49,2.09,427.67,274.66,-133.42
81,1715533719380,1.59,-3.49,2.09,427.67,274.66,-133.42
82,1715533719390,1.59,-3.49,2.09,427.67,274.66,-133.42
83,1715533719400,1.59,-3.49,2.09,427.67,274.66,-133.42
84,1715533719410,1.59,-3.49,2.09,427.67,274.66,-133.42
85,1715533719420,1.3900000000000001,-3.1325000000000003,1.2999999999999998,434.90250000000003,228.04500000000002,-131.4375
86,1715533719430,0.79,-2.06,-1.07,360.3733333333333,153.1,-155.96333333333334
87,1715533719440,0.79,-2.06,-1.07,312.26,185.55,-171.2
88,1715533719450,0.79,-2.06,-1.07,312.26,185.55,-171.2
89,1715533719460,0.5733333333333334,-1.9800000000000002,-1.45,279.8066666666667,128.84666666666666,-175.98333333333335
90,1715533719470,0.14,-1.82,-2.21,214.9,15.44,-185.55
91,1715533719480,0.14,-1.82,-2.21,214.9,15.44,-185.55000000000004
92,1715533719490,0.14,-1.82,-2.21,214.9,15.44,-185.55
93,1715533719500,-0.2733333333333333,-1.4466666666666665,-3.016666666666667,162.81666666666666,-1.2633333333333343,-145.0
94,1715533719510,-0.48,-1.26,-3.42,58.65,-34.67,-63.9
95,1715533719520,-0.48,-1.26,-3.42,58.65,-34.67,-63.9
96,1715533719530,-0.48,-1.26,-3.42,58.65,-34.67,-63.9
97,1715533719540,-0.48,-1.26,-3.42,58.65,-34.67,-63.9
98,1715533719550,-0.48,-1.26,-3.42,58.65,-34.67,-63.9
99,1715533719560,-0.48,-1.26,-3.42,58.65,-34.67,-63.9
100,1715533719570,-0.48,-1.26,-3.42,58.65,-34.67,-63.9
101,1715533719580,-0.48,-1.26,-3.42,58.65,-34.67,-63.9
102,1715533719590,-0.48,-1.26,-3.42,58.65,-34.67,-63.9
103,1715533719600,-0.48,-1.26,-3.42,58.65,-34.67,-63.9
104,1715533719610,-0.48,-1.26,-3.42,58.65,-34.67,-63.9
105,1715533719620,-0.275,-1.055,-3.035,-207.425,-26.28,129.3
106,1715533719630,-0.15,-1.27,-2.49,-323.85,-19.17,183.47
107,1715533719640,-0.15,-1.27,-2.49,-323.85,-19.17,183.47
108,1715533719650,-0.15,-1.27,-2.49,-323.85,-19.17,183.47
109,1715533719660,1.12,-1.92,-0.35,-405.6075,-132.8325,229.52
110,1715533719670,1.12,-1.92,-0.35,-432.86,-170.72,244.87
111,1715533719680,1.12,-1.92,-0.3499999999999999,-432.85999999999996,-170.72,244.87
112,1715533719690,1.12,-1.92,-0.35,-432.86,-170.72,244.87
113,1715533719700,2.15,-2.28,1.9799999999999998,-550.42,-188.17,227.84
114,1715533719710,2.15,-2.28,1.9799999999999998,-550.42,-188.17,227.84
115,1715533719720,2.15,-2.28,1.9799999999999998,-550.42,-188.17,227.84
116,1715533719730,2.005,-2.4,2.23,-555.865,-175.27749999999997,202.13
117,1715533719740,1.86,-2.52,2.48,-572.2,-136.6,125.0
118,1715533719750,1.86,-2.52,2.48,-572.2,-136.6,125.0
119,1715533719760,1.86,-2.52,2.48,-572.2,-136.6,125.0
120,1715533719770,1.5733333333333333,-2.393333333333333,2.06,-460.91333333333336,-215.98666666666668,92.52666666666669
121,1715533719780,1.43,-2.33,1.8500000000000003,-405.27,-255.67999999999998,76.29
122,1715533719790,1.43,-2.33,1.8500000000000003,-405.27,-255.67999999999998,76.29
123,1715533719800,1.43,-2.33,1.8500000000000003,-405.27,-255.67999999999998,76.29
124,1715533719810,1.4825,-2.015,1.625,-399.09,-218.87,71.9475
125,1715533719820,1.5,-1.91,1.55,-397.03,-206.6,70.5
126,1715533719830,1.5,-1.91,1.55,-397.03,-206.6,70.5
127,1715533719840,1.5,-1.91,1.55,-397.03,-206.6,70.5
128,1715533719850,1.2,-2.17,1.89,-550.42,-131.04,23.38
129,1715533719860,1.2,-2.17,1.89,-550.42,-131.04,23.38
130,1715533719870,1.2,-2.17,1.89,-550.42,-131.04,23.38
131,1715533719880,1.2,-2.17,1.89,-550.42,-131.04,23.38
132,1715533719890,1.2,-2.17,1.89,-550.42,-131.04,23.38
133,1715533719900,1.2,-2.17,1.89,-550.42,-131.04,23.38
134,1715533719910,1.2,-2.17,1.89,-550.42,-131.04,23.38
135,1715533719920,1.2,-2.17,1.89,-550.42,-131.04,23.38
136,1715533719930,1.2,-2.17,1.89,-550.42,-131.04,23.38
137,1715533719940,1.2,-2.17,1.89,-550.42,-131.04,23.38
138,1715533719950,0.9266666666666667,-1.43,2.29,-414.6333333333334,-139.74666666666667,-26.633333333333336
139,1715533719960,0.815,-0.675,3.56,-358.885,-53.8,-17.64
140,1715533719970,0.84,-0.29,4.63,-371.03,36.5,16.36
141,1715533719980,0.84,-0.29,4.63,-371.03,36.5,16.36
142,1715533719990,0.84,-0.29,4.63,-371.03,36.5,16.36
143,1715533720000,0.7925,-0.45749999999999996,5.0775,-306.455,16.1,-3.705
144,1715533720010,0.65,-0.96,6.419999999999999,-112.73,-45.1,-63.9
145,1715533720020,0.65,-0.96,6.42,-112.73,-45.1,-63.9
146,1715533720030,0.65,-0.96,6.419999999999999,-112.73,-45.1,-63.9
147,1715533720040,0.65,-0.96,6.42,-112.73,-45.1,-63.9
148,1715533720050,1.35,-1.83,6.03,214.6,-26.06,-12.63
149,1715533720060,1.3500000000000003,-1.83,6.03,214.6,-26.06,-12.63
150,1715533720070,1.3500000000000003,-1.83,6.03,214.6,-26.06,-12.63
151,1715533720080,1.3500000000000003,-1.83,6.03,214.6,-26.06,-12.63
152,1715533720090,1.3500000000000003,-1.83,6.03,214.6,-26.06,-12.63
153,1715533720100,1.3500000000000003,-1.83,6.03,214.6,-26.06,-12.63
154,1715533720110,1.3500000000000003,-1.83,6.03,214.6,-26.06,-12.63
155,1715533720120,1.35,-1.83,6.03,214.6,-26.06,-12.63
156,1715533720130,1.3500000000000003,-1.83,6.03,214.6,-26.06,-12.63
157,1715533720140,1.4366666666666668,-1.6233333333333333,4.43,260.3333333333333,133.76666666666668,11.983333333333333
158,1715533720150,1.53,-1.415,3.415,317.5625,205.2425,15.44
159,1715533720160,1.68,-1.1,2.77,420.65,179.93,-11.11
160,1715533720170,1.68,-1.1,2.77,420.65,179.93,-11.11
161,1715533720180,1.68,-1.1,2.77,420.65,179.93,-11.11
162,1715533720190,1.7175,-1.2975,2.52,420.65,179.93,-11.11
163,1715533720200,1.83,-1.89,1.77,413.33,291.02,-42.05
164,1715533720210,1.83,-1.89,1.7700000000000002,413.33,291.02,-42.05
165,1715533720220,1.83,-1.89,1.7700000000000002,413.33,291.02,-42.05
166,1715533720230,1.7366666666666666,-2.35,1.25,446.45,267.42,-91.04333333333334
167,1715533720240,1.6900000000000002,-2.58,0.9899999999999999,463.01,255.62,-115.54
168,1715533720250,1.6900000000000002,-2.58,0.9899999999999999,463.01,255.62,-115.54
169,1715533720260,1.6900000000000002,-2.58,0.9899999999999999,463.01,255.62,-115.54
170,1715533720270,1.6233333333333333,-2.6,1.0566666666666666,463.01,255.62,-115.54
171,1715533720280,1.49,-2.64,1.19,405.03,234.99,-109.19
172,1715533720290,1.49,-2.64,1.19,405.03,234.99,-109.19
173,1715533720300,1.49,-2.64,1.19,405.03,234.99,-109.19
174,1715533720310,1.3175,-2.2800000000000002,0.8825000000000001,362.0475,230.595,-76.55
175,1715533720320,1.26,-2.16,0.78,347.72,229.13,-65.67
176,1715533720330,1.26,-2.16,0.78,347.72,229.13,-65.67
177,1715533720340,1.26,-2.16,0.7799999999999999,347.72,229.13,-65.67
178,1715533720350,1.1600000000000001,-1.8933333333333333,0.8000000000000002,370.7866666666667,148.47666666666666,-98.75666666666666
179,1715533720360,1.11,-1.76,0.81,382.32,108.15000000000002,-115.3
180,1715533720370,1.11,-1.76,0.81,382.32,108.15,-115.3
181,1715533720380,1.11,-1.76,0.81,382.32,108.15000000000002,-115.3
182,1715533720390,1.11,-1.76,0.81,382.32,108.15000000000002,-115.3
183,1715533720400,1.11,-1.76,0.81,382.32,108.15000000000002,-115.3
184,1715533720410,1.11,-1.76,0.81,382.32,108.15000000000002,-115.3
185,1715533720420,1.11,-1.76,0.81,382.32,108.15,-115.3
186,1715533720430,1.11,-1.76,0.81,382.32,108.15,-115.3
187,1715533720440,1.11,-1.76,0.81,382.32,108.15000000000002,-115.3
188,1715533720450,1.11,-1.76,0.81,382.32,108.15000000000002,-115.3
189,1715533720460,1.11,-1.76,0.81,382.32,108.15000000000002,-115.3
190,1715533720470,1.11,-1.76,0.81,382.32,108.15000000000002,-115.3
191,1715533720480,-0.4,-1.88,-1.28,96.86,240.36,-53.77
192,1715533720490,-0.4,-1.88,-1.28,96.86,240.36,-53.77
193,1715533720500,-1.2333333333333332,-1.6733333333333331,-2.606666666666667,183.81333333333336,44.06666666666667,-70.53666666666668
194,1715533720510,-1.6499999999999997,-1.57,-3.27,227.29,-54.080000000000005,-78.92
195,1715533720520,-1.65,-1.57,-3.27,227.29,-54.08,-78.92
196,1715533720530,-1.65,-1.57,-3.27,227.29,-54.08,-78.92
197,1715533720540,-2.8233333333333337,-2.2033333333333336,-4.79,134.51666666666665,40.12,13.326666666666668
198,1715533720550,-3.41,-2.52,-5.55,88.13,87.21999999999998,59.45000000000001
199,1715533720560,-3.41,-2.52,-5.55,88.13,87.21999999999998,59.45000000000001
200,1715533720570,-3.41,-2.52,-5.55,88.13,87.21999999999998,59.45000000000001
201,1715533720580,-2.13,-1.77,-4.55,-298.95,162.66,159.55
202,1715533720590,-2.13,-1.77,-4.55,-298.95,162.66,159.55
203,1715533720600,-2.13,-1.7700000000000002,-4.55,-298.95,162.66,159.55
204,1715533720610,-2.13,-1.77,-4.55,-298.95,162.66,159.55
205,1715533720620,-2.13,-1.77,-4.55,-298.95,162.66,159.55
206,1715533720630,-2.13,-1.7700000000000002,-4.55,-298.95,162.66,159.55
207,1715533720640,-2.13,-1.77,-4.55,-298.95,162.66,159.55
208,1715533720650,-2.13,-1.77,-4.55,-298.95,162.66,159.55
209,1715533720660,-2.13,-1.77,-4.55,-298.95,162.66,159.55
210,1715533720670,1.83,-2.63,1.45,-374.57,-236.88,257.81
211,1715533720680,1.83,-2.63,1.45,-374.57,-236.88,257.81
212,1715533720690,2.135,-2.32,2.07,-374.57,-236.88,257.81
213,1715533720700,2.44,-2.01,2.69,-371.825,-221.1025,265.67
214,1715533720710,2.44,-2.01,2.69,-363.59,-173.77,289.25
215,1715533720720,2.44,-2.01,2.69,-363.59,-173.77,289.25
216,1715533720730,2.0666666666666664,-1.7833333333333332,2.39,-360.8433333333333,-143.0066666666667,268.17
217,1715533720740,1.88,-1.67,2.24,-355.3500000000001,-81.48,226.01
218,1715533720750,1.88,-1.67,2.24,-355.35,-81.48,226.01
219,1715533720760,1.88,-1.67,2.24,-355.3500000000001,-81.48,226.01
220,1715533720770,1.4533333333333331,-1.5833333333333333,1.8733333333333333,-395.62999999999994,-39.77333333333333,188.7833333333333
221,1715533720780,1.24,-1.54,1.6900000000000002,-415.77,-18.92,170.17
222,1715533720790,1.24,-1.54,1.69,-415.77,-18.92,170.17
223,1715533720800,1.24,-1.54,1.6900000000000002,-415.77,-18.92,170.17
224,1715533720810,1.0066666666666666,-1.5999999999999999,1.3233333333333333,-427.0833333333333,-35.64666666666667,147.42333333333332
225,1715533720820,0.89,-1.63,1.14,-432.74,-44.01,136.05
226,1715533720830,0.89,-1.63,1.14,-432.74,-44.01,136.05
227,1715533720840,0.89,-1.63,1.14,-432.74,-44.01,136.05
228,1715533720850,1.01,-1.3999999999999997,1.34,-446.53,-128.11,142.33
229,1715533720860,1.01,-1.4,1.34,-446.53,-128.11,142.33
230,1715533720870,1.01,-1.3999999999999997,1.34,-446.53,-128.11,142.33
231,1715533720880,1.01,-1.3999999999999997,1.34,-446.53,-128.11,142.33
232,1715533720890,0.93,-1.2133333333333334,1.4733333333333334,-494.42333333333335,-62.07,122.43666666666667
233,1715533720900,0.89,-1.12,1.54,-518.37,-29.05,112.49
234,1715533720910,0.89,-1.12,1.54,-518.37,-29.05,112.49
235,1715533720920,0.89,-1.12,1.54,-518.37,-29.05,112.49
236,1715533720930,0.89,-1.12,1.54,-518.37,-29.05,112.49
237,1715533720940,0.89,-1.12,1.54,-518.37,-29.05,112.49
238,1715533720950,0.89,-1.12,1.54,-518.37,-29.05,112.49
239,1715533720960,0.89,-1.12,1.54,-518.37,-29.05,112.49
240,1715533720970,0.89,-1.12,1.54,-518.37,-29.05,112.49
241,1715533720980,0.89,-1.12,1.54,-518.37,-29.05,112.49
242,1715533720990,0.89,-1.12,1.54,-518.37,-29.05,112.49
243,1715533721000,1.82,-0.04,6.27,-192.8133333333333,-38.800000000000004,35.626666666666665
244,1715533721010,1.82,-0.04,6.27,-124.27,-45.84,39.86
245,1715533721020,1.82,-0.04,6.27,-124.27,-45.84,39.86
246,1715533721030,1.82,-0.04,6.27,-124.27,-45.84,39.86
247,1715533721040,1.82,-0.04,6.27,-124.27,-45.84,39.86
248,1715533721050,2.31,-0.33,6.456666666666666,-19.043333333333333,-36.093333333333334,26.08666666666667
249,1715533721060,3.2900000000000005,-0.91,6.830000000000001,191.41,-16.6,-1.46
250,1715533721070,3.0700000000000003,-1.0125000000000002,6.25,191.41,-16.6,-1.46
251,1715533721080,2.41,-1.32,4.51,173.58,196.04,-114.26
252,1715533721090,2.41,-1.32,4.51,173.58,196.04,-114.26
253,1715533721100,2.41,-1.32,4.51,173.58,196.04,-114.26
254,1715533721110,2.41,-1.32,4.51,173.58,196.04,-114.26
255,1715533721120,2.41,-1.32,4.51,173.58,196.04,-114.26
256,1715533721130,2.41,-1.32,4.51,173.58,196.04,-114.26
257,1715533721140,2.41,-1.32,4.51,173.58,196.04,-114.26
258,1715533721150,2.41,-1.32,4.51,173.58,196.04,-114.26
259,1715533721160,2.41,-1.32,4.51,173.58,196.04,-114.26
260,1715533721170,2.41,-1.32,4.51,173.58,196.04,-114.26
261,1715533721180,2.41,-1.32,4.51,173.58,196.04,-114.26
262,1715533721190,1.74,-0.9900000000000001,2.7733333333333334,308.1266666666667,166.64333333333332,-86.14
263,1715533721200,1.41,-1.1,1.62,391.24,150.57,-102.29
264,1715533721210,1.41,-1.1,1.62,391.24,150.57,-102.29
265,1715533721220,1.41,-1.1,1.62,391.24,150.57,-102.29
266,1715533721230,1.45,-2.18,1.78,437.26,112.395,-144.955
267,1715533721240,1.45,-2.18,1.78,483.28,74.22,-187.62
268,1715533721250,1.45,-2.18,1.78,483.28,74.22,-187.62
269,1715533721260,1.45,-2.18,1.78,483.28,74.22,-187.62
270,1715533721270,1.62,-2.335,1.83,450.99,118.745,-182.16
271,1715533721280,1.79,-2.49,1.88,418.7,163.27,-176.69999999999996
272,1715533721290,1.79,-2.49,1.88,418.7,163.27,-176.7
273,1715533721300,1.8433333333333335,-2.5500000000000003,1.89,418.7,163.27,-176.69999999999996
274,1715533721310,1.95,-2.67,1.91,440.0,144.84,-246.52
275,1715533721320,1.95,-2.67,1.91,440.0,144.84,-246.52
276,1715533721330,1.95,-2.67,1.91,440.0,144.84,-246.52
277,1715533721340,1.83,-2.7066666666666666,1.8566666666666667,406.2266666666667,200.7266666666667,-239.76666666666665
278,1715533721350,1.59,-2.78,1.75,338.68,312.5,-226.26
279,1715533721360,1.59,-2.78,1.75,338.68,312.5,-226.26
280,1715533721370,1.59,-2.78,1.75,338.68,312.5,-226.26
281,1715533721380,1.4366666666666668,-2.6733333333333333,1.1300000000000001,338.1333333333334,314.02666666666664,-195.8033333333333
282,1715533721390,1.13,-2.46,-0.11,337.04,317.08,-134.89
283,1715533721400,1.13,-2.46,-0.11,337.04,317.08,-134.89
284,1715533721410,1.13,-2.46,-0.11,337.04,317.08,-134.89
285,1715533721420,0.49999999999999994,-1.8075,-1.325,266.63,239.9425,-115.2475
286,1715533721430,0.29,-1.59,-1.7299999999999998,243.16,214.23,-108.7
287,1715533721440,0.29,-1.59,-1.7299999999999998,243.16,214.23,-108.7
288,1715533721450,0.29,-1.59,-1.73,243.16,214.23,-108.7
289,1715533721460,0.29,-1.59,-1.7299999999999998,243.16,214.23,-108.7
290,1715533721470,0.29,-1.59,-1.7299999999999998,243.16,214.23,-108.7
291,1715533721480,0.29,-1.59,-1.73,243.16,214.23,-108.7
292,1715533721490,0.29,-1.59,-1.73,243.16,214.23,-108.7
293,1715533721500,0.29,-1.59,-1.7299999999999998,243.16,214.23,-108.7
294,1715533721510,0.29,-1.59,-1.73,243.16,214.23,-108.7
295,1715533721520,-0.10500000000000001,-1.3599999999999999,-2.7800000000000002,163.36,84.01499999999999,-40.955
296,1715533721530,-0.5,-1.13,-3.83,83.56,-46.20000000000001,26.790000000000003
297,1715533721540,-0.48,-1.59,-4.72,54.93,-108.46,111.45
298,1715533721550,-0.48,-1.59,-4.72,54.93,-108.46,111.45
299,1715533721560,-0.48,-1.59,-4.72,54.93,-108.46,111.45
300,1715533721570,-0.48,-1.59,-4.72,54.93,-108.46,111.45
301,1715533721580,-0.605,-1.34,-4.525,-110.10999999999999,-51.544999999999995,126.07
302,1715533721590,-0.73,-1.09,-4.33,-275.15,5.37,140.69
303,1715533721600,-0.73,-1.09,-4.33,-275.15,5.37,140.69
304,1715533721610,-0.32,-1.3500000000000003,-3.3233333333333337,-323.9166666666667,-35.483333333333334,152.85666666666665
305,1715533721620,0.5,-1.87,-1.31,-421.45,-117.19,177.19
306,1715533721630,0.5,-1.87,-1.31,-421.45,-117.19,177.19
307,1715533721640,0.5,-1.87,-1.31,-421.45,-117.19,177.18999999999997
308,1715533721650,0.5,-1.87,-1.31,-421.45,-117.19,177.19
309,1715533721660,0.5,-1.87,-1.31,-421.45,-117.19,177.18999999999997
310,1715533721670,0.5,-1.87,-1.31,-421.45,-117.19,177.18999999999997
311,1715533721680,0.5,-1.87,-1.31,-421.45,-117.19,177.18999999999997
312,1715533721690,0.5,-1.87,-1.31,-421.45,-117.19,177.19
313,1715533721700,0.5,-1.87,-1.31,-421.45,-117.19,177.18999999999997
314,1715533721710,0.9566666666666667,-2.19,0.0866666666666666,-435.05999999999995,-135.64333333333335,193.4433333333333
315,1715533721720,1.87,-2.83,2.88,-462.28,-172.55,225.95
316,1715533721730,1.63,-2.2,2.56,-416.655,-173.77,227.295
317,1715533721740,1.63,-2.2,2.56,-371.03,-174.99,228.64
318,1715533721750,1.63,-2.2,2.56,-371.03,-174.99,228.64
319,1715533721760,1.63,-2.2,2.56,-371.03,-174.99,228.64
320,1715533721770,1.5199999999999998,-1.9966666666666668,2.3800000000000003,-374.0833333333333,-150.67666666666668,219.32000000000002
321,1715533721780,1.3,-1.59,2.02,-380.19,-102.05,200.67999999999998
322,1715533721790,1.3,-1.59,2.02,-380.19,-102.05,200.68
323,1715533721800,1.3,-1.4825,1.965,-380.19,-102.05,200.68
324,1715533721810,1.3,-1.16,1.8,-437.93,-54.77,161.78
325,1715533721820,1.3,-1.16,1.8,-466.8,-31.13,142.33
326,1715533721830,1.3,-1.16,1.8,-466.8,-31.13,142.33
327,1715533721840,1.3,-1.16,1.8,-466.8,-31.13,142.33
328,1715533721850,0.77,-1.12,1.58,-514.59,7.02,-3.85
329,1715533721860,0.77,-1.12,1.58,-514.59,7.02,-3.85
330,1715533721870,0.77,-1.12,1.58,-514.59,7.02,-3.85
331,1715533721880,0.77,-1.12,1.58,-514.59,7.02,-3.85
332,1715533721890,0.386,-1.192,1.6439999999999997,-468.254,-22.476000000000003,-25.426
333,1715533721900,0.29,-1.21,1.66,-456.67,-29.850000000000005,-30.820000000000004
334,1715533721910,0.29,-1.21,1.66,-456.67,-29.85,-30.82
335,1715533721920,0.305,-0.58,2.5975,-391.115,-69.155,-22.825
336,1715533721930,0.31,-0.37,2.91,-325.56,-108.46,-14.83
337,1715533721940,0.31,-0.36999999999999994,2.91,-325.56,-108.46,-14.83
338,1715533721950,0.31,-0.36999999999999994,2.91,-325.56,-108.46,-14.83
339,1715533721960,0.31,-0.36999999999999994,2.91,-325.56,-108.46,-14.83
340,1715533721970,0.31,-0.37,2.91,-325.56,-108.46,-14.83
341,1715533721980,0.31,-0.36999999999999994,2.91,-325.56,-108.46,-14.83
342,1715533721990,0.31,-0.36999999999999994,2.91,-325.56,-108.46,-14.83
343,1715533722000,0.31,-0.37,2.91,-325.56,-108.46,-14.83
344,1715533722010,0.31,-0.36999999999999994,2.91,-325.56,-108.46,-14.83
345,1715533722020,0.31,-0.37,2.91,-325.56,-108.46,-14.83
346,1715533722030,0.31,-0.36999999999999994,2.91,-325.56,-108.46,-14.83
347,1715533722040,0.7866666666666666,-0.9866666666666667,3.733333333333333,-137.37,-40.709999999999994,-44.61666666666667
348,1715533722050,1.74,-2.22,5.38,239.01,94.79,-104.19
349,1715533722060,1.74,-2.22,5.38,239.01,94.79,-104.19
350,1715533722070,1.74,-2.22,5.38,239.01,94.79,-104.19
351,1715533722080,1.53,-2.16,4.3525,230.17499999999998,170.825,-73.6575
352,1715533722090,1.46,-2.14,4.01,227.23,196.17,-63.48
353,1715533722100,1.46,-2.14,4.01,227.23,196.17,-63.48
354,1715533722110,1.46,-2.14,4.01,227.23,196.17,-63.48
355,1715533722120,1.34,-0.88,3.53,266.78,158.39,-3.72
356,1715533722130,1.34,-0.88,3.53,266.78,158.39,-3.72
357,1715533722140,1.34,-0.88,3.53,266.78,158.39,-3.72
358,1715533722150,1.3966666666666667,-0.6433333333333333,3.223333333333333,266.78,158.39,-3.72
359,1715533722160,1.51,-0.17,2.61,266.78,158.39,-3.72
360,1715533722170,1.51,-0.17,2.61,266.78,158.39,-3.72
361,1715533722180,1.51,-0.17,2.61,266.78,158.39,-3.72
362,1715533722190,1.51,-0.17,2.61,266.78,158.39,-3.72
363,1715533722200,1.51,-0.17,2.61,266.78,158.39,-3.72
364,1715533722210,1.51,-0.17,2.61,266.78,158.39,-3.72
365,1715533722220,1.51,-0.17,2.61,266.78,158.39,-3.72
366,1715533722230,1.51,-0.17,2.61,266.78,158.39,-3.72
367,1715533722240,1.3999999999999997,-2.34,1.82,467.1233333333333,115.49666666666667,-111.46999999999998
368,1715533722250,1.4,-2.34,1.82,495.67,83.19,-125.55
369,1715533722260,1.3999999999999997,-2.34,1.82,495.67,83.19,-125.55
370,1715533722270,1.73,-2.17,1.7,454.9,109.01,-132.57
371,1715533722280,1.7299999999999998,-2.17,1.7,454.8999999999999,109.01,-132.57
372,1715533722290,1.73,-2.17,1.7,454.9,109.01,-132.57
373,1715533722300,1.755,-2.1725,1.63,456.17999999999995,97.9325,-154.3125
374,1715533722310,1.83,-2.18,1.42,460.02,64.7,-219.54
375,1715533722320,1.83,-2.18,1.42,460.02,64.7,-219.54
376,1715533722330,1.83,-2.18,1.42,460.02,64.7,-219.54
377,1715533722340,1.7633333333333334,-2.12,1.3566666666666667,428.05999999999995,62.13666666666666,-232.4
378,1715533722350,1.63,-2.0,1.23,364.14,57.01,-258.12
379,1715533722360,1.63,-2.0,1.23,364.14000000000004,57.01,-258.12
380,1715533722370,1.63,-2.0,1.23,364.14000000000004,57.01,-258.12
381,1715533722380,1.5199999999999998,-2.0500000000000003,1.0233333333333332,335.7966666666667,94.50333333333333,-263.5733333333333
382,1715533722390,1.3,-2.15,0.61,279.11,169.49,-274.48
383,1715533722400,1.3,-2.15,0.61,279.11,169.49,-274.48
384,1715533722410,1.3,-2.15,0.61,279.11,169.49,-274.48
385,1715533722420,0.875,-2.2649999999999997,0.04749999999999999,235.10500000000002,179.195,-262.6225
386,1715533722430,-0.4000000000000001,-2.61,-1.64,103.08999999999999,208.31000000000003,-227.05000000000004
387,1715533722440,-0.4,-2.61,-1.64,103.09,208.31,-227.05
388,1715533722450,-0.4000000000000001,-2.61,-1.64,103.08999999999999,208.31000000000003,-227.05000000000004
389,1715533722460,-0.79,-2.055,-2.0825,103.09,208.31,-227.05
390,1715533722470,-0.92,-1.87,-2.23,78.37,57.74,-27.95
391,1715533722480,-0.92,-1.87,-2.23,78.37,57.74,-27.95
392,1715533722490,-0.92,-1.87,-2.23,78.37,57.74,-27.95
393,1715533722500,-0.92,-1.87,-2.23,78.37,57.74,-27.95
394,1715533722510,-0.92,-1.87,-2.23,78.37,57.74,-27.95
395,1715533722520,-0.92,-1.87,-2.23,78.37,57.74,-27.95
396,1715533722530,-0.92,-1.87,-2.23,78.37,57.74,-27.95
397,1715533722540,-0.92,-1.87,-2.23,78.37,57.74,-27.95
398,1715533722550,-0.92,-1.87,-2.23,78.37,57.74,-27.95
399,1715533722560,-0.92,-1.87,-2.23,78.37,57.74,-27.95
400,1715533722570,-1.19,-0.96,-3.59,-75.97,23.173333333333332,88.96999999999998
401,1715533722580,-1.42,-0.4,-4.19,-246.4,32.23,171.39
402,1715533722590,-1.42,-0.4000000000000001,-4.19,-246.4,32.23,171.39
403,1715533722600,-1.42,-0.4,-4.19,-246.4,32.23,171.39
404,1715533722610,-0.715,-0.915,-3.305,-292.3,-37.535,197.055
405,1715533722620,-0.01,-1.43,-2.42,-338.2,-107.3,222.72
406,1715533722630,-0.01,-1.43,-2.42,-338.2,-107.3,222.72
407,1715533722640,-0.01,-1.43,-2.42,-338.2,-107.3,222.72
408,1715533722650,0.4475,-1.7249999999999999,-1.6949999999999998,-367.8625,-120.345,226.7475
409,1715533722660,1.82,-2.61,0.48,-456.8500000000001,-159.48,238.83
410,1715533722670,1.82,-2.61,0.48,-456.85,-159.48,238.83
411,1715533722680,1.82,-2.61,0.48,-456.8500000000001,-159.48,238.83
412,1715533722690,1.82,-2.61,0.48,-456.8500000000001,-159.48,238.83
413,1715533722700,1.82,-2.61,0.48,-456.8500000000001,-159.48,238.83
414,1715533722710,2.19,-2.8449999999999998,1.615,-466.555,-197.96499999999997,239.53
415,1715533722720,2.56,-3.08,2.75,-476.26,-236.45,240.23
416,1715533722730,1.89,-2.76,2.88,-430.48,-228.7,228.97
417,1715533722740,1.89,-2.76,2.8800000000000003,-384.7,-220.94999999999996,217.71
418,1715533722750,1.89,-2.76,2.88,-384.7,-220.95,217.71
419,1715533722760,1.89,-2.76,2.8800000000000003,-384.7,-220.94999999999996,217.71
420,1715533722770,1.6766666666666667,-2.1,2.5933333333333333,-348.44666666666666,-169.27,233.01
421,1715533722780,1.57,-1.77,2.45,-330.32,-143.43,240.66
422,1715533722790,1.57,-1.7700000000000002,2.45,-330.32,-143.43,240.66
423,1715533722800,1.57,-1.77,2.45,-330.32,-143.43,240.66
424,1715533722810,1.4366666666666668,-1.2766666666666666,2.1166666666666667,-352.74,-57.73666666666667,203.63333333333333
425,1715533722820,1.37,-1.03,1.95,-363.95,-14.89,185.12
426,1715533722830,1.37,-1.03,1.95,-363.95,-14.89,185.12
427,1715533722840,1.1775,-0.9725,1.7425,-403.5625,7.447499999999998,150.405
428,1715533722850,0.6,-0.8000000000000002,1.12,-522.4,74.46,46.26
429,1715533722860,0.6,-0.8,1.12,-522.4,74.46,46.26
430,1715533722870,0.6,-0.8000000000000002,1.12,-522.4,74.46,46.26
431,1715533722880,0.3466666666666667,-0.8733333333333334,1.5,-501.99333333333334,34.196666666666665,32.26333333333333
432,1715533722890,0.22,-0.91,1.69,-461.18,-46.33,4.27
433,1715533722900,0.22,-0.91,1.6900000000000002,-461.18,-46.330000000000005,4.27
434,1715533722910,0.22,-0.91,1.6900000000000002,-461.18,-46.330000000000005,4.27
435,1715533722920,0.46499999999999997,-0.55,2.645,-416.20000000000005,-90.58000000000001,-1.6500000000000004
436,1715533722930,0.71,-0.19000000000000003,3.6,-371.22,-134.83,-7.57
437,1715533722940,0.71,-0.19000000000000003,3.6,-371.22,-134.83,-7.57
438,1715533722950,0.71,-0.19000000000000003,3.6,-371.22,-134.83,-7.57
439,1715533722960,0.79,-0.11,4.535,-301.21000000000004,-72.48,-2.535
440,1715533722970,0.87,-0.03,5.47,-231.19999999999996,-10.13,2.5
441,1715533722980,0.87,-0.03,5.47,-231.19999999999996,-10.13,2.5
442,1715533722990,0.87,-0.03,5.47,-231.19999999999996,-10.13,2.5
443,1715533723000,1.12,-0.48,5.61,97.17,3.6,-26.0
444,1715533723010,1.12,-0.48,5.61,97.17,3.6,-26.0
445,1715533723020,1.12,-0.48,5.61,97.17,3.6,-26.0
446,1715533723030,1.12,-0.48,5.61,97.17,3.6,-26.0
447,1715533723040,1.12,-0.48,5.61,97.17,3.6,-26.0
448,1715533723050,1.12,-0.48,5.61,97.17,3.6,-26.0
449,1715533723060,1.12,-0.48,5.61,97.17,3.6,-26.0
450,1715533723070,1.12,-0.48,5.61,97.17,3.6,-26.0
451,1715533723080,1.12,-0.48,5.61,97.17,3.6,-26.0
452,1715533723090,1.12,-0.48,5.61,97.17,3.6,-26.0
453,1715533723100,2.02,-1.83,4.41,240.66,125.12,-31.62
454,1715533723110,2.02,-1.83,4.41,240.66,125.12,-31.62
455,1715533723120,1.51,-1.2525,3.3675,242.8125,177.4475,-30.5175
456,1715533723130,1.34,-1.06,3.02,243.53,194.89,-30.149999999999995
457,1715533723140,1.34,-1.06,3.02,243.53,194.89,-30.15
458,1715533723150,1.34,-1.06,3.02,243.53,194.89,-30.15
459,1715533723160,1.18,-0.7200000000000001,2.14,335.94,181.58,-15.63
460,1715533723170,1.18,-0.72,2.14,335.94,181.58,-15.63
461,1715533723180,1.18,-0.72,2.14,335.94,181.58,-15.63
462,1715533723190,1.34,-1.39,1.5,405.27,169.62,-73.61
463,1715533723200,1.34,-1.39,1.5,405.27,169.62,-73.61
464,1715533723210,1.34,-1.39,1.5,405.27,169.62,-73.61
465,1715533723220,1.34,-1.39,1.5,405.27,169.62,-73.61
466,1715533723230,1.23,-1.99,1.2,438.0975,147.0075,-108.17
467,1715533723240,1.23,-1.99,1.2,449.04,139.47,-119.69
468,1715533723250,1.23,-1.99,1.2,449.04,139.47,-119.69
469,1715533723260,1.23,-1.99,1.2,449.04,139.47,-119.69
470,1715533723270,1.12,-1.83,1.02,407.08666666666664,144.71666666666667,-124.73666666666668
471,1715533723280,1.12,-1.83,1.02,386.10999999999996,147.34,-127.26
472,1715533723290,1.12,-1.83,1.02,386.10999999999996,147.34,-127.26
473,1715533723300,1.0825,-1.8050000000000002,1.0275,386.11,147.34,-127.26
474,1715533723310,0.97,-1.73,1.05,335.27,153.32,-119.14
475,1715533723320,0.97,-1.73,1.05,335.27,153.32,-119.14
476,1715533723330,0.9700000000000001,-1.7299999999999998,1.05,335.27,153.32,-119.14
477,1715533723340,0.98,-1.63,0.92,335.27,153.32,-119.14
478,1715533723350,1.0,-1.43,0.66,302.19,179.08,-112.37
479,1715533723360,1.0,-1.43,0.66,302.19,179.08,-112.37
480,1715533723370,1.0,-1.43,0.66,302.19,179.08,-112.37
481,1715533723380,1.1666666666666667,-1.25,0.7200000000000001,259.1366666666667,155.72,-133.24333333333334
482,1715533723390,1.25,-1.16,0.75,237.61,144.04,-143.68
483,1715533723400,1.25,-1.16,0.75,237.61,144.04,-143.68
484,1715533723410,1.25,-1.16,0.75,237.61,144.04,-143.68
485,1715533723420,1.33,-1.1333333333333333,0.5499999999999999,197.10333333333335,194.2733333333333,-153.30333333333334
486,1715533723430,1.49,-1.08,0.15,116.09,294.74,-172.55
487,1715533723440,1.49,-1.08,0.15,116.08999999999999,294.74,-172.55000000000004
488,1715533723450,1.49,-1.08,0.15,116.09,294.74,-172.55
489,1715533723460,0.38999999999999996,-0.9499999999999998,-1.54,15.38,316.16,-158.94
490,1715533723470,0.38999999999999996,-0.9499999999999998,-1.54,15.38,316.16,-158.94
491,1715533723480,0.39,-0.95,-1.54,15.38,316.16,-158.94
492,1715533723490,0.38999999999999996,-0.9499999999999998,-1.54,15.38,316.16,-158.94
493,1715533723500,-0.53,0.0,-4.45,103.4075,152.1875,-111.33
494,1715533723510,-0.53,0.0,-4.45,132.75,97.53000000000002,-95.46
495,1715533723520,-0.53,0.0,-4.45,132.75,97.53,-95.46
496,1715533723530,-0.53,0.0,-4.45,132.75,97.53000000000002,-95.46
497,1715533723540,-0.53,0.0,-4.45,132.75,97.53000000000002,-95.46
498,1715533723550,-0.53,0.0,-4.45,132.75,97.53,-95.46
499,1715533723560,-0.53,0.0,-4.45,132.75,97.53,-95.46
500,1715533723570,-0.53,0.0,-4.45,132.75,97.53,-95.46
501,1715533723580,-0.53,0.0,-4.45,132.75,97.53,-95.46
502,1715533723590,-0.53,0.0,-4.45,132.75,97.53000000000002,-95.46
503,1715533723600,-0.53,0.0,-4.45,132.75,97.53,-95.46
504,1715533723610,-0.53,0.0,-4.45,132.75,97.53000000000002,-95.46
505,1715533723620,0.55,-1.0125000000000002,-2.4025,-141.54,-132.1275,148.2075
506,1715533723630,0.91,-1.3500000000000003,-1.72,-232.97,-208.67999999999998,229.42999999999998
507,1715533723640,0.91,-1.35,-1.72,-232.97,-208.68,229.43
508,1715533723650,1.57,-1.445,-0.45,-280.67,-224.06,234.04000000000002
509,1715533723660,2.23,-1.54,0.82,-328.37,-239.43999999999997,238.65
510,1715533723670,2.23,-1.54,0.82,-328.37,-239.44,238.65
511,1715533723680,2.23,-1.54,0.82,-328.37,-239.43999999999997,238.65
512,1715533723690,2.01,-1.62,2.01,-379.7,-198.97,163.45
513,1715533723700,2.01,-1.62,2.01,-379.7,-198.97,163.45
514,1715533723710,2.01,-1.62,2.01,-379.7,-198.97,163.45
515,1715533723720,2.01,-1.62,2.01,-379.7,-198.97,163.45
516,1715533723730,2.01,-1.62,2.01,-379.7,-198.97,163.45
517,1715533723740,2.01,-1.62,2.01,-379.7,-198.97,163.45
518,1715533723750,2.01,-1.62,2.01,-379.7,-198.97,163.45
519,1715533723760,2.01,-1.62,2.01,-379.7,-198.97,163.45
520,1715533723770,2.01,-1.62,2.01,-379.7,-198.97,163.45
521,1715533723780,2.01,-1.62,2.01,-379.7,-198.97,163.45
522,1715533723790,2.01,-1.62,2.01,-379.7,-198.97,163.45
523,1715533723800,2.01,-1.62,2.01,-379.7,-198.97,163.45
524,1715533723810,1.49,-1.61,1.64,-386.92,-172.73000000000002,87.07666666666665
525,1715533723820,0.96,-1.67,1.23,-411.74,-145.94,1.59
526,1715533723830,0.96,-1.67,1.23,-411.74,-145.94,1.59
527,1715533723840,0.8133333333333334,-1.6900000000000002,1.0433333333333332,-425.0466666666667,-145.91666666666666,1.2233333333333334
528,1715533723850,0.7399999999999999,-1.7,0.9499999999999998,-451.66,-145.87,0.49
529,1715533723860,0.7399999999999999,-1.7,0.9499999999999998,-451.66,-145.87,0.49
530,1715533723870,0.7399999999999999,-1.7,0.9499999999999998,-451.66,-145.87,0.49
531,1715533723880,0.7275,-1.585,1.005,-422.45500000000004,-168.6375,9.355
532,1715533723890,0.69,-1.24,1.17,-334.84,-236.93999999999997,35.95
533,1715533723900,0.69,-1.24,1.17,-334.84,-236.93999999999997,35.95
534,1715533723910,0.69,-1.24,1.17,-334.84,-236.93999999999997,35.95
535,1715533723920,0.9166666666666666,-0.9400000000000001,2.0100000000000002,-374.47333333333336,-232.38,-12.956666666666663
536,1715533723930,1.03,-0.79,2.43,-394.29,-230.1,-37.41
537,1715533723940,1.03,-0.79,2.43,-394.29,-230.1,-37.41
538,1715533723950,1.03,-0.79,2.43,-394.29,-230.1,-37.41
539,1715533723960,1.51,-0.8099999999999999,5.303333333333334,-360.66,-188.61666666666667,-26.526666666666667
540,1715533723970,1.75,-0.82,6.739999999999999,-293.4,-105.65000000000002,-4.76
541,1715533723980,1.75,-0.82,6.739999999999999,-293.4,-105.65000000000002,-4.76
542,1715533723990,1.75,-0.82,6.74,-293.4,-105.65,-4.76
543,1715533724000,1.29,-0.9450000000000001,7.04,-166.87,-58.685,-23.895
544,1715533724010,0.83,-1.07,7.34,-40.34,-11.72,-43.03
545,1715533724020,0.83,-1.07,7.34,-40.34,-11.72,-43.03
546,1715533724030,0.83,-1.07,7.34,-40.34,-11.72,-43.03
547,1715533724040,1.6000000000000003,-0.7600000000000001,6.97,204.77,2.08,31.74
548,1715533724050,1.6,-0.76,6.97,204.77,2.08,31.74
549,1715533724060,1.6000000000000003,-0.7600000000000001,6.97,204.77,2.08,31.74
550,1715533724070,1.6000000000000003,-0.7600000000000001,6.97,204.77,2.08,31.74
551,1715533724080,1.6000000000000003,-0.7600000000000001,6.97,204.77,2.08,31.74
552,1715533724090,1.6000000000000003,-0.7600000000000001,6.97,204.77,2.08,31.74
553,1715533724100,1.6000000000000003,-0.7600000000000001,6.97,204.77,2.08,31.74
554,1715533724110,1.6000000000000003,-0.7600000000000001,6.97,204.77,2.08,31.74
555,1715533724120,1.6000000000000003,-0.7600000000000001,6.97,204.77,2.08,31.74
556,1715533724130,1.6,-0.76,6.97,204.77,2.08,31.74
557,1715533724140,1.6000000000000003,-0.7600000000000001,6.97,204.77,2.08,31.74
558,1715533724150,1.3825,-0.9475,3.4275,335.28249999999997,148.575,-19.7325
559,1715533724160,1.32,-1.1,1.8,405.46,197.14,-48.1
560,1715533724170,1.32,-1.1,1.8,405.46,197.14,-48.1
561,1715533724180,1.32,-1.1,1.8,405.46,197.14,-48.1
562,1715533724190,1.3125,-1.5875,1.3425,416.445,194.855,-77.94500000000001
563,1715533724200,1.31,-1.75,1.19,427.43,192.57000000000002,-107.79
564,1715533724210,1.31,-1.75,1.19,427.43,192.57000000000002,-107.79
565,1715533724220,1.31,-1.75,1.19,427.43,192.57,-107.79
566,1715533724230,1.3624999999999998,-1.9224999999999999,1.2725,387.3725,201.405,-133.9725
567,1715533724240,1.38,-1.9799999999999998,1.3,374.02,204.35,-142.7
568,1715533724250,1.38,-1.98,1.3,374.02,204.35,-142.7
569,1715533724260,1.38,-1.9799999999999998,1.3,374.02,204.35,-142.7
570,1715533724270,1.38,-1.98,1.3,374.02,204.35,-142.7
571,1715533724280,1.38,-1.9799999999999998,1.3,374.02,204.35,-142.7
572,1715533724290,1.38,-1.98,1.3,374.02,204.35,-142.7
573,1715533724300,1.38,-1.9799999999999998,1.3,374.02,204.35,-142.7
574,1715533724310,1.38,-1.9799999999999998,1.3,374.02,204.35,-142.7
575,1715533724320,1.38,-1.98,1.3,374.02,204.35,-142.7
576,1715533724330,1.38,-1.98,1.3,374.02,204.35,-142.7
577,1715533724340,1.31,-1.82,1.03,316.1,196.96,-136.11
578,1715533724350,1.37,-1.42,0.84,250.85,233.64,-128.48
579,1715533724360,1.37,-1.42,0.84,250.85,233.64,-128.48
580,1715533724370,1.37,-1.42,0.84,250.85,233.64,-128.48
581,1715533724380,1.46,-1.22,0.69,208.92,273.62,-116.27
582,1715533724390,1.46,-1.22,0.69,208.92,273.62,-116.27
583,1715533724400,1.46,-1.22,0.69,208.92,273.62,-116.27
584,1715533724410,1.46,-1.22,0.69,208.92,273.62,-116.27
585,1715533724420,1.13,-1.19,-0.73,119.61,306.485,-133.85
586,1715533724430,1.13,-1.19,-0.73,89.84,317.44,-139.71
587,1715533724440,1.13,-1.19,-0.73,89.83999999999999,317.44,-139.71
588,1715533724450,1.13,-1.19,-0.73,89.83999999999999,317.44,-139.71
589,1715533724460,-0.01,-0.59,-2.57,71.35,209.96,-15.56
590,1715533724470,-0.01,-0.59,-2.57,71.35,209.96,-15.56
591,1715533724480,-0.01,-0.59,-2.57,71.35,209.96,-15.56
592,1715533724490,-0.09000000000000001,-0.4566666666666666,-3.28,60.32333333333333,138.63000000000002,-3.2733333333333334
593,1715533724500,-0.25,-0.19,-4.7,38.27,-4.03,21.3
594,1715533724510,-0.25,-0.19000000000000003,-4.7,38.27,-4.03,21.3
595,1715533724520,-0.25,-0.19,-4.7,38.27,-4.03,21.3
596,1715533724530,-0.25,-0.19000000000000003,-4.7,38.27,-4.03,21.3
597,1715533724540,-0.0175,-0.0175,-4.8500000000000005,2.060000000000001,-49.9,80.85749999999999
598,1715533724550,0.06,0.04,-4.9,-10.01,-65.19,100.71
599,1715533724560,0.06,0.04,-4.9,-10.01,-65.19,100.71
600,1715533724570,0.0675,0.085,-4.6375,-82.8425,-130.5525,130.28249999999997
601,1715533724580,0.07,0.10000000000000002,-4.55,-107.12,-152.34,140.14
602,1715533724590,0.07,0.10000000000000002,-4.55,-107.12,-152.34,140.14
603,1715533724600,0.07,0.1,-4.55,-107.12,-152.34,140.14
604,1715533724610,0.07,0.10000000000000002,-4.55,-107.12,-152.34,140.14
605,1715533724620,0.07,0.10000000000000002,-4.55,-107.12,-152.34,140.14
606,1715533724630,0.07,0.1,-4.55,-107.12,-152.34,140.14
607,1715533724640,0.07,0.10000000000000002,-4.55,-107.12,-152.34,140.14
608,1715533724650,0.07,0.1,-4.55,-107.12,-152.34,140.14
609,1715533724660,0.07,0.10000000000000002,-4.55,-107.12,-152.34,140.14
610,1715533724670,1.2774999999999999,-1.4075,-0.065,-344.8775,-191.39249999999998,140.32
611,1715533724680,1.68,-1.91,1.43,-424.12999999999994,-204.41,140.38
612,1715533724690,1.32,-2.17,2.22,-403.5,-193.3,87.22
613,1715533724700,1.32,-2.17,2.22,-403.5,-193.3,87.22
614,1715533724710,1.32,-2.17,2.22,-403.5,-193.30000000000004,87.21999999999998
615,1715533724720,1.275,-2.085,2.0625,-375.76,-209.3975,84.1375
616,1715533724730,1.14,-1.83,1.59,-292.54,-257.69,74.89
617,1715533724740,1.14,-1.83,1.59,-292.54,-257.69,74.89
618,1715533724750,1.14,-1.83,1.59,-292.54,-257.69,74.89
619,1715533724760,1.1433333333333333,-1.7400000000000002,1.58,-297.91,-246.84666666666666,75.11333333333333
620,1715533724770,1.15,-1.5599999999999998,1.5599999999999998,-308.65,-225.16,75.56
621,1715533724780,1.15,-1.56,1.56,-308.65,-225.16,75.56
622,1715533724790,1.15,-1.5599999999999998,1.5599999999999998,-308.65,-225.16,75.56
623,1715533724800,1.15,-1.5599999999999998,1.5599999999999998,-308.65,-225.16,75.56
624,1715533724810,1.15,-1.5599999999999998,1.5599999999999998,-308.65,-225.16,75.56
625,1715533724820,1.15,-1.5599999999999998,1.5599999999999998,-308.65,-225.16,75.56
626,1715533724830,1.15,-1.5599999999999998,1.5599999999999998,-308.65,-225.16,75.56
627,1715533724840,1.15,-1.5599999999999998,1.5599999999999998,-308.65,-225.16,75.56
628,1715533724850,1.15,-1.5599999999999998,1.5599999999999998,-308.65,-225.16,75.56
629,1715533724860,1.0766666666666667,-1.4666666666666668,1.14,-402.40333333333336,-149.6,25.30666666666667
630,1715533724870,1.04,-1.42,0.93,-449.28,-111.82,0.18000000000000002
631,1715533724880,1.14,-1.39,1.49,-412.3500000000001,-175.11,-42.42
632,1715533724890,1.14,-1.39,1.49,-412.35,-175.11,-42.42
633,1715533724900,1.14,-1.39,1.49,-412.3500000000001,-175.11,-42.42
634,1715533724910,1.14,-1.39,1.49,-412.3500000000001,-175.11,-42.42
635,1715533724920,0.9499999999999998,-0.69,2.78,-434.77,-155.41666666666666,-64.14666666666666
636,1715533724930,0.95,-0.69,2.78,-445.98,-145.57,-75.01
637,1715533724940,0.9499999999999998,-0.69,2.78,-445.98,-145.57,-75.01
638,1715533724950,0.9499999999999998,-0.69,2.78,-445.98,-145.57,-75.01
639,1715533724960,0.85,-0.39666666666666667,4.793333333333333,-369.60666666666674,-82.37666666666667,-94.09666666666668
640,1715533724970,0.8000000000000002,-0.25,5.8,-331.42,-50.78,-103.64
641,1715533724980,0.8,-0.25,5.8,-331.42,-50.78,-103.64
642,1715533724990,0.8000000000000002,-0.25,5.8,-331.42,-50.78,-103.64
643,1715533725000,0.8000000000000002,-0.25,5.8,-331.42,-50.78,-103.64
644,1715533725010,0.66,-1.31,8.0,-20.45,-73.0,-43.76
645,1715533725020,0.66,-1.31,8.0,-20.45,-73.0,-43.76
646,1715533725030,0.8325,-1.5325000000000002,7.78,51.190000000000005,-37.5375,-48.3225
647,1715533725040,1.3500000000000003,-2.2,7.12,266.11,68.85,-62.01
648,1715533725050,1.35,-2.2,7.12,266.11,68.85,-62.01
649,1715533725060,1.3500000000000003,-2.2,7.12,266.11,68.85,-62.01
650,1715533725070,1.185,-1.7750000000000001,5.59,293.09000000000003,120.73,-21.36
651,1715533725080,1.02,-1.35,4.06,320.07,172.61,19.29
652,1715533725090,1.02,-1.35,4.06,320.07,172.61,19.29
653,1715533725100,1.02,-1.35,4.06,320.07,172.61,19.29
654,1715533725110,1.02,-1.3500000000000003,4.06,320.07,172.61,19.29
655,1715533725120,1.02,-1.35,4.06,320.07,172.61,19.29
656,1715533725130,1.02,-1.3500000000000003,4.06,320.07,172.61,19.29
657,1715533725140,1.02,-1.35,4.06,320.07,172.61,19.29
658,1715533725150,1.02,-1.35,4.06,320.07,172.61,19.29
659,1715533725160,1.02,-1.35,4.06,320.07,172.61,19.29
660,1715533725170,1.02,-1.3500000000000003,4.06,320.07,172.61,19.29
661,1715533725180,1.02,-1.35,4.06,320.07,172.61,19.29
662,1715533725190,1.02,-1.3500000000000003,4.06,320.07,172.61,19.29
663,1715533725200,1.76,-1.99,1.41,410.95,243.23,-125.49
664,1715533725210,1.76,-1.99,1.41,410.95,243.23,-125.49
665,1715533725220,1.76,-1.99,1.41,410.95,243.23,-125.49
666,1715533725230,1.9,-2.32,1.46,394.685,248.995,-115.08500000000001
667,1715533725240,1.8999999999999997,-2.32,1.46,378.42,254.76,-104.68
668,1715533725250,1.8999999999999997,-2.32,1.46,378.42,254.76,-104.68
669,1715533725260,1.9400000000000002,-2.2966666666666664,1.3866666666666667,358.42,263.1033333333333,-109.42
670,1715533725270,2.02,-2.25,1.24,318.42,279.79,-118.90000000000002
671,1715533725280,2.02,-2.25,1.24,318.42,279.79,-118.9
672,1715533725290,2.02,-2.25,1.24,318.42,279.79,-118.9
673,1715533725300,2.02,-2.25,1.24,318.42,279.79,-118.90000000000002
674,1715533725310,2.02,-2.25,1.24,318.42,279.79,-118.90000000000002
675,1715533725320,2.02,-2.25,1.24,318.42,279.79,-118.9
676,1715533725330,2.02,-2.25,1.24,318.42,279.79,-118.90000000000002
677,1715533725340,2.02,-2.25,1.24,318.42,279.79,-118.90000000000002
678,1715533725350,2.02,-2.25,1.24,318.42,279.79,-118.9
679,1715533725360,2.02,-2.25,1.24,318.42,279.79,-118.90000000000002
680,1715533725370,2.02,-2.25,1.24,318.42,279.79,-118.90000000000002
681,1715533725380,2.02,-2.25,1.24,318.42,279.79,-118.90000000000002
682,1715533725390,1.08,-1.46,-0.41,245.18,255.55,-73.3
683,1715533725400,1.08,-1.46,-0.41,245.17999999999998,255.55000000000004,-73.3
684,1715533725410,1.08,-1.46,-0.41,245.17999999999998,255.55000000000004,-73.3
685,1715533725420,0.69,-1.27,-1.06,95.08999999999999,211.06000000000003,-49.5
686,1715533725430,0.69,-1.27,-1.06,95.08999999999999,211.06000000000003,-49.5
687,1715533725440,0.69,-1.27,-1.06,95.08999999999999,211.06000000000003,-49.5
688,1715533725450,0.69,-1.27,-1.06,95.08999999999999,211.06000000000003,-49.5
689,1715533725460,0.5,-0.15,-2.97,-50.66,190.98,16.85
690,1715533725470,0.5,-0.15,-2.97,-50.66,190.98,16.85
691,1715533725480,0.5,-0.15,-2.97,-50.66,190.98,16.85
692,1715533725490,0.5,-0.15,-2.97,-50.66,190.98,16.85
693,1715533725500,-0.002500000000000009,0.42,-4.5375,-94.235,42.8475,-29.432499999999997
694,1715533725510,-0.17,0.61,-5.06,-108.76,-6.53,-44.85999999999999
695,1715533725520,-0.17,0.61,-5.06,-108.76,-6.53,-44.85999999999999
696,1715533725530,-0.036666666666666674,0.6933333333333334,-4.703333333333333,-108.76,-6.53,-44.85999999999999
697,1715533725540,0.23,0.86,-3.99,-63.35,-52.73,56.15
698,1715533725550,0.23,0.86,-3.99,-63.35,-52.73,56.15
699,1715533725560,0.23,0.86,-3.99,-63.35,-52.73,56.15
700,1715533725570,0.26333333333333336,0.7566666666666667,-3.91,-77.43,-75.64,68.88666666666667
701,1715533725580,0.33,0.55,-3.75,-105.58999999999999,-121.46,94.36
702,1715533725590,0.33,0.55,-3.75,-105.58999999999999,-121.46,94.36
703,1715533725600,0.33,0.55,-3.75,-105.59,-121.46,94.36
704,1715533725610,0.6766666666666667,0.1666666666666667,-2.9033333333333338,-158.89333333333335,-124.42999999999999,91.16666666666667
705,1715533725620,1.37,-0.6,-1.21,-265.5,-130.37,84.78
706,1715533725630,1.37,-0.6,-1.21,-265.5,-130.37,84.78
707,1715533725640,1.37,-0.6,-1.21,-265.5,-130.37,84.78
708,1715533725650,1.37,-0.6,-1.21,-265.5,-130.37,84.78
709,1715533725660,1.37,-0.6,-1.21,-265.5,-130.37,84.78
710,1715533725670,1.37,-0.6,-1.21,-265.5,-130.37,84.78
711,1715533725680,1.37,-0.6,-1.21,-265.5,-130.37,84.78
712,1715533725690,1.37,-0.6,-1.21,-265.5,-130.37,84.78
713,1715533725700,1.37,-0.6,-1.21,-265.5,-130.37,84.78
714,1715533725710,1.37,-0.6,-1.21,-265.5,-130.37,84.78
715,1715533725720,1.46,-2.3075,1.94,-447.2525,-245.2375,-24.4125
716,1715533725730,1.19,-2.54,1.9400000000000002,-400.87999999999994,-262.63,-26.61
717,1715533725740,1.19,-2.54,1.9400000000000002,-400.87999999999994,-262.63,-26.61
718,1715533725750,1.19,-2.54,1.94,-400.88,-262.63,-26.61
719,1715533725760,1.1933333333333334,-2.42,1.8966666666666665,-373.9633333333333,-280.6766666666667,-21.929999999999996
720,1715533725770,1.2,-2.18,1.8099999999999998,-320.13,-316.77,-12.57
721,1715533725780,1.2,-2.18,1.8099999999999998,-320.13,-316.77,-12.57
722,1715533725790,1.2,-2.18,1.8099999999999998,-320.13,-316.77,-12.57
723,1715533725800,1.12,-2.05,1.645,-347.14,-284.76,13.489999999999998
724,1715533725810,1.04,-1.92,1.4799999999999998,-374.1499999999999,-252.75,39.55
725,1715533725820,1.04,-1.92,1.48,-374.15,-252.75,39.55
726,1715533725830,1.04,-1.92,1.48,-374.15,-252.75,39.55
727,1715533725840,1.04,-1.92,1.4799999999999998,-374.1499999999999,-252.75,39.55
728,1715533725850,1.04,-1.92,1.48,-374.15,-252.75,39.55
729,1715533725860,1.04,-1.92,1.48,-374.15,-252.75,39.55
730,1715533725870,1.04,-1.92,1.4799999999999998,-374.1499999999999,-252.75,39.55
731,1715533725880,1.04,-1.92,1.4799999999999998,-374.1499999999999,-252.75,39.55
732,1715533725890,1.04,-1.92,1.4799999999999998,-374.1499999999999,-252.75,39.55
733,1715533725900,1.04,-1.92,1.48,-374.15,-252.75,39.55
734,1715533725910,0.8866666666666667,-1.3333333333333333,1.8533333333333335,-431.3166666666666,-186.75,15.096666666666666
735,1715533725920,0.5175,-0.62,2.6475,-446.5475,-147.31,-3.1275000000000004
736,1715533725930,0.42,-0.48,2.85,-406.49,-127.99,-21.12
737,1715533725940,0.42,-0.48,2.85,-406.49,-127.99,-21.12
738,1715533725950,0.42,-0.48,2.85,-406.49,-127.99,-21.12
739,1715533725960,-0.05000000000000001,-0.59,5.07,-314.51,-82.76,-21.06
740,1715533725970,-0.05000000000000001,-0.59,5.07,-314.51,-82.76,-21.06
741,1715533725980,-0.05000000000000001,-0.59,5.07,-314.51,-82.76,-21.06
742,1715533725990,-0.05000000000000001,-0.59,5.07,-314.51,-82.76,-21.06
743,1715533726000,0.5349999999999999,-1.3475000000000001,7.08,-120.1925,-15.927500000000002,-26.37
744,1715533726010,0.73,-1.6000000000000003,7.75,-55.419999999999995,6.349999999999999,-28.14
745,1715533726020,0.73,-1.6,7.75,-55.42,6.35,-28.14
746,1715533726030,0.8033333333333333,-2.1333333333333333,7.1933333333333325,-55.419999999999995,6.349999999999999,-28.14
747,1715533726040,0.95,-3.2,6.08,263.67,68.12,-17.03
748,1715533726050,0.9499999999999998,-3.2000000000000006,6.080000000000001,263.67,68.12,-17.03
749,1715533726060,0.9499999999999998,-3.2000000000000006,6.080000000000001,263.67,68.12,-17.03
750,1715533726070,0.8866666666666667,-3.0566666666666666,5.41,281.55333333333334,73.75333333333333,-17.763333333333335
751,1715533726080,0.7600000000000001,-2.77,4.07,317.32,85.02,-19.23
752,1715533726090,0.76,-2.77,4.07,317.32,85.02,-19.23
753,1715533726100,0.76,-2.77,4.07,317.32,85.02,-19.23
754,1715533726110,0.9133333333333334,-1.8233333333333335,3.176666666666667,317.32,85.02,-19.23
755,1715533726120,0.99,-1.35,2.73,354.06,92.22,89.23
756,1715533726130,0.9899999999999999,-1.3500000000000003,2.73,354.06,92.21999999999998,89.23
757,1715533726140,0.99,-1.35,2.73,354.06,92.22,89.23
758,1715533726150,0.99,-1.35,2.73,354.06,92.22,89.23
759,1715533726160,0.99,-1.35,2.73,354.06,92.22,89.23
760,1715533726170,0.9899999999999999,-1.3500000000000003,2.73,354.06,92.21999999999998,89.23
761,1715533726180,0.99,-1.35,2.73,354.06,92.22,89.23
762,1715533726190,0.9899999999999999,-1.3500000000000003,2.73,354.06,92.21999999999998,89.23
763,1715533726200,0.9899999999999999,-1.3500000000000003,2.73,354.06,92.21999999999998,89.23
764,1715533726210,0.9899999999999999,-1.3500000000000003,2.73,354.06,92.21999999999998,89.23
765,1715533726220,0.9899999999999999,-1.3500000000000003,2.73,354.06,92.21999999999998,89.23
766,1715533726230,0.9899999999999999,-1.3500000000000003,2.73,354.06,92.21999999999998,89.23
767,1715533726240,1.4799999999999998,-1.2566666666666666,1.57,381.44666666666666,171.73333333333335,-28.56333333333333
768,1715533726250,1.44,-1.67,1.27,395.14,211.49,-87.46
769,1715533726260,1.4,-2.19,1.47,370.12,226.44,-86.0
770,1715533726270,1.3999999999999997,-2.19,1.47,370.12000000000006,226.43999999999997,-86.0
771,1715533726280,1.3999999999999997,-2.19,1.47,370.12000000000006,226.43999999999997,-86.0
772,1715533726290,1.4,-2.19,1.47,370.12,226.44,-86.0
773,1715533726300,1.5,-1.78,1.15,326.9,240.23,-51.57
774,1715533726310,1.5,-1.78,1.15,326.9,240.23,-51.57
775,1715533726320,1.5,-1.78,1.15,326.9,240.23,-51.57
776,1715533726330,1.5,-1.78,1.15,326.9,240.23,-51.57
777,1715533726340,1.49,-1.75,1.09,301.51,247.18999999999997,-71.96
778,1715533726350,1.49,-1.75,1.09,301.51,247.19,-71.96
779,1715533726360,1.49,-1.75,1.09,301.51,247.19,-71.96
780,1715533726370,1.49,-1.75,1.09,301.51,247.18999999999997,-71.96
781,1715533726380,1.49,-1.75,1.09,301.51,247.19,-71.96
782,1715533726390,1.49,-1.75,1.09,301.51,247.19,-71.96
783,1715533726400,1.49,-1.75,1.09,301.51,247.18999999999997,-71.96
784,1715533726410,1.49,-1.75,1.09,301.51,247.19,-71.96
785,1715533726420,1.49,-1.75,1.09,301.51,247.18999999999997,-71.96
786,1715533726430,1.3633333333333333,-1.6500000000000001,0.2366666666666667,198.15666666666667,311.77,-89.25333333333333
787,1715533726440,1.3,-1.6000000000000003,-0.19000000000000003,146.48,344.06,-97.90000000000002
788,1715533726450,0.13,-1.1,-2.27,113.09999999999998,222.78,64.21
789,1715533726460,0.13,-1.1,-2.27,113.09999999999998,222.78,64.21
790,1715533726470,0.13,-1.1,-2.27,113.09999999999998,222.78,64.21
791,1715533726480,0.13,-1.1,-2.27,113.09999999999998,222.78,64.21
792,1715533726490,-0.15,-0.23,-3.77,60.35999999999999,103.64,112.79
793,1715533726500,-0.15,-0.23,-3.77,60.35999999999999,103.64,112.79
794,1715533726510,-0.15,-0.23,-3.77,60.35999999999999,103.64,112.79
795,1715533726520,-0.15,-0.23,-3.77,60.35999999999999,103.64,112.79
796,1715533726530,0.23,0.37,-4.31,108.09,-84.11,111.76
797,1715533726540,0.23,0.36999999999999994,-4.31,108.08999999999999,-84.11,111.76
798,1715533726550,0.23,0.37,-4.31,108.09,-84.11,111.76
799,1715533726560,0.20666666666666667,0.5166666666666667,-4.78,52.14333333333334,-61.16,131.12666666666667
800,1715533726570,0.16,0.81,-5.72,-59.75,-15.26,169.86
801,1715533726580,0.16,0.81,-5.72,-59.75,-15.26,169.86
802,1715533726590,0.16,0.81,-5.72,-59.75,-15.26,169.86
803,1715533726600,0.7000000000000001,0.09666666666666668,-4.026666666666666,-59.75,-15.26,169.86
804,1715533726610,0.97,-0.26,-3.18,-305.79,-122.5,137.7
805,1715533726620,0.9700000000000001,-0.26,-3.18,-305.79,-122.5,137.7
806,1715533726630,0.97,-0.26,-3.18,-305.79,-122.5,137.7
807,1715533726640,1.3033333333333335,-1.2666666666666666,-1.08,-380.37000000000006,-149.92666666666665,88.95333333333333
808,1715533726650,1.47,-1.77,-0.03,-417.66,-163.64,64.58
809,1715533726660,1.47,-1.77,-0.03,-417.66,-163.64,64.58
810,1715533726670,1.47,-1.7700000000000002,-0.03,-417.66,-163.64,64.58
811,1715533726680,1.47,-1.77,-0.03,-417.66,-163.64,64.58
812,1715533726690,1.47,-1.77,-0.03,-417.66,-163.64,64.58
813,1715533726700,1.47,-1.7700000000000002,-0.03,-417.66,-163.64,64.58
814,1715533726710,1.47,-1.77,-0.03,-417.66,-163.64,64.58
815,1715533726720,1.47,-1.7700000000000002,-0.03,-417.66,-163.64,64.58
816,1715533726730,1.47,-1.77,-0.03,-417.66,-163.64,64.58
817,1715533726740,1.47,-1.7700000000000002,-0.03,-417.66,-163.64,64.58
818,1715533726750,1.47,-1.77,-0.03,-417.66,-163.64,64.58
819,1715533726760,1.47,-1.7700000000000002,-0.03,-417.66,-163.64,64.58
820,1715533726770,0.83,-2.04,1.96,-430.24,-83.74,0.49
821,1715533726780,0.83,-2.04,1.96,-430.24,-83.74,0.49
822,1715533726790,0.6799999999999999,-1.97,1.685,-423.265,-89.5375,-3.5225
823,1715533726800,0.53,-1.8999999999999997,1.41,-402.34,-106.93,-15.56
824,1715533726810,0.53,-1.8999999999999997,1.41,-402.34,-106.93,-15.56
825,1715533726820,0.53,-1.9,1.41,-402.34,-106.93,-15.56
826,1715533726830,0.5800000000000001,-1.7974999999999999,1.375,-401.075,-108.915,-15.835
827,1715533726840,0.73,-1.49,1.27,-397.28,-114.87,-16.66
828,1715533726850,0.73,-1.49,1.27,-397.28,-114.87,-16.66
829,1715533726860,0.73,-1.49,1.27,-397.28,-114.87,-16.66
830,1715533726870,0.7066666666666667,-1.4400000000000002,1.2333333333333334,-397.28,-114.87,-16.66
831,1715533726880,0.66,-1.34,1.16,-397.28,-114.87,-16.66
832,1715533726890,0.66,-1.34,1.16,-397.28,-114.87,-16.66
833,1715533726900,0.66,-1.34,1.16,-397.28,-114.87,-16.66
834,1715533726910,0.66,-1.34,1.16,-397.28,-114.87,-16.66
835,1715533726920,0.66,-1.34,1.16,-397.28,-114.87,-16.66
836,1715533726930,0.66,-1.34,1.16,-397.28,-114.87,-16.66
837,1715533726940,0.66,-1.34,1.16,-397.28,-114.87,-16.66
838,1715533726950,0.66,-1.34,1.16,-397.28,-114.87,-16.66
839,1715533726960,0.34,-0.23,3.2099999999999995,-315.0,-91.61,-79.04
840,1715533726970,0.34,-0.23,3.21,-315.0,-91.61,-79.04
841,1715533726980,0.34,-0.23,3.2099999999999995,-315.0,-91.61,-79.04
842,1715533726990,0.07,-0.92,5.88,-249.9,-120.29666666666667,-61.18000000000001
843,1715533727000,0.07,-0.92,5.88,-217.35,-134.64,-52.25
844,1715533727010,0.07,-0.92,5.88,-217.35,-134.64,-52.25
845,1715533727020,0.2775,-1.1025,6.205,-149.76749999999998,-104.21499999999999,-44.375
846,1715533727030,0.9,-1.6499999999999997,7.18,52.98,-12.94,-20.75
847,1715533727040,0.9,-1.6499999999999997,7.18,52.98,-12.94,-20.75
848,1715533727050,0.9,-1.65,7.18,52.98,-12.94,-20.75
849,1715533727060,1.0233333333333334,-1.92,6.826666666666667,122.43666666666667,5.920000000000001,-36.986666666666665
850,1715533727070,1.27,-2.46,6.12,261.35,43.64000000000001,-69.46
851,1715533727080,1.27,-2.46,6.12,261.35,43.64,-69.46
852,1715533727090,1.27,-2.46,6.12,261.35,43.64000000000001,-69.46
853,1715533727100,1.27,-2.46,6.12,261.35,43.64,-69.46
854,1715533727110,0.9700000000000001,-1.9066666666666665,4.466666666666667,251.60666666666668,108.23666666666668,-43.276666666666664
855,1715533727120,0.82,-1.63,3.64,232.12,237.42999999999998,9.09
856,1715533727130,0.82,-1.63,3.64,232.12,237.43,9.09
857,1715533727140,0.8066666666666666,-1.11,2.973333333333333,269.6333333333333,215.53666666666666,51.73666666666667
858,1715533727150,0.8000000000000002,-0.85,2.64,288.39,204.59,73.06
859,1715533727160,0.8,-0.85,2.64,288.39,204.59,73.06
860,1715533727170,0.8000000000000002,-0.85,2.64,288.39,204.59,73.06
861,1715533727180,1.24,-0.8000000000000002,2.17,387.08,221.31000000000003,66.71
862,1715533727190,1.24,-0.8,2.17,387.08,221.31,66.71
863,1715533727200,1.24,-0.8,2.17,387.08,221.31,66.71
864,1715533727210,1.24,-0.8000000000000002,2.17,387.08,221.31000000000003,66.71
865,1715533727220,1.24,-0.8000000000000002,2.17,387.08,221.31000000000003,66.71
866,1715533727230,1.24,-0.8,2.17,387.08,221.31,66.71
867,1715533727240,1.24,-0.8000000000000002,2.17,387.08,221.31000000000003,66.71
868,1715533727250,1.24,-0.8,2.17,387.08,221.31,66.71
869,1715533727260,1.24,-0.8000000000000002,2.17,387.08,221.31000000000003,66.71
870,1715533727270,1.24,-0.8000000000000002,2.17,387.08,221.31000000000003,66.71
871,1715533727280,1.24,-0.8,2.17,387.08,221.31,66.71
872,1715533727290,1.1933333333333334,-1.7933333333333332,1.5833333333333333,384.0333333333333,222.12333333333333,-14.956666666666669
873,1715533727300,1.17,-2.29,1.29,382.51,222.53,-55.79
874,1715533727310,1.2525,-2.2975,1.425,377.425,195.935,-75.335
875,1715533727320,1.28,-2.3,1.47,375.73,187.07000000000002,-81.85
876,1715533727330,1.3866666666666667,-2.313333333333333,1.3833333333333335,355.67,202.65666666666667,-78.83666666666666
877,1715533727340,1.4400000000000002,-2.32,1.34,345.64000000000004,210.44999999999996,-77.33
878,1715533727350,1.4400000000000002,-2.32,1.34,345.64000000000004,210.44999999999996,-77.33
879,1715533727360,1.4400000000000002,-2.32,1.34,345.64000000000004,210.44999999999996,-77.33
880,1715533727370,1.5200000000000002,-2.013333333333333,1.0533333333333335,283.91333333333336,252.19666666666663,-54.75
881,1715533727380,1.56,-1.86,0.91,253.05,273.07,-43.46
882,1715533727390,1.56,-1.86,0.91,253.05,273.07,-43.46
883,1715533727400,1.5599999999999998,-1.86,0.91,253.05000000000004,273.07,-43.46
884,1715533727410,1.5599999999999998,-1.86,0.91,253.05000000000004,273.07,-43.46
885,1715533727420,1.5599999999999998,-1.86,0.91,253.05000000000004,273.07,-43.46
886,1715533727430,1.5599999999999998,-1.86,0.91,253.05000000000004,273.07,-43.46
887,1715533727440,1.5599999999999998,-1.86,0.91,253.05000000000004,273.07,-43.46
888,1715533727450,1.5599999999999998,-1.86,0.91,253.05000000000004,273.07,-43.46
889,1715533727460,1.5599999999999998,-1.86,0.91,253.05000000000004,273.07,-43.46
890,1715533727470,1.5599999999999998,-1.86,0.91,253.05000000000004,273.07,-43.46
891,1715533727480,0.52,-1.0566666666666666,-2.0066666666666664,181.64333333333335,172.85,12.533333333333333
892,1715533727490,-0.04,-0.15,-3.8,14.4,-64.33,127.08
893,1715533727500,-0.04,-0.15,-3.7999999999999994,14.4,-64.33,127.08
894,1715533727510,-0.04,-0.15,-3.8,14.4,-64.33,127.08
895,1715533727520,0.355,0.15999999999999998,-3.7649999999999997,14.4,-64.33,127.08
896,1715533727530,0.75,0.47,-3.73,12.76,-120.73,151.67
897,1715533727540,0.75,0.47,-3.73,12.76,-120.73,151.67
898,1715533727550,0.75,0.47,-3.73,12.76,-120.73,151.67
899,1715533727560,0.39666666666666667,0.58,-3.936666666666666,-5.633333333333334,-100.12,127.66333333333334
900,1715533727570,-0.31,0.8000000000000002,-4.35,-42.42,-58.9,79.65
901,1715533727580,-0.31,0.8000000000000002,-4.35,-42.42,-58.9,79.65
902,1715533727590,-0.31,0.8,-4.35,-42.42,-58.9,79.65
903,1715533727600,-0.31,0.8000000000000002,-4.35,-42.42,-58.9,79.65
904,1715533727610,0.09000000000000001,-0.34,-2.89,-258.12,-93.08,150.27
905,1715533727620,0.09,-0.34,-2.89,-258.12,-93.08,150.27
906,1715533727630,0.09,-0.34,-2.89,-258.12,-93.08,150.27
907,1715533727640,1.33,-1.57,-0.19000000000000003,-258.12,-93.08,150.27
908,1715533727650,1.33,-1.57,-0.19,-413.296,-79.01599999999999,143.678
909,1715533727660,1.33,-1.57,-0.19,-452.09,-75.5,142.03
910,1715533727670,1.33,-1.57,-0.19000000000000003,-452.09,-75.5,142.03
911,1715533727680,1.14,-2.73,1.94,-449.52,-168.33,30.27
912,1715533727690,1.14,-2.73,1.9400000000000002,-449.52,-168.33,30.27
913,1715533727700,1.14,-2.73,1.9400000000000002,-449.52,-168.33,30.27
914,1715533727710,1.14,-2.73,1.9400000000000002,-449.52,-168.33,30.27
915,1715533727720,1.14,-2.73,1.9400000000000002,-449.52,-168.33,30.27
916,1715533727730,1.14,-2.73,1.94,-449.52,-168.33,30.27
917,1715533727740,1.14,-2.73,1.9400000000000002,-449.52,-168.33,30.27
918,1715533727750,1.14,-2.73,1.9400000000000002,-449.52,-168.33,30.27
919,1715533727760,1.14,-2.73,1.9400000000000002,-449.52,-168.33,30.27
920,1715533727770,1.14,-2.73,1.9400000000000002,-449.52,-168.33,30.27
921,1715533727780,1.14,-2.73,1.9400000000000002,-449.52,-168.33,30.27
922,1715533727790,1.14,-2.73,1.9400000000000002,-449.52,-168.33,30.27
923,1715533727800,1.14,-2.73,1.9400000000000002,-449.52,-168.33,30.27
924,1715533727810,0.9933333333333332,-2.3233333333333333,1.7933333333333332,-424.64000000000004,-126.60333333333334,28.97
925,1715533727820,0.6999999999999998,-1.51,1.5,-374.87999999999994,-43.15,26.37
926,1715533727830,0.6266666666666666,-1.4033333333333333,1.2533333333333332,-374.87999999999994,-43.15,26.37
927,1715533727840,0.59,-1.3500000000000003,1.13,-408.33,-57.85999999999999,9.52
928,1715533727850,0.59,-1.35,1.13,-408.33,-57.86,9.52
929,1715533727860,0.59,-1.35,1.13,-408.33,-57.86,9.52
930,1715533727870,0.7833333333333333,-0.9433333333333334,1.2166666666666666,-435.59,-72.26666666666667,-11.433333333333332
931,1715533727880,0.88,-0.7399999999999999,1.26,-449.22,-79.47,-21.91
932,1715533727890,0.88,-0.7399999999999999,1.26,-449.22,-79.47,-21.91
933,1715533727900,0.88,-0.74,1.26,-449.22,-79.47,-21.91
934,1715533727910,0.8466666666666667,-0.7466666666666667,1.8866666666666667,-442.6266666666667,-89.39666666666666,-87.30333333333333
935,1715533727920,0.83,-0.75,2.2,-439.33,-94.36,-120.0
936,1715533727930,0.83,-0.75,2.2,-439.33,-94.36,-120.0
937,1715533727940,0.83,-0.75,2.2,-439.33,-94.36,-120.0
938,1715533727950,0.83,-0.75,2.2,-439.33,-94.36,-120.0
939,1715533727960,0.83,-0.75,2.2,-439.33,-94.36,-120.0
940,1715533727970,0.83,-0.75,2.2,-439.33,-94.36,-120.0
941,1715533727980,0.83,-0.75,2.2,-439.33,-94.36,-120.0
942,1715533727990,0.83,-0.75,2.2,-439.33,-94.36,-120.0
943,1715533728000,0.83,-0.75,2.2,-439.33,-94.36,-120.0
944,1715533728010,0.27,-1.95,6.29,-234.62,-48.580000000000005,-143.13
945,1715533728020,0.22000000000000003,-2.445,6.4,-70.89500000000001,-47.695,-53.44
946,1715533728030,0.17,-2.94,6.51,92.83,-46.81,36.25
947,1715533728040,0.17,-2.94,6.51,92.83,-46.81,36.25
948,1715533728050,0.17,-2.94,6.510000000000001,92.83,-46.81,36.25
949,1715533728060,0.17,-2.94,6.510000000000001,92.83,-46.81,36.25
950,1715533728070,0.84,-2.44,5.51,241.15,12.33,27.4
951,1715533728080,0.84,-2.44,5.510000000000001,241.15,12.33,27.399999999999995
952,1715533728090,0.84,-2.44,5.51,241.15,12.33,27.4
953,1715533728100,0.61,-1.64,3.63,260.13,77.7,72.02
954,1715533728110,0.61,-1.64,3.63,279.11,143.07,116.64
955,1715533728120,0.61,-1.64,3.6300000000000003,279.11,143.07,116.64
956,1715533728130,0.61,-1.64,3.6300000000000003,279.11,143.07,116.64
957,1715533728140,1.09,-1.0266666666666666,2.9633333333333334,321.02333333333337,141.74666666666667,115.09333333333332
958,1715533728150,1.33,-0.72,2.63,404.85,139.1,112.0
959,1715533728160,1.33,-0.72,2.63,404.85,139.1,112.0
960,1715533728170,1.33,-0.72,2.63,404.85,139.1,112.0
961,1715533728180,1.49,-1.63,1.78,466.37,191.1,-3.54
962,1715533728190,1.49,-1.63,1.78,466.37,191.1,-3.54
963,1715533728200,1.49,-1.63,1.78,466.37000000000006,191.1,-3.5400000000000005
964,1715533728210,1.49,-1.63,1.78,466.37000000000006,191.1,-3.5400000000000005
965,1715533728220,1.3625,-2.2975,1.3900000000000001,483.35,171.8775,-66.9375
966,1715533728230,1.32,-2.52,1.26,489.01,165.47,-88.07
967,1715533728240,1.32,-2.52,1.26,489.01,165.47,-88.07
968,1715533728250,1.32,-2.52,1.26,489.01,165.47,-88.07
969,1715533728260,1.32,-2.52,1.26,489.01,165.47,-88.07
970,1715533728270,1.32,-2.52,1.26,489.01,165.47,-88.07
971,1715533728280,1.32,-2.52,1.26,489.01,165.47,-88.07
972,1715533728290,1.32,-2.52,1.26,489.01,165.47,-88.07
973,1715533728300,1.32,-2.52,1.26,489.01,165.47,-88.07
974,1715533728310,1.32,-2.52,1.26,489.01,165.47,-88.07
975,1715533728320,1.32,-2.52,1.26,489.01,165.47,-88.07
976,1715533728330,1.32,-2.52,1.26,489.01,165.47,-88.07
977,1715533728340,1.38,-2.36,1.1866666666666665,380.41,231.0566666666667,-168.67666666666665
978,1715533728350,1.41,-2.28,1.15,326.11,263.85,-208.98
979,1715533728360,1.41,-2.28,1.15,326.11,263.85,-208.98
980,1715533728370,1.3766666666666667,-2.0066666666666664,0.8033333333333333,278.5833333333333,295.71666666666664,-159.91333333333333
981,1715533728380,1.36,-1.87,0.63,254.82,311.65,-135.38
982,1715533728390,1.36,-1.87,0.63,254.82000000000002,311.65,-135.38
983,1715533728400,1.36,-1.87,0.63,254.82000000000002,311.65,-135.38
984,1715533728410,1.19,-1.5200000000000002,-0.7600000000000001,181.27,329.41,-109.74
985,1715533728420,1.19,-1.5200000000000002,-0.7600000000000001,181.27,329.41,-109.74
986,1715533728430,1.19,-1.52,-0.76,181.27,329.41,-109.74
987,1715533728440,1.19,-1.52,-0.76,181.27,329.41,-109.74
988,1715533728450,1.19,-1.52,-0.76,181.27,329.41,-109.74
989,1715533728460,1.19,-1.52,-0.76,181.27,329.41,-109.74
990,1715533728470,1.19,-1.5200000000000002,-0.7600000000000001,181.27,329.41,-109.74
991,1715533728480,1.19,-1.52,-0.76,181.27,329.41,-109.74
992,1715533728490,1.19,-1.52,-0.76,181.27,329.41,-109.74
993,1715533728500,1.19,-1.5200000000000002,-0.7600000000000001,181.27,329.41,-109.74
994,1715533728510,1.19,-1.5200000000000002,-0.7600000000000001,181.27,329.41,-109.74
995,1715533728520,1.19,-1.52,-0.76,181.27,329.41,-109.74
996,1715533728530,0.26749999999999996,-0.47750000000000004,-3.6775,74.5675,-29.70499999999999,71.66999999999999
997,1715533728540,-0.04,-0.13,-4.65,39.0,-149.41,132.14
998,1715533728550,-0.04,-0.13,-4.65,39.0,-149.41,132.14
999,1715533728560,-0.15333333333333332,0.17666666666666667,-4.59,-37.78,-163.57000000000002,119.93333333333332
1000,1715533728570,-0.21,0.33,-4.56,-76.17,-170.65,113.83
1001,1715533728580,-0.21,0.33,-4.56,-76.17,-170.65,113.83
1002,1715533728590,-0.21,0.33,-4.56,-76.17,-170.65,113.83
1003,1715533728600,0.6,-0.38999999999999996,-2.4,-257.57,-204.16,175.17
1004,1715533728610,0.6,-0.39,-2.4,-257.57,-204.16,175.17
1005,1715533728620,0.6,-0.38999999999999996,-2.4,-257.57,-204.16,175.17
1006,1715533728630,0.6,-0.38999999999999996,-2.4,-257.57,-204.16,175.17
1007,1715533728640,2.09,-1.3999999999999997,0.63,-293.58,-210.89666666666668,172.24
1008,1715533728650,2.09,-1.4,0.63,-365.6,-224.37,166.38
1009,1715533728660,2.09,-1.3999999999999997,0.63,-365.6000000000001,-224.37,166.38
1010,1715533728670,2.09,-1.4,0.63,-365.6,-224.37,166.38
1011,1715533728680,2.26,-1.64,2.05,-406.86,-201.42,98.33
1012,1715533728690,2.26,-1.64,2.05,-406.86,-201.42,98.33
1013,1715533728700,2.26,-1.64,2.05,-406.85999999999996,-201.42,98.33
1014,1715533728710,2.26,-1.64,2.05,-406.85999999999996,-201.42,98.33
1015,1715533728720,2.26,-1.64,2.05,-406.85999999999996,-201.42,98.33
1016,1715533728730,2.26,-1.64,2.05,-406.85999999999996,-201.42,98.33
1017,1715533728740,1.8099999999999998,-1.7700000000000002,2.06,-297.61,-264.89,43.03
1018,1715533728750,1.8099999999999998,-1.7700000000000002,2.06,-297.61,-264.89,43.03
1019,1715533728760,1.47,-1.62,1.87,-272.77,-263.18,32.41
1020,1715533728770,1.47,-1.62,1.87,-272.77,-263.18,32.41
1021,1715533728780,1.47,-1.62,1.87,-272.77,-263.18,32.41
1022,1715533728790,1.47,-1.62,1.87,-272.77,-263.18,32.41
1023,1715533728800,1.47,-1.62,1.87,-272.77,-263.18,32.41
1024,1715533728810,1.47,-1.62,1.87,-272.77,-263.18,32.41
1025,1715533728820,1.47,-1.62,1.87,-272.77,-263.18,32.41
1026,1715533728830,1.47,-1.62,1.87,-272.77,-263.18,32.41
1027,1715533728840,1.47,-1.62,1.87,-272.77,-263.18,32.41
1028,1715533728850,1.47,-1.62,1.87,-272.77,-263.18,32.41
1029,1715533728860,1.1400000000000001,-1.635,1.6,-315.91999999999996,-227.66,36.06999999999999
1030,1715533728870,0.77,-1.4166666666666667,1.3366666666666667,-336.2833333333333,-220.01333333333332,54.830000000000005
1031,1715533728880,0.75,-1.3,1.34,-324.89,-233.94999999999996,62.38
1032,1715533728890,0.75,-1.3,1.34,-324.89,-233.95,62.38
1033,1715533728900,0.7733333333333333,-0.9766666666666667,1.57,-333.19,-225.65,59.550000000000004
1034,1715533728910,0.82,-0.33,2.03,-349.79,-209.05000000000004,53.89000000000001
1035,1715533728920,0.82,-0.33,2.03,-349.79,-209.05,53.89
1036,1715533728930,0.82,-0.33,2.03,-349.79,-209.05,53.89
1037,1715533728940,0.505,-0.05500000000000001,2.9299999999999997,-349.79,-209.05,53.89
1038,1715533728950,0.19000000000000003,0.22,3.83,-351.99,-149.78,-50.9
1039,1715533728960,0.19,0.22,3.83,-351.99,-149.78,-50.9
1040,1715533728970,0.19,0.22,3.83,-351.99,-149.78,-50.9
1041,1715533728980,0.19000000000000003,0.22,3.83,-351.99,-149.78,-50.9
1042,1715533728990,0.19,0.22,3.83,-351.99,-149.78,-50.9
1043,1715533729000,0.19,0.22,3.83,-351.99,-149.78,-50.9
1044,1715533729010,0.19000000000000003,0.22,3.83,-351.99,-149.78,-50.9
1045,1715533729020,0.19000000000000003,0.22,3.83,-351.99,-149.78,-50.9
1046,1715533729030,0.19000000000000003,0.22,3.83,-351.99,-149.78,-50.9
1047,1715533729040,0.19000000000000003,0.22,3.83,-351.99,-149.78,-50.9
1048,1715533729050,0.48666666666666664,-0.27,4.743333333333333,-156.41333333333333,-114.50333333333333,-30.799999999999997
1049,1715533729060,1.08,-1.25,6.57,234.74,-43.95000000000001,9.4
1050,1715533729070,2.05,-1.79,5.75,208.86,158.33,-57.68
1051,1715533729080,2.05,-1.79,5.75,208.86,158.33,-57.68
1052,1715533729090,2.05,-1.79,5.75,208.86,158.33,-57.68
1053,1715533729100,1.4049999999999998,-1.655,4.055,197.8725,241.1825,-42.1625
1054,1715533729110,1.19,-1.61,3.49,194.21,268.8,-36.99
1055,1715533729120,1.19,-1.61,3.49,194.21,268.8,-36.99
1056,1715533729130,1.19,-1.61,3.49,194.21,268.8,-36.99
1057,1715533729140,0.98,-1.225,2.955,253.57,224.09,-10.805
1058,1715533729150,0.77,-0.84,2.42,312.93,179.38,15.38
1059,1715533729160,0.77,-0.84,2.42,312.93,179.38,15.38
1060,1715533729170,0.77,-0.84,2.42,312.93,179.38,15.38
1061,1715533729180,1.17,-0.78,1.84,390.44,206.48,43.27
1062,1715533729190,1.17,-0.78,1.84,390.44,206.48,43.27
1063,1715533729200,1.17,-0.7799999999999999,1.84,390.44,206.48,43.27
1064,1715533729210,1.1233333333333333,-1.4733333333333334,1.2466666666666668,423.15333333333336,206.76666666666665,-34.11666666666667
1065,1715533729220,1.1,-1.82,0.9499999999999998,439.51,206.91,-72.81
1066,1715533729230,1.1,-1.82,0.95,439.51,206.91,-72.81
1067,1715533729240,1.1,-1.82,0.9499999999999998,439.51,206.91,-72.81
1068,1715533729250,1.0133333333333334,-1.82,0.8966666666666666,396.6233333333333,178.51,-71.51
1069,1715533729260,0.97,-1.82,0.87,375.18,164.31,-70.86
1070,1715533729270,0.9700000000000001,-1.82,0.87,375.18,164.31,-70.86
1071,1715533729280,0.9700000000000001,-1.82,0.87,375.18,164.31,-70.86
1072,1715533729290,1.1233333333333333,-1.7533333333333332,1.1900000000000002,295.6333333333334,199.58333333333334,-68.5
1073,1715533729300,1.2,-1.72,1.35,255.86,217.22,-67.32
1074,1715533729310,1.2,-1.72,1.3500000000000003,255.86,217.22,-67.32
1075,1715533729320,1.2,-1.72,1.3500000000000003,255.86,217.22,-67.32
1076,1715533729330,1.2,-1.72,1.3500000000000003,255.86,217.22,-67.32
1077,1715533729340,1.2,-1.72,1.35,255.86,217.22,-67.32
1078,1715533729350,1.2,-1.72,1.3500000000000003,255.86,217.22,-67.32
1079,1715533729360,1.2,-1.72,1.3500000000000003,255.86,217.22,-67.32
1080,1715533729370,1.2,-1.72,1.3500000000000003,255.86,217.22,-67.32
1081,1715533729380,1.2,-1.72,1.3500000000000003,255.86,217.22,-67.32
1082,1715533729390,1.23,-1.345,1.1025,256.775,202.16,-33.9975
1083,1715533729400,1.24,-1.22,1.02,257.08,197.14,-22.89
1084,1715533729410,0.94,-1.31,0.19000000000000003,252.81000000000003,231.87,-38.21
1085,1715533729420,0.94,-1.31,0.19,252.81,231.87,-38.21
1086,1715533729430,0.94,-1.31,0.19000000000000003,252.81000000000003,231.87,-38.21
1087,1715533729440,0.94,-1.31,0.19,252.81,231.87,-38.21
1088,1715533729450,0.8125,-0.905,-0.7775000000000001,190.6875,207.4725,-43.79
1089,1715533729460,0.77,-0.77,-1.1,169.98,199.34,-45.65
1090,1715533729470,0.77,-0.77,-1.1,169.98,199.34,-45.65
1091,1715533729480,0.485,-0.7949999999999999,-1.455,123.87,180.085,-31.555
1092,1715533729490,0.2,-0.82,-1.81,77.76,160.83,-17.46
1093,1715533729500,0.2,-0.82,-1.81,77.76,160.83,-17.46
1094,1715533729510,0.20000000000000004,-0.82,-1.8099999999999998,77.76,160.83,-17.46
1095,1715533729520,0.20000000000000004,-0.82,-1.8099999999999998,77.76,160.83,-17.46
1096,1715533729530,0.20000000000000004,-0.82,-1.8099999999999998,77.76,160.83,-17.46
1097,1715533729540,0.2,-0.82,-1.81,77.76,160.83,-17.46
1098,1715533729550,0.20000000000000004,-0.82,-1.8099999999999998,77.76,160.83,-17.46
1099,1715533729560,0.20000000000000004,-0.82,-1.8099999999999998,77.76,160.83,-17.46
1100,1715533729570,0.20000000000000004,-0.82,-1.8099999999999998,77.76,160.83,-17.46
1101,1715533729580,0.11333333333333334,0.04,-4.03,74.78666666666668,39.370000000000005,89.31333333333332
1102,1715533729590,0.07,0.47,-5.14,73.3,-21.36,142.7
1103,1715533729600,-0.12,0.5,-5.383333333333333,-9.929999999999998,-27.790000000000003,117.02333333333333
1104,1715533729610,-0.5,0.56,-5.87,-176.39,-40.65,65.67
1105,1715533729620,-0.5,0.56,-5.87,-176.39,-40.65,65.67
1106,1715533729630,-0.17333333333333334,0.013333333333333345,-4.8133333333333335,-176.39,-40.65,65.67
1107,1715533729640,0.48,-1.08,-2.7,-402.4,-173.46,91.61
1108,1715533729650,0.48,-1.08,-2.7,-402.4,-173.46,91.61
1109,1715533729660,0.48,-1.08,-2.7000000000000006,-402.3999999999999,-173.46,91.61
1110,1715533729670,0.8,-1.5,-1.7950000000000002,-402.4,-173.46,91.61
1111,1715533729680,1.76,-2.76,0.92,-479.86,-279.54,88.13
1112,1715533729690,1.76,-2.76,0.92,-479.86,-279.54,88.13
1113,1715533729700,1.76,-2.76,0.92,-479.86,-279.54,88.13
1114,1715533729710,1.79,-2.8274999999999997,1.275,-467.82,-277.755,86.57499999999999
1115,1715533729720,1.88,-3.03,2.34,-431.7,-272.4,81.91
1116,1715533729730,1.88,-3.03,2.34,-431.7,-272.4,81.91
1117,1715533729740,1.88,-3.03,2.34,-431.7,-272.4,81.91
1118,1715533729750,1.88,-3.03,2.34,-431.7,-272.4,81.91
1119,1715533729760,1.62,-2.45,2.07,-307.98,-281.68,85.39
1120,1715533729770,1.62,-2.45,2.07,-307.98,-281.68,85.39
1121,1715533729780,1.62,-2.45,2.07,-307.98,-281.68,85.39
1122,1715533729790,1.36,-1.82,1.8,-336.36,-191.1,77.15
1123,1715533729800,1.36,-1.82,1.8,-336.36,-191.1,77.15
1124,1715533729810,1.36,-1.82,1.8,-336.36,-191.1,77.15
1125,1715533729820,1.36,-1.82,1.8,-336.36,-191.1,77.15
1126,1715533729830,1.36,-1.82,1.8,-336.36,-191.1,77.15
1127,1715533729840,1.36,-1.82,1.8,-336.36,-191.1,77.15
1128,1715533729850,1.36,-1.82,1.8,-336.36,-191.1,77.15
1129,1715533729860,1.36,-1.82,1.8,-336.36,-191.1,77.15
1130,1715533729870,1.36,-1.82,1.8,-336.36,-191.1,77.15
1131,1715533729880,1.36,-1.82,1.8,-336.36,-191.1,77.15
1132,1715533729890,1.36,-1.82,1.8,-336.36,-191.1,77.15
1133,1715533729900,1.36,-1.82,1.8,-336.36,-191.1,77.15
1134,1715533729910,0.9333333333333332,-1.3533333333333335,1.8066666666666666,-404.1133333333334,-137.02666666666667,38.25
1135,1715533729920,0.7200000000000001,-1.12,1.8099999999999998,-437.99,-109.99,18.8
1136,1715533729930,0.72,-1.12,1.81,-437.99,-109.99,18.8
1137,1715533729940,0.91,0.02,2.91,-419.13,-87.525,0.8849999999999998
1138,1715533729950,0.91,0.02,2.91,-400.27,-65.06,-17.03
1139,1715533729960,0.91,0.02,2.91,-400.27,-65.06,-17.03
1140,1715533729970,0.91,0.02,2.91,-400.27,-65.06,-17.03
1141,1715533729980,-0.37666666666666665,-0.5666666666666667,3.89,-400.27,-65.06,-17.03
1142,1715533729990,-1.02,-0.86,4.38,-323.49,-36.32,-153.87
1143,1715533730000,-1.02,-0.86,4.38,-323.49,-36.32,-153.87
1144,1715533730010,-1.02,-0.86,4.38,-323.49,-36.32,-153.87
1145,1715533730020,-1.02,-0.86,4.38,-323.49,-36.32,-153.87
1146,1715533730030,-1.02,-0.86,4.38,-323.49,-36.32,-153.87
1147,1715533730040,-1.02,-0.86,4.38,-323.49,-36.32,-153.87
1148,1715533730050,-1.02,-0.86,4.38,-323.49,-36.32,-153.87
1149,1715533730060,-1.02,-0.86,4.38,-323.49,-36.32,-153.87
1150,1715533730070,-1.02,-0.86,4.38,-323.49,-36.32,-153.87
1151,1715533730080,-1.02,-0.86,4.38,-323.49,-36.32,-153.87
1152,1715533730090,-1.02,-0.86,4.38,-323.49,-36.32,-153.87
1153,1715533730100,-0.5425,-1.3575,4.3075,-183.10750000000002,18.0325,-124.11500000000001
1154,1715533730110,0.89,-2.85,4.09,238.04,181.09,-34.85
1155,1715533730120,0.89,-2.85,4.09,238.04,181.09,-34.85
1156,1715533730130,0.7966666666666667,-2.32,3.67,242.77999999999997,177.51,5.413333333333331
1157,1715533730140,0.61,-1.26,2.83,252.26,170.35,85.94
1158,1715533730150,0.61,-1.26,2.83,252.26,170.35,85.94
1159,1715533730160,0.61,-1.26,2.83,252.26,170.35,85.94
1160,1715533730170,0.8600000000000001,-0.81,2.625,295.685,164.79500000000002,101.535
1161,1715533730180,1.11,-0.36000000000000004,2.42,339.11,159.24,117.13
1162,1715533730190,1.11,-0.36,2.42,339.11,159.24,117.13
1163,1715533730200,1.11,-0.36,2.42,339.11,159.24,117.13
1164,1715533730210,1.11,-0.36000000000000004,2.42,339.11,159.24,117.13
1165,1715533730220,1.34,-0.98,1.63,418.1499999999999,211.42999999999998,46.330000000000005
1166,1715533730230,1.34,-0.98,1.63,418.1499999999999,211.42999999999998,46.330000000000005
1167,1715533730240,1.34,-0.98,1.63,418.15,211.43,46.33
1168,1715533730250,1.1933333333333334,-1.6666666666666667,1.2833333333333334,442.84999999999997,185.99666666666667,-27.403333333333332
1169,1715533730260,1.12,-2.01,1.11,455.2,173.28,-64.27
1170,1715533730270,1.12,-2.01,1.11,455.2,173.28,-64.27
1171,1715533730280,1.12,-2.01,1.11,455.2,173.28,-64.27
1172,1715533730290,1.0733333333333335,-2.0666666666666664,1.1600000000000001,412.9633333333333,198.04,-53.56999999999999
1173,1715533730300,0.98,-2.18,1.26,328.49,247.56000000000003,-32.17
1174,1715533730310,0.98,-2.18,1.26,328.49,247.56000000000003,-32.17
1175,1715533730320,0.98,-2.18,1.26,328.49,247.56000000000003,-32.17
1176,1715533730330,1.3,-2.03,1.23,320.19,204.59,-8.48
1177,1715533730340,1.3,-2.03,1.23,320.19,204.59,-8.48
1178,1715533730350,1.3,-2.03,1.23,320.19,204.59,-8.48
1179,1715533730360,1.3,-2.03,1.23,320.19,204.59,-8.48
1180,1715533730370,1.3,-2.03,1.23,320.19,204.59,-8.48
1181,1715533730380,1.3,-2.03,1.23,320.19,204.59,-8.48
1182,1715533730390,1.3,-2.03,1.23,320.19,204.59,-8.48
1183,1715533730400,1.3,-2.03,1.23,320.19,204.59,-8.48
1184,1715533730410,1.3,-2.03,1.23,320.19,204.59,-8.48
1185,1715533730420,1.3,-2.03,1.23,320.19,204.59,-8.48
1186,1715533730430,1.385,-1.8824999999999998,1.0474999999999999,299.865,221.8925,-18.3525
1187,1715533730440,1.3500000000000003,-1.05,-0.55,173.70333333333335,293.3333333333333,-72.06333333333333
1188,1715533730450,1.3500000000000003,-1.05,-0.55,141.11,303.1,-84.11
1189,1715533730460,1.3500000000000003,-1.05,-0.55,141.11,303.1,-84.11
1190,1715533730470,1.3500000000000003,-1.05,-0.55,141.11,303.1,-84.11
1191,1715533730480,0.8433333333333334,-0.35000000000000003,-2.183333333333333,60.01666666666667,319.58,2.076666666666668
1192,1715533730490,0.59,0.0,-3.0,19.47,327.82,45.169999999999995
1193,1715533730500,0.59,0.0,-3.0,19.47,327.82,45.169999999999995
1194,1715533730510,0.59,0.0,-3.0,19.47,327.82,45.169999999999995
1195,1715533730520,0.46499999999999997,0.415,-3.84,30.425,197.63,13.125
1196,1715533730530,0.34,0.83,-4.68,41.38,67.44,-18.92
1197,1715533730540,0.34,0.83,-4.68,41.38,67.44,-18.92
1198,1715533730550,0.34,0.83,-4.68,41.38,67.44,-18.92
1199,1715533730560,0.34,0.83,-4.68,41.38,67.44,-18.92
1200,1715533730570,0.34,0.83,-4.68,41.38,67.44,-18.92
1201,1715533730580,0.34,0.83,-4.68,41.38,67.44,-18.92
1202,1715533730590,0.34,0.83,-4.68,41.38,67.44,-18.92
1203,1715533730600,0.34,0.83,-4.68,41.38,67.44,-18.92
1204,1715533730610,0.34,0.83,-4.68,41.38,67.44,-18.92
1205,1715533730620,0.34,0.83,-4.68,41.38,67.44,-18.92
1206,1715533730630,0.61,-0.13,-3.58,-203.74,-170.9,97.23
1207,1715533730640,1.85,-1.26,-0.93,-377.81,-227.29,112.37
1208,1715533730650,1.85,-1.26,-0.93,-377.81,-227.29,112.37
1209,1715533730660,1.85,-1.26,-0.93,-377.81,-227.29,112.37
1210,1715533730670,1.8500000000000003,-1.26,-0.93,-377.81,-227.29,112.37
1211,1715533730680,1.8875,-2.0925000000000002,1.005,-385.775,-281.5825,29.9675
1212,1715533730690,1.8999999999999997,-2.37,1.6499999999999997,-388.43,-299.68,2.5
1213,1715533730700,1.8999999999999997,-2.37,1.6499999999999997,-388.43,-299.68,2.5
1214,1715533730710,1.6499999999999997,-2.3666666666666667,1.8099999999999998,-363.4666666666667,-277.5266666666667,23.11
1215,1715533730720,1.15,-2.36,2.13,-313.54,-233.22,64.33
1216,1715533730730,1.15,-2.36,2.13,-313.54,-233.22,64.33
1217,1715533730740,1.15,-2.36,2.13,-313.54,-233.22,64.33
1218,1715533730750,1.1349999999999998,-2.0375,2.085,-303.4225,-201.405,75.685
1219,1715533730760,1.13,-1.93,2.07,-300.05,-190.80000000000004,79.47
1220,1715533730770,1.13,-1.93,2.07,-300.05,-190.80000000000004,79.47
1221,1715533730780,1.13,-1.93,2.07,-300.05,-190.80000000000004,79.47
1222,1715533730790,1.13,-1.93,2.07,-300.05,-190.8,79.47
1223,1715533730800,0.9566666666666667,-1.6366666666666667,1.7433333333333334,-272.91,-163.98,68.44333333333333
1224,1715533730810,0.87,-1.49,1.58,-259.34,-150.57,62.93
1225,1715533730820,0.87,-1.49,1.58,-259.34,-150.57,62.93
1226,1715533730830,0.73,-1.39,1.22,-314.58,-124.15000000000002,58.65
1227,1715533730840,0.73,-1.39,1.22,-314.58,-124.15000000000002,58.65
1228,1715533730850,0.73,-1.39,1.22,-314.58,-124.15,58.65
1229,1715533730860,0.71,-1.2633333333333334,1.2633333333333334,-339.6433333333333,-109.62333333333333,57.22666666666667
1230,1715533730870,0.67,-1.01,1.3500000000000003,-389.77,-80.57,54.38
1231,1715533730880,0.67,-1.01,1.3500000000000003,-389.77,-80.57,54.38
1232,1715533730890,0.67,-1.01,1.3500000000000003,-389.77,-80.57,54.38
1233,1715533730900,0.67,-1.01,1.3500000000000003,-389.77,-80.57,54.38
1234,1715533730910,0.67,-1.01,1.3500000000000003,-389.77,-80.57,54.38
1235,1715533730920,0.67,-1.01,1.3500000000000003,-389.77,-80.57,54.38
1236,1715533730930,0.67,-1.01,1.3500000000000003,-389.77,-80.57,54.38
1237,1715533730940,0.67,-1.01,1.35,-389.77,-80.57,54.38
1238,1715533730950,0.67,-1.01,1.3500000000000003,-389.77,-80.57,54.38
1239,1715533730960,0.3025,-0.59,2.3625000000000003,-384.28,-60.379999999999995,-77.59
1240,1715533730970,0.18,-0.45,2.7,-382.45,-53.65,-121.58
1241,1715533730980,0.05333333333333332,-0.38999999999999996,3.5433333333333334,-362.98,-36.92666666666667,-98.22333333333334
1242,1715533730990,-0.2,-0.27,5.23,-324.04,-3.48,-51.51
1243,1715533731000,-0.20000000000000004,-0.27,5.23,-324.04,-3.48,-51.51
1244,1715533731010,-0.2,-0.27,5.23,-324.04,-3.48,-51.51
1245,1715533731020,1.79,-0.84,8.0,-140.26,-55.6,15.32
1246,1715533731030,1.79,-0.84,8.0,-140.26,-55.6,15.32
1247,1715533731040,1.79,-0.84,8.0,-140.26,-55.6,15.32
1248,1715533731050,1.79,-0.84,8.0,-140.26,-55.6,15.32
1249,1715533731060,1.67,-1.82,6.81,152.71,77.45,-169.43
1250,1715533731070,1.67,-1.82,6.81,152.71,77.45,-169.43
1251,1715533731080,1.67,-1.82,6.81,152.71,77.45,-169.43
1252,1715533731090,1.67,-1.82,6.81,152.71,77.45,-169.43
1253,1715533731100,1.67,-1.82,6.81,152.71,77.45,-169.43
1254,1715533731110,1.67,-1.82,6.81,152.71,77.45,-169.43
1255,1715533731120,1.67,-1.82,6.81,152.71,77.45,-169.43
1256,1715533731130,1.67,-1.82,6.81,152.71,77.45,-169.43
1257,1715533731140,1.67,-1.82,6.81,152.71,77.45,-169.43
1258,1715533731150,1.005,-1.2,3.795,278.4575,138.075,-63.34
1259,1715533731160,0.8000000000000002,-0.67,2.37,333.86,156.98,-2.08
1260,1715533731170,0.9500000000000001,-0.7000000000000001,2.2,340.37,176.67333333333332,-5.293333333333334
1261,1715533731180,1.25,-0.76,1.86,353.39,216.06,-11.72
1262,1715533731190,1.25,-0.76,1.86,353.39,216.06,-11.72
1263,1715533731200,1.25,-0.76,1.86,353.39,216.06,-11.72
1264,1715533731210,1.2266666666666666,-1.0599999999999998,1.6166666666666665,353.39000000000004,216.06000000000003,-11.72
1265,1715533731220,1.18,-1.66,1.13,410.83,226.62,-98.08
1266,1715533731230,1.18,-1.66,1.13,410.83,226.62,-98.08
1267,1715533731240,1.18,-1.66,1.13,410.83,226.62,-98.08
1268,1715533731250,1.09,-1.8775,1.1225,391.41999999999996,213.9,-110.7175
1269,1715533731260,1.06,-1.95,1.12,384.95,209.66,-114.93000000000002
1270,1715533731270,1.06,-1.95,1.12,384.95,209.66,-114.93
1271,1715533731280,1.06,-1.95,1.12,384.95,209.66,-114.93
1272,1715533731290,1.0150000000000001,-1.905,1.0550000000000002,342.53,224.825,-90.06
1273,1715533731300,0.9700000000000001,-1.86,0.9899999999999999,300.11,239.99,-65.19
1274,1715533731310,0.97,-1.86,0.99,300.11,239.99,-65.19
1275,1715533731320,0.98,-1.8099999999999998,1.0233333333333334,300.11,239.99,-65.19
1276,1715533731330,1.0,-1.71,1.09,255.92,218.81,-30.76
1277,1715533731340,1.0,-1.71,1.09,255.92,218.81,-30.76
1278,1715533731350,1.0,-1.71,1.09,255.92,218.81,-30.76
1279,1715533731360,1.0,-1.5225,0.9175,253.54,209.67000000000002,-21.345000000000002
1280,1715533731370,1.0,-1.46,0.86,246.4,182.25,6.900000000000001
1281,1715533731380,1.0,-1.46,0.86,246.4,182.25,6.900000000000001
1282,1715533731390,1.0,-1.46,0.86,246.4,182.25,6.900000000000001
1283,1715533731400,1.0,-1.46,0.86,246.4,182.25,6.9
1284,1715533731410,1.0,-1.46,0.86,246.4,182.25,6.900000000000001
1285,1715533731420,1.0,-1.46,0.86,246.4,182.25,6.900000000000001
1286,1715533731430,1.0,-1.46,0.86,246.4,182.25,6.9
1287,1715533731440,1.0,-1.46,0.86,246.4,182.25,6.900000000000001
1288,1715533731450,1.0,-1.46,0.86,246.4,182.25,6.900000000000001
1289,1715533731460,1.0,-1.46,0.86,246.4,182.25,6.900000000000001
1290,1715533731470,1.0,-1.46,0.86,246.4,182.25,6.9
1291,1715533731480,1.0,-1.46,0.86,246.4,182.25,6.900000000000001
1292,1715533731490,0.61,0.02,-2.62,121.40000000000002,73.67,29.850000000000005
1293,1715533731500,0.61,0.02,-2.62,121.40000000000002,73.67,29.850000000000005
1294,1715533731510,0.395,0.0675,-3.1825,121.4,73.67,29.85
1295,1715533731520,-0.25,0.21,-4.87,6.71,87.59,24.54
1296,1715533731530,-0.25,0.21,-4.87,6.71,87.59,24.54
1297,1715533731540,-0.25,0.21,-4.87,6.71,87.59,24.54
1298,1715533731550,-0.3025,0.3025,-4.9625,-8.015,61.085,28.8275
1299,1715533731560,-0.46,0.58,-5.24,-52.19,-18.43,41.69
1300,1715533731570,-0.46,0.58,-5.24,-52.19,-18.43,41.69
1301,1715533731580,-0.46,0.58,-5.24,-52.19,-18.43,41.69
1302,1715533731590,-0.46,0.58,-5.24,-52.19,-18.43,41.69
1303,1715533731600,-0.46,0.58,-5.24,-52.19,-18.43,41.69
1304,1715533731610,-0.46,0.58,-5.24,-52.19,-18.43,41.69
1305,1715533731620,-0.46,0.58,-5.24,-52.19,-18.43,41.69
1306,1715533731630,-0.46,0.58,-5.24,-52.19,-18.43,41.69
1307,1715533731640,-0.46,0.58,-5.24,-52.19,-18.43,41.69
1308,1715533731650,-0.46,0.58,-5.24,-52.19,-18.43,41.69
1309,1715533731660,-0.46,0.58,-5.24,-52.19,-18.43,41.69
1310,1715533731670,-0.46,0.58,-5.24,-52.19,-18.43,41.69
1311,1715533731680,1.8,-2.62,1.42,-451.95000000000005,-217.0975,155.135
1312,1715533731690,1.8,-2.62,1.42,-464.6,-223.75,149.78
1313,1715533731700,1.8,-2.62,1.42,-464.6000000000001,-223.75,149.78
1314,1715533731710,1.7850000000000001,-2.625,2.085,-453.21500000000003,-211.485,136.93
1315,1715533731720,1.77,-2.63,2.75,-441.83,-199.22,124.08
1316,1715533731730,1.7700000000000002,-2.63,2.75,-441.83,-199.22,124.08
1317,1715533731740,1.7700000000000002,-2.63,2.75,-441.83,-199.22,124.08
1318,1715533731750,1.4566666666666668,-2.1233333333333335,2.33,-345.68333333333334,-181.44000000000003,111.42666666666666
1319,1715533731760,1.3,-1.87,2.12,-297.61,-172.55000000000004,105.09999999999998
1320,1715533731770,1.3,-1.87,2.12,-297.61,-172.55000000000004,105.09999999999998
1321,1715533731780,1.3,-1.87,2.12,-297.61,-172.55,105.1
1322,1715533731790,1.05,-1.47,1.6499999999999997,-284.91,-144.78,61.52
1323,1715533731800,1.05,-1.47,1.6499999999999997,-284.91,-144.78,61.52
1324,1715533731810,1.05,-1.47,1.65,-284.91,-144.78,61.52
1325,1715533731820,0.93,-1.37,1.4633333333333336,-354.2033333333334,-71.41333333333334,45.81333333333333
1326,1715533731830,0.87,-1.32,1.37,-388.8500000000001,-34.73,37.96
1327,1715533731840,0.87,-1.32,1.37,-388.8500000000001,-34.73,37.96
1328,1715533731850,0.87,-1.32,1.37,-388.85,-34.73,37.96
1329,1715533731860,0.845,-1.09,1.4,-388.85,-34.73,37.96
1330,1715533731870,0.82,-0.86,1.43,-474.98,35.64,18.01
1331,1715533731880,0.82,-0.86,1.43,-474.98,35.64,18.01
1332,1715533731890,0.82,-0.86,1.43,-474.98,35.64,18.01
1333,1715533731900,0.82,-0.86,1.43,-474.98,35.64,18.01
1334,1715533731910,0.6,-0.39,1.6,-366.64,-43.09,-80.26
1335,1715533731920,0.6,-0.38999999999999996,1.6000000000000003,-366.64000000000004,-43.09,-80.26
1336,1715533731930,0.6,-0.38999999999999996,1.6000000000000003,-366.64000000000004,-43.09,-80.26
1337,1715533731940,0.6,-0.38999999999999996,1.6000000000000003,-366.64000000000004,-43.09,-80.26
1338,1715533731950,0.6,-0.38999999999999996,1.6000000000000003,-366.64000000000004,-43.09,-80.26
1339,1715533731960,0.6,-0.39,1.6,-366.64,-43.09,-80.26
1340,1715533731970,0.6,-0.39,1.6,-366.64,-43.09,-80.26
1341,1715533731980,0.6,-0.38999999999999996,1.6000000000000003,-366.64000000000004,-43.09,-80.26
1342,1715533731990,0.6,-0.38999999999999996,1.6000000000000003,-366.64000000000004,-43.09,-80.26
1343,1715533732000,0.6,-0.38999999999999996,1.6000000000000003,-366.64000000000004,-43.09,-80.26
1344,1715533732010,0.7275,-0.725,5.2125,-199.095,-69.1075,-37.46
1345,1715533732020,1.53,-1.35,6.79,117.74,-16.3,-102.54
1346,1715533732030,1.53,-1.3500000000000003,6.79,117.74,-16.3,-102.54
1347,1715533732040,1.53,-1.3500000000000003,6.79,117.74,-16.3,-102.54
1348,1715533732050,1.5233333333333334,-1.5833333333333333,6.266666666666667,135.60333333333332,51.28666666666667,-96.88333333333333
1349,1715533732060,1.51,-2.05,5.22,171.33,186.46,-85.57
1350,1715533732070,1.51,-2.05,5.22,171.33,186.46,-85.57
1351,1715533732080,1.51,-2.05,5.22,171.33,186.46,-85.57
1352,1715533732090,1.2233333333333334,-1.5899999999999999,4.06,174.74666666666667,195.45333333333335,-67.66666666666667
1353,1715533732100,1.08,-1.36,3.48,181.58,213.44,-31.86
1354,1715533732110,1.08,-1.36,3.48,181.58,213.44,-31.86
1355,1715533732120,1.08,-1.36,3.48,181.58,213.43999999999997,-31.86
1356,1715533732130,1.08,-1.36,3.48,181.58,213.44,-31.86
1357,1715533732140,1.08,-1.36,3.48,181.58,213.44,-31.86
1358,1715533732150,1.08,-1.36,3.48,181.58,213.43999999999997,-31.86
1359,1715533732160,1.08,-1.36,3.48,181.58,213.44,-31.86
1360,1715533732170,1.08,-1.36,3.48,181.58,213.44,-31.86
1361,1715533732180,1.08,-1.36,3.48,181.58,213.43999999999997,-31.86
1362,1715533732190,1.08,-1.36,3.48,181.58,213.44,-31.86
1363,1715533732200,1.1033333333333333,-1.0266666666666666,2.9766666666666666,230.3066666666667,227.03,-6.43
1364,1715533732210,1.2449999999999999,-0.5,1.895,354.91999999999996,241.6975,23.6025
1365,1715533732220,1.53,-0.92,1.67,436.4,204.16,-38.88
1366,1715533732230,1.53,-0.92,1.67,436.3999999999999,204.16,-38.88
1367,1715533732240,1.53,-0.92,1.67,436.3999999999999,204.16,-38.88
1368,1715533732250,1.38,-1.93,1.54,372.35749999999996,200.8225,-88.1325
1369,1715533732260,1.38,-1.93,1.54,351.01,199.71,-104.55
1370,1715533732270,1.38,-1.93,1.54,351.01,199.71,-104.55
1371,1715533732280,1.305,-2.23,1.7349999999999999,350.645,189.425,-92.03999999999999
1372,1715533732290,1.23,-2.53,1.93,350.28,179.14,-79.53
1373,1715533732300,1.23,-2.53,1.93,350.28,179.14,-79.53
1374,1715533732310,1.23,-2.53,1.93,350.28,179.14,-79.53
1375,1715533732320,1.4033333333333333,-2.77,1.51,350.28,179.14,-79.53
1376,1715533732330,1.49,-2.89,1.3,381.6499999999999,171.63,-26.0
1377,1715533732340,1.49,-2.89,1.3,381.6499999999999,171.63,-26.0
1378,1715533732350,1.49,-2.89,1.3,381.6499999999999,171.63,-26.0
1379,1715533732360,1.42,-2.6933333333333334,1.2866666666666668,328.3666666666666,219.29999999999998,-13.123333333333333
1380,1715533732370,1.28,-2.3,1.26,221.80000000000004,314.64,12.63
1381,1715533732380,1.28,-2.3,1.26,221.80000000000004,314.64,12.63
1382,1715533732390,1.28,-2.3,1.26,221.8,314.64,12.63
1383,1715533732400,1.23,-1.95,-1.16,137.20666666666668,402.32666666666665,40.01666666666667
1384,1715533732410,1.23,-1.95,-1.16,94.91000000000001,446.17,53.71
1385,1715533732420,1.23,-1.95,-1.16,94.91000000000001,446.17,53.71
1386,1715533732430,1.23,-1.95,-1.16,94.91,446.17,53.71
1387,1715533732440,1.79,-0.68,-2.24,41.56,343.87000000000006,45.47
1388,1715533732450,1.79,-0.68,-2.24,41.56,343.87,45.47
1389,1715533732460,1.79,-0.68,-2.24,41.56,343.87,45.47
1390,1715533732470,1.79,-0.68,-2.24,41.56,343.87,45.47
1391,1715533732480,1.79,-0.68,-2.24,41.56,343.87,45.47
1392,1715533732490,1.79,-0.68,-2.24,41.56,343.87,45.47
1393,1715533732500,1.79,-0.68,-2.24,41.56,343.87000000000006,45.47
1394,1715533732510,1.79,-0.68,-2.24,41.56,343.87000000000006,45.47
1395,1715533732520,1.79,-0.68,-2.24,41.56,343.87,45.47
1396,1715533732530,1.1866666666666668,-0.09000000000000001,-2.8366666666666673,9.803333333333335,243.87333333333333,7.566666666666667
1397,1715533732540,-0.02,1.09,-4.03,-53.71,43.88,-68.24
1398,1715533732550,0.25,1.52,-3.5,-52.19,-136.11,57.74
1399,1715533732560,0.25,1.5200000000000002,-3.5,-52.19,-136.11,57.74
1400,1715533732570,0.25,1.5200000000000002,-3.5,-52.19,-136.11,57.74
1401,1715533732580,0.9833333333333334,1.16,-3.1333333333333333,-96.08999999999999,-213.54333333333332,95.33999999999999
1402,1715533732590,1.35,0.98,-2.95,-118.04,-252.26,114.14
1403,1715533732600,1.35,0.98,-2.95,-118.04,-252.26,114.14
1404,1715533732610,1.3500000000000003,0.98,-2.9500000000000006,-118.04,-252.26,114.14
1405,1715533732620,1.4800000000000002,0.3833333333333333,-2.23,-165.38333333333333,-251.76999999999998,108.21666666666665
1406,1715533732630,1.74,-0.81,-0.79,-260.07,-250.79,96.37
1407,1715533732640,1.74,-0.81,-0.79,-260.07,-250.79,96.37
1408,1715533732650,1.74,-0.81,-0.79,-260.07,-250.79,96.37
1409,1715533732660,1.74,-0.81,-0.79,-260.07,-250.79,96.37
1410,1715533732670,1.74,-0.81,-0.79,-260.07,-250.79,96.37
1411,1715533732680,1.74,-0.81,-0.79,-260.07,-250.79,96.37
1412,1715533732690,1.74,-0.81,-0.79,-260.07,-250.79,96.37
1413,1715533732700,1.74,-0.81,-0.79,-260.07,-250.79,96.37
1414,1715533732710,1.74,-0.81,-0.79,-260.07,-250.79,96.37
1415,1715533732720,1.74,-0.81,-0.79,-260.07,-250.79,96.37
1416,1715533732730,1.7,-2.56,2.23,-408.63,-254.27,-58.17
1417,1715533732740,1.5099999999999998,-2.6133333333333333,2.186666666666667,-403.21999999999997,-239.17333333333332,-54.36333333333334
1418,1715533732750,1.13,-2.72,2.1,-392.4,-208.98,-46.75
1419,1715533732760,1.13,-2.72,2.1,-392.3999999999999,-208.98,-46.75
1420,1715533732770,1.0699999999999998,-2.435,2.065,-382.085,-179.29,-39.365
1421,1715533732780,1.01,-2.15,2.03,-371.77,-149.6,-31.98
1422,1715533732790,1.01,-2.15,2.03,-371.77,-149.6,-31.98
1423,1715533732800,1.01,-2.15,2.03,-371.77,-149.6,-31.98
1424,1715533732810,0.6966666666666667,-1.89,1.4966666666666668,-384.1366666666666,-126.20333333333333,-38.47
1425,1715533732820,0.54,-1.76,1.23,-408.87000000000006,-79.41,-51.45000000000001
1426,1715533732830,0.54,-1.76,1.23,-408.87,-79.41,-51.45
1427,1715533732840,0.54,-1.76,1.23,-408.87000000000006,-79.41,-51.45000000000001
1428,1715533732850,0.52,-1.42,1.5,-315.61,-195.62,-69.64
1429,1715533732860,0.52,-1.42,1.5,-315.61,-195.62,-69.64
1430,1715533732870,0.52,-1.42,1.5,-315.61,-195.62,-69.64
1431,1715533732880,0.52,-1.42,1.5,-315.61,-195.62,-69.64
1432,1715533732890,0.35333333333333333,-0.9866666666666667,1.6733333333333331,-366.31,-125.38666666666666,-62.15333333333333
1433,1715533732900,0.27,-0.77,1.76,-391.66,-90.27,-58.41
1434,1715533732910,0.27,-0.77,1.76,-391.66,-90.27,-58.41
1435,1715533732920,0.27,-0.77,1.76,-391.66,-90.27,-58.41
1436,1715533732930,0.31,-0.2966666666666667,3.26,-335.2266666666667,-136.49666666666667,-118.38999999999999
1437,1715533732940,0.33,-0.06,4.01,-307.01,-159.61,-148.38
1438,1715533732950,0.33,-0.06,4.01,-307.01,-159.61,-148.38
1439,1715533732960,0.010000000000000009,-0.2866666666666667,5.489999999999999,-287.66,-103.82333333333334,-104.43333333333334
1440,1715533732970,-0.15,-0.4,6.23,-248.96,7.75,-16.54
1441,1715533732980,-0.15,-0.4000000000000001,6.23,-248.96,7.75,-16.54
1442,1715533732990,-0.15,-0.4000000000000001,6.23,-248.96,7.75,-16.54
1443,1715533733000,-0.15,-0.4,6.23,-248.96,7.75,-16.54
1444,1715533733010,-0.15,-0.4,6.23,-248.96,7.75,-16.54
1445,1715533733020,-0.15,-0.4000000000000001,6.23,-248.96,7.75,-16.54
1446,1715533733030,-0.15,-0.4,6.23,-248.96,7.75,-16.54
1447,1715533733040,-0.15,-0.4000000000000001,6.23,-248.96,7.75,-16.54
1448,1715533733050,-0.15,-0.4,6.23,-248.96,7.75,-16.54
1449,1715533733060,0.51,-2.1999999999999997,5.0975,125.125,91.9825,-34.39
1450,1715533733070,0.73,-2.7999999999999994,4.72,249.82000000000002,120.06,-40.34
1451,1715533733080,0.95,-2.07,4.02,234.77499999999998,149.51,6.84
1452,1715533733090,0.95,-2.07,4.02,219.73,178.96,54.02
1453,1715533733100,0.9499999999999998,-2.07,4.02,219.73,178.96,54.02
1454,1715533733110,0.95,-2.07,4.02,219.73,178.96,54.02
1455,1715533733120,1.04,-0.84,2.76,285.96999999999997,189.74,77.53333333333335
1456,1715533733130,1.04,-0.84,2.76,319.09,195.13,89.29
1457,1715533733140,1.04,-0.84,2.76,319.09,195.13,89.29
1458,1715533733150,1.0725,-0.8674999999999999,2.54,319.09,195.13,89.29
1459,1715533733160,1.17,-0.95,1.88,354.1525,213.025,58.667500000000004
1460,1715533733170,1.17,-0.95,1.88,365.84,218.99,48.46
1461,1715533733180,1.17,-0.9499999999999998,1.88,365.84,218.99,48.46
1462,1715533733190,1.17,-0.9499999999999998,1.88,365.84,218.99,48.46
1463,1715533733200,1.17,-0.95,1.88,365.84,218.99,48.46
1464,1715533733210,1.17,-0.9499999999999998,1.88,365.84,218.99,48.46
1465,1715533733220,1.17,-0.95,1.88,365.84,218.99,48.46
1466,1715533733230,1.17,-0.9499999999999998,1.88,365.84,218.99,48.46
1467,1715533733240,1.17,-0.95,1.88,365.84,218.99,48.46
1468,1715533733250,1.2,-1.8199999999999998,1.1525,386.9,184.7075,-7.7075
1469,1715533733260,1.21,-2.11,0.91,393.92,173.28,-26.429999999999996
1470,1715533733270,1.2325,-1.855,1.105,380.825,157.62,-33.614999999999995
1471,1715533733280,1.24,-1.7700000000000002,1.17,376.46,152.4,-36.01
1472,1715533733290,1.24,-1.7700000000000002,1.17,376.46,152.4,-36.01
1473,1715533733300,1.24,-1.7700000000000002,1.17,376.46,152.4,-36.01
1474,1715533733310,1.1,-1.81,0.96,348.45,152.04,-68.85
1475,1715533733320,1.1,-1.81,0.96,348.45,152.04,-68.85
1476,1715533733330,1.1,-1.81,0.96,348.45,152.04,-68.85
1477,1715533733340,1.2266666666666668,-1.6300000000000001,0.9166666666666666,348.45,152.04,-68.85
1478,1715533733350,1.48,-1.27,0.83,254.52,204.47,-44.43
1479,1715533733360,1.48,-1.27,0.83,254.52,204.47,-44.43
1480,1715533733370,1.4799999999999998,-1.27,0.83,254.52,204.47,-44.43
1481,1715533733380,1.48,-1.27,0.83,254.52,204.47,-44.43
1482,1715533733390,1.5133333333333334,-1.1166666666666667,0.3033333333333333,182.00666666666666,277.0566666666667,-92.24333333333334
1483,1715533733400,1.53,-1.04,0.04,145.75,313.35,-116.15000000000002
1484,1715533733410,1.53,-1.04,0.04,145.75,313.35,-116.15
1485,1715533733420,0.9700000000000001,-0.9666666666666668,-0.7333333333333334,136.39333333333335,289.99666666666667,-103.29333333333334
1486,1715533733430,0.69,-0.93,-1.12,117.68,243.29,-77.58
1487,1715533733440,0.69,-0.93,-1.12,117.68,243.29,-77.58
1488,1715533733450,0.7133333333333333,-0.71,-1.2000000000000002,108.05666666666667,221.98666666666668,-80.89333333333333
1489,1715533733460,0.7600000000000001,-0.27,-1.36,88.81,179.38,-87.52
1490,1715533733470,0.76,-0.27,-1.36,88.81,179.38,-87.52
1491,1715533733480,0.7600000000000001,-0.27,-1.36,88.81,179.38,-87.52
1492,1715533733490,0.43333333333333335,-0.05666666666666667,-2.486666666666667,88.81,179.38,-87.52
1493,1715533733500,0.27,0.05,-3.05,88.81,179.38,-87.52
1494,1715533733510,0.27,0.05000000000000001,-3.0499999999999994,88.81,179.38,-87.52
1495,1715533733520,0.27,0.05,-3.05,88.81,179.38,-87.52
1496,1715533733530,0.27,0.05000000000000001,-3.0499999999999994,88.81,179.38,-87.52
1497,1715533733540,0.27,0.05000000000000001,-3.0499999999999994,88.81,179.38,-87.52
1498,1715533733550,0.27,0.05000000000000001,-3.0499999999999994,88.81,179.38,-87.52
1499,1715533733560,0.27,0.05000000000000001,-3.0499999999999994,88.81,179.38,-87.52
1500,1715533733570,0.27,0.05000000000000001,-3.0499999999999994,88.81,179.38,-87.52
1501,1715533733580,-0.07666666666666666,0.09666666666666668,-3.5499999999999994,37.193333333333335,108.72333333333331,-39.24333333333333
1502,1715533733590,-0.77,0.19,-4.55,-66.04,-32.59,57.31
1503,1715533733600,-0.77,0.19000000000000003,-4.55,-66.04,-32.59,57.31
1504,1715533733610,0.84,-0.26,-2.04,-227.05000000000004,-70.56,143.68
1505,1715533733620,0.8400000000000001,-0.26,-2.04,-227.05,-70.56,143.68
1506,1715533733630,0.84,-0.26,-2.04,-227.05,-70.56,143.68
1507,1715533733640,0.8400000000000001,-0.26,-2.04,-227.05,-70.56,143.68
1508,1715533733650,1.03,-1.03,-0.22000000000000003,-321.59,-126.1,101.26
1509,1715533733660,1.03,-1.03,-0.22,-321.59,-126.09999999999998,101.26
1510,1715533733670,1.03,-1.03,-0.22,-321.59,-126.09999999999998,101.26
1511,1715533733680,1.234,-1.33,0.5959999999999999,-361.142,-175.648,105.91000000000001
1512,1715533733690,1.37,-1.53,1.14,-387.51,-208.68,109.01000000000002
1513,1715533733700,1.37,-1.53,1.14,-387.51,-208.67999999999998,109.01
1514,1715533733710,1.37,-1.53,1.14,-387.51,-208.68,109.01000000000002
1515,1715533733720,1.37,-1.53,1.14,-387.51,-208.67999999999998,109.01
1516,1715533733730,1.37,-1.53,1.14,-387.51,-208.68,109.01000000000002
1517,1715533733740,1.37,-1.53,1.14,-387.51,-208.68,109.01000000000002
1518,1715533733750,1.37,-1.53,1.14,-387.51,-208.68,109.01000000000002
1519,1715533733760,1.37,-1.53,1.14,-387.51,-208.68,109.01000000000002
1520,1715533733770,1.3940000000000001,-1.6620000000000001,1.2799999999999998,-371.78999999999996,-229.016,70.022
1521,1715533733780,1.43,-1.86,1.49,-348.21,-259.52,11.54
1522,1715533733790,1.43,-1.86,1.458,-348.21,-259.52,11.54
1523,1715533733800,1.43,-1.86,1.33,-429.14,-227.48,-15.01
1524,1715533733810,1.43,-1.86,1.33,-429.14,-227.47999999999996,-15.01
1525,1715533733820,1.43,-1.86,1.33,-429.14,-227.48,-15.01
1526,1715533733830,1.43,-1.86,1.33,-429.14,-227.47999999999996,-15.01
1527,1715533733840,1.395,-1.85,1.1800000000000002,-441.805,-223.725,-38.845
1528,1715533733850,1.36,-1.84,1.03,-454.47,-219.97,-62.68
1529,1715533733860,1.36,-1.84,1.03,-454.47,-219.97,-62.68
1530,1715533733870,1.36,-1.84,1.03,-454.47,-219.97,-62.68
1531,1715533733880,1.59,-2.06,1.84,-485.66,-201.17,-131.77
1532,1715533733890,1.59,-2.06,1.84,-485.66,-201.17,-131.77
1533,1715533733900,1.59,-2.06,1.84,-485.66,-201.17,-131.77
1534,1715533733910,1.26,-2.0066666666666664,1.86,-461.4466666666667,-195.57666666666668,-126.30000000000001
1535,1715533733920,0.6,-1.9,1.9,-413.02,-184.39,-115.36
1536,1715533733930,0.6,-1.9,1.9,-413.02,-184.39,-115.36
1537,1715533733940,0.6,-1.8999999999999997,1.8999999999999997,-413.02,-184.39,-115.36
1538,1715533733950,0.73,-1.4799999999999998,2.73,-403.1933333333333,-171.91666666666666,-125.71333333333332
1539,1715533733960,0.99,-0.64,4.39,-383.54,-146.97,-146.42
1540,1715533733970,0.9899999999999999,-0.64,4.39,-383.54,-146.97,-146.42
1541,1715533733980,0.9899999999999999,-0.64,4.39,-383.54,-146.97,-146.42
1542,1715533733990,-0.53,-0.93,6.43,-220.46,-83.92,-103.39
1543,1715533734000,-0.53,-0.93,6.43,-220.46,-83.92,-103.39
1544,1715533734010,-0.53,-0.93,6.43,-220.46,-83.92,-103.39
1545,1715533734020,-0.53,-0.93,6.43,-220.46,-83.92,-103.39
1546,1715533734030,-0.53,-0.93,6.43,-220.46,-83.92,-103.39
1547,1715533734040,-0.53,-0.93,6.43,-220.46,-83.92,-103.39
1548,1715533734050,-0.53,-0.93,6.43,-220.46,-83.92,-103.39
1549,1715533734060,-0.53,-0.93,6.43,-220.46,-83.92,-103.39
1550,1715533734070,-0.53,-0.93,6.43,-220.46,-83.92,-103.39
1551,1715533734080,-0.53,-0.93,6.43,-220.46,-83.92,-103.39
1552,1715533734090,-0.53,-0.93,6.43,-220.46,-83.92,-103.39
1553,1715533734100,-0.0766666666666667,-1.2233333333333334,5.353333333333333,-54.38333333333335,15.096666666666664,-31.126666666666665
1554,1715533734110,0.83,-1.8099999999999998,3.2000000000000006,277.77,213.13,113.40000000000002
1555,1715533734120,0.83,-1.8099999999999998,3.2000000000000006,277.77,213.13,113.40000000000002
1556,1715533734130,0.83,-1.81,3.2,277.77,213.13,113.4
1557,1715533734140,1.1700000000000002,-1.2033333333333334,2.7866666666666666,310.5233333333333,200.07000000000002,149.70000000000002
1558,1715533734150,1.34,-0.9,2.58,326.9,193.54,167.85
1559,1715533734160,1.34,-0.9,2.58,326.9,193.54,167.85
1560,1715533734170,1.34,-0.9,2.58,326.9,193.54,167.85
1561,1715533734180,1.5266666666666666,-1.0799999999999998,1.9866666666666666,398.55999999999995,218.52666666666667,99.77
1562,1715533734190,1.6200000000000003,-1.17,1.69,434.39,231.02000000000004,65.73
1563,1715533734200,1.62,-1.17,1.6900000000000002,434.39000000000004,231.02,65.73
1564,1715533734210,1.6200000000000003,-1.17,1.69,434.39,231.02000000000004,65.73
1565,1715533734220,1.6200000000000003,-1.17,1.69,434.39,231.02000000000004,65.73
1566,1715533734230,1.62,-1.17,1.6900000000000002,434.39000000000004,231.02,65.73
1567,1715533734240,1.62,-1.17,1.69,434.39,231.02,65.73
1568,1715533734250,1.62,-1.17,1.69,434.39,231.02,65.73
1569,1715533734260,1.62,-1.17,1.69,434.39,231.02,65.73
1570,1715533734270,1.62,-1.17,1.6900000000000002,434.39000000000004,231.02,65.73
1571,1715533734280,1.62,-1.17,1.69,434.39,231.02,65.73
1572,1715533734290,1.62,-1.17,1.6900000000000002,434.39000000000004,231.02,65.73
1573,1715533734300,1.36,-1.67,1.3699999999999999,365.7033333333334,214.78666666666666,35.29666666666667
1574,1715533734310,1.23,-1.92,1.21,331.36,206.67,20.08
1575,1715533734320,1.23,-1.92,1.21,331.36,206.67,20.08
1576,1715533734330,1.28,-1.8599999999999999,1.08,303.68,222.69,29.085
1577,1715533734340,1.33,-1.8,0.9499999999999998,276.0,238.71,38.09
1578,1715533734350,1.33,-1.8,0.95,276.0,238.71,38.09
1579,1715533734360,1.33,-1.8,0.95,276.0,238.71,38.09
1580,1715533734370,1.3500000000000003,-1.3533333333333333,0.7966666666666665,259.32,195.33666666666667,46.59
1581,1715533734380,1.36,-1.13,0.72,250.98,173.65,50.84
1582,1715533734390,1.36,-1.13,0.7200000000000001,250.98,173.65,50.84
1583,1715533734400,1.36,-1.13,0.7200000000000001,250.98,173.65,50.84
1584,1715533734410,1.38,-1.025,0.345,219.32999999999998,196.47500000000002,28.23
1585,1715533734420,1.3999999999999997,-0.92,-0.03,187.67999999999998,219.30000000000004,5.62
1586,1715533734430,1.3999999999999997,-0.92,-0.03,187.67999999999998,219.30000000000004,5.62
1587,1715533734440,1.3999999999999997,-0.92,-0.03,187.67999999999998,219.30000000000004,5.62
1588,1715533734450,0.53,-0.58,-1.8099999999999998,139.58666666666667,160.58666666666667,-34.419999999999995
1589,1715533734460,0.53,-0.58,-1.8099999999999998,115.54,131.23,-54.44
1590,1715533734470,0.53,-0.58,-1.81,115.54,131.23,-54.44
1591,1715533734480,0.53,-0.58,-1.8099999999999998,115.54,131.23,-54.44
1592,1715533734490,0.28,0.26,-2.5,134.28,-6.53,-65.31
1593,1715533734500,0.28,0.26,-2.5,134.28,-6.53,-65.31
1594,1715533734510,0.09000000000000001,0.26,-3.0949999999999998,96.03999999999999,8.545,-34.67
1595,1715533734520,-0.1,0.26,-3.69,57.8,23.62,-4.03
1596,1715533734530,-0.10000000000000002,0.26,-3.69,57.79999999999999,23.62,-4.03
1597,1715533734540,-0.10000000000000002,0.26,-3.69,57.79999999999999,23.62,-4.03
1598,1715533734550,-0.1,0.26,-3.69,57.8,23.62,-4.03
1599,1715533734560,-0.1,0.26,-3.69,57.8,23.62,-4.03
1600,1715533734570,-0.10000000000000002,0.26,-3.69,57.79999999999999,23.62,-4.03
1601,1715533734580,-0.10000000000000002,0.26,-3.69,57.79999999999999,23.62,-4.03
1602,1715533734590,-0.10000000000000002,0.26,-3.69,57.79999999999999,23.62,-4.03
1603,1715533734600,-0.10000000000000002,0.26,-3.69,57.79999999999999,23.62,-4.03
1604,1715533734610,-0.1,0.26,-3.69,57.8,23.62,-4.03
1605,1715533734620,-0.10000000000000002,0.26,-3.69,57.79999999999999,23.62,-4.03
1606,1715533734630,0.95,-0.6475,-2.0625,-268.675,-97.3175,94.70750000000001
1607,1715533734640,1.3,-0.9499999999999998,-1.5200000000000002,-377.5,-137.63,127.62
1608,1715533734650,1.3,-0.95,-1.52,-377.5,-137.63,127.62
1609,1715533734660,1.3,-0.9499999999999998,-1.5200000000000002,-377.5,-137.63,127.62
1610,1715533734670,1.435,-1.6099999999999999,-0.555,-413.66499999999996,-197.02,87.31
1611,1715533734680,1.57,-2.27,0.41,-449.83,-256.41,47.0
1612,1715533734690,1.57,-2.27,0.41,-449.83,-256.41,47.0
1613,1715533734700,1.6275,-2.3825000000000003,0.7125,-438.6,-268.58500000000004,50.7525
1614,1715533734710,1.8,-2.72,1.62,-404.91,-305.11,62.01
1615,1715533734720,1.8,-2.72,1.62,-404.91,-305.11,62.01
1616,1715533734730,1.8,-2.72,1.62,-404.91,-305.11,62.01
1617,1715533734740,1.8,-2.72,1.62,-404.91,-305.11,62.01
1618,1715533734750,1.8,-2.72,1.62,-404.91,-305.11,62.01
1619,1715533734760,1.8,-2.72,1.62,-404.91,-305.11,62.01
1620,1715533734770,1.8,-2.72,1.62,-404.91,-305.11,62.01
1621,1715533734780,1.8,-2.72,1.62,-404.91,-305.11,62.01
1622,1715533734790,1.8,-2.72,1.62,-404.91,-305.11,62.01
1623,1715533734800,1.8,-2.72,1.62,-404.91,-305.11,62.01
1624,1715533734810,1.8,-2.72,1.62,-404.91,-305.11,62.01
1625,1715533734820,1.6633333333333333,-2.4333333333333336,1.5633333333333335,-382.99666666666667,-261.7966666666667,58.02333333333333
1626,1715533734830,1.39,-1.86,1.45,-339.17,-175.17,50.04999999999999
1627,1715533734840,1.39,-1.86,1.45,-339.17,-175.17,50.04999999999999
1628,1715533734850,1.39,-1.86,1.45,-339.17,-175.17,50.04999999999999
1629,1715533734860,1.2325,-1.6725,1.4575,-378.3575,-111.53999999999999,30.775
1630,1715533734870,1.18,-1.61,1.46,-391.42,-90.33,24.350000000000005
1631,1715533734880,1.18,-1.61,1.46,-391.42,-90.33,24.350000000000005
1632,1715533734890,1.18,-1.61,1.46,-391.42,-90.33,24.35
1633,1715533734900,0.9266666666666667,-1.4433333333333334,1.4000000000000001,-371.8866666666667,-116.57666666666665,-2.3433333333333324
1634,1715533734910,0.8000000000000002,-1.36,1.37,-362.12000000000006,-129.7,-15.69
1635,1715533734920,0.8,-1.36,1.37,-362.12,-129.7,-15.69
1636,1715533734930,0.8000000000000002,-1.36,1.37,-362.12000000000006,-129.7,-15.69
1637,1715533734940,0.67,-0.28,2.56,-300.42,-135.44,27.1
1638,1715533734950,0.67,-0.28,2.56,-300.42,-135.44,27.100000000000005
1639,1715533734960,0.67,-0.28,2.56,-300.42,-135.44,27.1
1640,1715533734970,0.67,-0.28,2.56,-300.42,-135.44,27.100000000000005
1641,1715533734980,0.5033333333333333,0.006666666666666654,3.786666666666667,-321.49333333333334,-54.54666666666666,-36.86666666666667
1642,1715533734990,0.42,0.15,4.4,-332.03,-14.1,-68.85
1643,1715533735000,0.42,0.15,4.4,-332.03,-14.1,-68.85
1644,1715533735010,0.75,-0.15,5.510000000000001,-267.00666666666666,-9.32,-52.69666666666666
1645,1715533735020,1.41,-0.75,7.73,-136.96,0.24,-20.39
1646,1715533735030,1.41,-0.75,7.73,-136.96,0.24,-20.39
1647,1715533735040,1.41,-0.75,7.73,-136.96,0.24,-20.39
1648,1715533735050,1.4,-1.77,7.015000000000001,51.7,11.41,-69.705
1649,1715533735060,1.39,-2.7900000000000005,6.3,240.36,22.58,-119.02
1650,1715533735070,1.39,-2.7900000000000005,6.3,240.36,22.58,-119.02
1651,1715533735080,1.39,-2.7900000000000005,6.3,240.36,22.58,-119.02
1652,1715533735090,1.39,-2.7900000000000005,6.3,240.36,22.58,-119.02
1653,1715533735100,1.39,-2.79,6.3,240.36,22.58,-119.02
1654,1715533735110,1.39,-2.7900000000000005,6.3,240.36,22.58,-119.02
1655,1715533735120,1.39,-2.79,6.3,240.36,22.58,-119.02
1656,1715533735130,1.39,-2.7900000000000005,6.3,240.36,22.58,-119.02
1657,1715533735140,1.39,-2.79,6.3,240.36,22.58,-119.02
1658,1715533735150,1.43,-1.8,4.7,243.015,134.125,-1.3149999999999977
1659,1715533735160,1.47,-0.81,3.1,245.67,245.67,116.39
1660,1715533735170,1.47,-0.81,3.1,245.67,245.67,116.39
1661,1715533735180,1.47,-0.81,3.1,245.67,245.67,116.39
1662,1715533735190,1.61,-0.47,1.96,312.01,267.4,89.42
1663,1715533735200,1.61,-0.47,1.96,312.01,267.4,89.42
1664,1715533735210,1.54,-1.1,1.38,349.12,293.09,44.31
1665,1715533735220,1.54,-1.1,1.38,349.12,293.09,44.31
1666,1715533735230,1.54,-1.1,1.38,349.12000000000006,293.09,44.31
1667,1715533735240,1.54,-1.1,1.38,349.12000000000006,293.09,44.31
1668,1715533735250,1.46,-1.78,0.94,395.7133333333333,239.50333333333333,15.096666666666666
1669,1715533735260,1.46,-1.78,0.94,419.01,212.71,0.49
1670,1715533735270,1.46,-1.78,0.94,419.01,212.71,0.49
1671,1715533735280,1.46,-1.78,0.94,419.01,212.71,0.49
1672,1715533735290,1.46,-1.78,0.94,419.01,212.71,0.49
1673,1715533735300,1.46,-1.78,0.94,419.01,212.71,0.49
1674,1715533735310,1.46,-1.78,0.94,419.01,212.71,0.49
1675,1715533735320,1.46,-1.78,0.94,419.01,212.71,0.49
1676,1715533735330,1.46,-1.78,0.94,419.01,212.71,0.49
1677,1715533735340,1.46,-1.78,0.94,419.01,212.71,0.49
1678,1715533735350,1.2,-1.61,0.96,389.1,140.56,-17.94
1679,1715533735360,1.145,-1.5975000000000001,0.94,381.485,136.99,-20.3525
1680,1715533735370,0.98,-1.56,0.88,358.64,126.28,-27.59
1681,1715533735380,0.98,-1.5599999999999998,0.88,358.64000000000004,126.28000000000002,-27.59
1682,1715533735390,0.98,-1.56,0.88,358.64,126.28,-27.59
1683,1715533735400,1.06,-1.16,0.44,330.56333333333333,132.32333333333335,-11.233333333333334
1684,1715533735410,1.06,-1.16,0.44,274.41,144.41,21.48
1685,1715533735420,1.06,-1.16,0.44,274.41,144.41,21.48
1686,1715533735430,1.06,-1.16,0.44,274.41,144.41,21.48
1687,1715533735440,1.3,-0.65,-0.02,104.68,259.58,-28.5
1688,1715533735450,1.3,-0.65,-0.02,104.68,259.58,-28.5
1689,1715533735460,1.3,-0.65,-0.02,104.68,259.58,-28.5
1690,1715533735470,1.3,-0.65,-0.02,104.68,259.58,-28.5
1691,1715533735480,-0.04,-0.6999999999999998,-1.78,101.26,70.8,-90.58
1692,1715533735490,-0.04,-0.7,-1.78,101.26,70.8,-90.58
1693,1715533735500,-0.04,-0.6999999999999998,-1.78,101.26,70.8,-90.58
1694,1715533735510,-0.0675,-0.5675,-2.09,144.395,46.08,-108.28
1695,1715533735520,-0.15,-0.17,-3.02,273.8,-28.08,-161.38
1696,1715533735530,-0.15,-0.17,-3.02,273.8,-28.08,-161.38
1697,1715533735540,-0.15,-0.17,-3.02,273.8,-28.08,-161.38
1698,1715533735550,-0.71,-0.15500000000000003,-3.465,273.8,-28.08,-161.38
1699,1715533735560,-1.27,-0.14,-3.91,99.43,203.86,-44.37
1700,1715533735570,-1.27,-0.14,-3.91,99.43,203.86,-44.37
1701,1715533735580,-1.27,-0.14,-3.91,99.43,203.86,-44.37
1702,1715533735590,-1.27,-0.14,-3.91,99.43,203.86,-44.37
1703,1715533735600,-1.27,-0.14,-3.91,99.43,203.86,-44.37
1704,1715533735610,-1.27,-0.14,-3.91,99.43,203.86,-44.37
1705,1715533735620,-1.27,-0.14,-3.91,99.43,203.86,-44.37
1706,1715533735630,-1.27,-0.14,-3.91,99.43,203.86,-44.37
1707,1715533735640,-1.27,-0.14,-3.91,99.43,203.86,-44.37
1708,1715533735650,-1.27,-0.14,-3.91,99.43,203.86,-44.37
1709,1715533735660,-1.27,-0.14,-3.91,99.43,203.86,-44.37
1710,1715533735670,-1.27,-0.14,-3.91,99.43,203.86,-44.37
1711,1715533735680,0.47666666666666674,-1.16,-1.51,-201.26999999999998,-49.96666666666666,132.63
1712,1715533735690,1.35,-1.67,-0.31,-351.62,-176.88,221.13
1713,1715533735700,1.3500000000000003,-1.67,-0.31,-351.62000000000006,-176.88,221.13
1714,1715533735710,1.4666666666666668,-1.8399999999999999,0.3833333333333333,-388.8533333333333,-165.28333333333333,202.23000000000002
1715,1715533735720,1.7,-2.18,1.7700000000000002,-463.32,-142.09,164.43
1716,1715533735730,1.7,-2.18,1.77,-463.32,-142.09,164.43
1717,1715533735740,1.7,-2.18,1.7700000000000002,-463.32,-142.09,164.43
1718,1715533735750,1.5599999999999998,-2.27,1.83,-488.22,-108.46,140.26
1719,1715533735760,1.56,-2.27,1.83,-488.22,-108.46,140.26
1720,1715533735770,1.56,-2.27,1.83,-488.22,-108.46,140.26
1721,1715533735780,1.5599999999999998,-2.27,1.83,-488.22,-108.46,140.26
1722,1715533735790,1.5599999999999998,-2.27,1.83,-488.22,-108.46,140.26
1723,1715533735800,1.5599999999999998,-2.27,1.83,-488.22,-108.46,140.26
1724,1715533735810,1.56,-2.27,1.83,-488.22,-108.46,140.26
1725,1715533735820,1.5599999999999998,-2.27,1.83,-488.22,-108.46,140.26
1726,1715533735830,1.56,-2.27,1.83,-488.22,-108.46,140.26
1727,1715533735840,1.5599999999999998,-2.27,1.83,-488.22,-108.46,140.26
1728,1715533735850,1.5599999999999998,-2.27,1.83,-488.22,-108.46,140.26
1729,1715533735860,1.5599999999999998,-2.27,1.83,-488.22,-108.46,140.26
1730,1715533735870,1.5,-1.97,1.4366666666666668,-452.41333333333336,-147.44,27.346666666666664
1731,1715533735880,1.47,-1.82,1.24,-434.51,-166.93,-29.11
1732,1715533735890,1.47,-1.82,1.24,-434.51,-166.93,-29.11
1733,1715533735900,1.3800000000000001,-1.775,1.75,-441.07,-166.93,-30.575
1734,1715533735910,1.3500000000000003,-1.76,1.92,-447.62999999999994,-166.93,-32.04
1735,1715533735920,1.35,-1.76,1.92,-447.63,-166.93,-32.04
1736,1715533735930,1.3500000000000003,-1.76,1.92,-447.62999999999994,-166.93,-32.04
1737,1715533735940,0.9633333333333334,-1.02,2.486666666666667,-414.81333333333333,-185.30333333333337,-30.23
1738,1715533735950,0.77,-0.65,2.77,-349.18,-222.05,-26.61
1739,1715533735960,0.77,-0.65,2.77,-349.18,-222.05000000000004,-26.61
1740,1715533735970,0.77,-0.65,2.77,-349.18,-222.05000000000004,-26.61
1741,1715533735980,0.6699999999999999,0.3633333333333333,3.8033333333333332,-211.68666666666664,-209.42999999999998,16.930000000000003
1742,1715533735990,0.62,0.87,4.32,-142.94,-203.12,38.7
1743,1715533736000,0.62,0.87,4.32,-142.94,-203.12,38.7
1744,1715533736010,0.62,0.87,4.32,-142.94,-203.12,38.7
1745,1715533736020,3.01,0.92,7.43,-202.39,28.99,-8.06
1746,1715533736030,3.01,0.92,7.43,-202.39,28.99,-8.06
1747,1715533736040,3.01,0.92,7.43,-202.39,28.99,-8.06
1748,1715533736050,2.78,0.12250000000000005,7.2299999999999995,-111.1275,40.677499999999995,-63.112500000000004
1749,1715533736060,2.09,-2.27,6.63,162.66,75.74,-228.27
1750,1715533736070,2.09,-2.27,6.63,162.66,75.74,-228.27
1751,1715533736080,2.09,-2.27,6.63,162.66,75.74,-228.27
1752,1715533736090,1.7999999999999998,-2.3175,5.945,150.3,129.2525,-193.175
1753,1715533736100,0.93,-2.46,3.89,113.21999999999998,289.79,-87.89
1754,1715533736110,0.93,-2.46,3.89,113.21999999999998,289.79,-87.89
1755,1715533736120,0.93,-2.46,3.8899999999999997,113.22,289.79,-87.89
1756,1715533736130,0.93,-2.46,3.89,113.22,289.79,-87.89
1757,1715533736140,0.93,-2.46,3.89,113.21999999999998,289.79,-87.89
1758,1715533736150,0.93,-2.46,3.89,113.22,289.79,-87.89
1759,1715533736160,0.93,-2.46,3.89,113.22,289.79,-87.89
1760,1715533736170,0.93,-2.46,3.89,113.21999999999998,289.79,-87.89
1761,1715533736180,0.93,-2.46,3.89,113.22,289.79,-87.89
1762,1715533736190,0.93,-2.46,3.89,113.22,289.79,-87.89
1763,1715533736200,0.93,-2.46,3.89,113.22,289.79,-87.89
1764,1715533736210,1.6099999999999999,-0.63,1.645,314.455,264.83,38.395
1765,1715533736220,1.8099999999999998,-0.94,1.36,337.77,276.49,0.36999999999999994
1766,1715533736230,1.81,-0.94,1.36,337.77,276.49,0.37
1767,1715533736240,1.8099999999999998,-0.94,1.36,337.77,276.49,0.36999999999999994
1768,1715533736250,1.6375000000000002,-1.5474999999999999,1.12,314.3325,274.885,-17.5775
1769,1715533736260,1.58,-1.75,1.04,306.52,274.35,-23.56
1770,1715533736270,1.58,-1.75,1.04,306.52,274.35,-23.56
1771,1715533736280,1.58,-1.75,1.04,306.52,274.35,-23.56
1772,1715533736290,1.415,-1.81,0.965,300.7975,254.94,-14.2675
1773,1715533736300,1.36,-1.83,0.94,298.89,248.47,-11.17
1774,1715533736310,1.36,-1.83,0.94,298.89,248.47,-11.17
