id,timestamp,acc_x,acc_y,acc_z,gyro_x,gyro_y,gyro_z
0,1715532589380,0.11,0.19,0.38,163.57,58.11,-100.4
1,1715532589390,0.11000000000000001,0.19,0.38,128.85,-61.52,-144.84
2,1715532589400,0.11,0.19000000000000003,0.38000000000000006,128.85,-61.52,-144.84
3,1715532589410,0.11000000000000001,0.19,0.38,128.85,-61.52,-144.84
4,1715532589420,-0.25,0.17,0.7799999999999999,103.335,-6.345000000000002,-150.18
5,1715532589430,-0.43,0.16,0.9800000000000001,77.82,48.83,-155.52
6,1715532589440,-0.43,0.16,0.98,77.82,48.830000000000005,-155.52
7,1715532589450,-0.43,0.16,0.98,77.82,48.830000000000005,-155.52
8,1715532589460,-1.3820000000000001,-0.039999999999999994,1.8359999999999999,-17.004,8.398,-156.98399999999998
9,1715532589470,-1.62,-0.09000000000000001,2.05,-40.71,-1.71,-157.35
10,1715532589480,-1.62,-0.09000000000000001,2.05,-40.71,-1.71,-157.35
11,1715532589490,-1.6200000000000003,-0.09,2.05,-40.71,-1.7100000000000002,-157.35
12,1715532589500,-1.62,-0.09000000000000001,2.05,-40.71,-1.71,-157.35
13,1715532589510,-1.62,-0.09000000000000001,2.05,-40.71,-1.71,-157.35
14,1715532589520,-1.62,-0.09000000000000001,2.05,-40.71,-1.71,-157.35
15,1715532589530,-1.6200000000000003,-0.09,2.05,-40.71,-1.7100000000000002,-157.35
16,1715532589540,-1.6200000000000003,-0.09,2.05,-40.71,-1.7100000000000002,-157.35
17,1715532589550,-1.62,-0.09000000000000001,2.05,-40.71,-1.71,-157.35
18,1715532589560,-1.6200000000000003,-0.09,2.05,-40.71,-1.7100000000000002,-157.35
19,1715532589570,-1.62,-0.09000000000000001,2.05,-40.71,-1.71,-157.35
20,1715532589580,-1.032,0.042,1.402,-71.034,-8.226,-76.014
21,1715532589590,-0.64,0.13,0.97,-91.25,-12.57,-21.79
22,1715532589600,-0.64,0.13,0.97,-91.25,-12.57,-21.79
23,1715532589610,-0.608,0.20600000000000002,0.738,-122.25399999999999,3.2019999999999995,-6.361999999999999
24,1715532589620,-0.56,0.32,0.39,-168.76,26.860000000000003,16.78
25,1715532589630,-0.56,0.32,0.39,-168.76,26.860000000000003,16.78
26,1715532589640,-0.56,0.32,0.39,-168.76,26.860000000000003,16.78
27,1715532589650,-0.296,0.314,0.21000000000000002,-189.904,-7.956,29.064
28,1715532589660,-0.12,0.31,0.09,-221.62,-60.18,47.49
29,1715532589670,-0.12,0.31,0.09,-221.61999999999998,-60.17999999999999,47.49
30,1715532589680,-0.12,0.31,0.09,-221.62,-60.18,47.49
31,1715532589690,-0.12,0.31,0.09,-221.61999999999998,-60.17999999999999,47.49
32,1715532589700,-0.12,0.31,0.09,-221.61999999999998,-60.17999999999999,47.49
33,1715532589710,-0.12,0.31,0.09,-221.62,-60.18,47.49
34,1715532589720,-0.12,0.31,0.09000000000000001,-221.62,-60.18,47.49
35,1715532589730,-0.12,0.31,0.09,-221.62,-60.18,47.49
36,1715532589740,-0.12,0.31,0.09,-221.61999999999998,-60.17999999999999,47.49
37,1715532589750,-0.12,0.31,0.09,-221.62,-60.18,47.49
38,1715532589760,-0.12,0.31,0.09,-221.62,-60.18,47.49
39,1715532589770,-0.3325,0.3675,0.7849999999999999,-212.035,-10.285,65.77
40,1715532589780,-0.78,0.7,1.39,-202.45,39.61,84.05
41,1715532589790,-0.78,0.7,1.39,-202.45,39.61,84.05
42,1715532589800,-0.91,0.8099999999999999,2.026666666666667,-151.89333333333332,44.61666666666667,77.08999999999999
43,1715532589810,-1.17,1.03,3.3,-50.78,54.63,63.17
44,1715532589820,-1.17,1.03,3.3,-50.78,54.63,63.17
45,1715532589830,-1.17,1.03,3.3,-50.78,54.63,63.17
46,1715532589840,-0.8999999999999999,1.0550000000000002,2.9,15.685000000000002,-42.144999999999996,40.59
47,1715532589850,-0.63,1.08,2.5,82.15,-138.92,18.01
48,1715532589860,-0.63,1.08,2.5,82.15,-138.92,18.01
49,1715532589870,-0.63,1.08,2.5,82.15,-138.92,18.01
50,1715532589880,-0.655,0.9,2.45,145.66,-108.76499999999999,-4.389999999999999
51,1715532589890,-0.68,0.72,2.4,209.17,-78.61,-26.79
52,1715532589900,-0.68,0.72,2.4,209.17,-78.61,-26.79
53,1715532589910,-0.68,0.72,2.4,209.17,-78.61,-26.79
54,1715532589920,-1.0866666666666667,0.7133333333333333,1.8066666666666666,283.9166666666667,-74.01666666666667,-20.936666666666667
55,1715532589930,-1.29,0.71,1.51,321.29,-71.72,-18.01
56,1715532589940,-1.29,0.71,1.51,321.29,-71.72,-18.01
57,1715532589950,-1.29,0.71,1.51,321.29,-71.72,-18.01
58,1715532589960,-1.0575,0.1175,1.315,309.2975,-158.735,45.394999999999996
59,1715532589970,-0.98,-0.08,1.25,305.3,-187.74,66.53
60,1715532589980,-0.98,-0.08,1.25,305.3,-187.74,66.53
61,1715532589990,-0.98,-0.08,1.25,305.3,-187.74,66.53
62,1715532590000,-0.76,-0.57,0.9,461.3,-93.26,65.92
63,1715532590010,-0.76,-0.57,0.9,461.3,-93.26,65.92
64,1715532590020,-0.76,-0.57,0.9,461.3,-93.26,65.92
65,1715532590030,-0.7600000000000001,-0.57,0.9,461.3,-93.26,65.92
66,1715532590040,-0.76,-0.57,0.9,461.3,-93.26,65.92
67,1715532590050,-0.76,-0.57,0.9,461.3,-93.26,65.92
68,1715532590060,-0.76,-0.57,0.9,461.3,-93.26,65.92
69,1715532590070,-0.7600000000000001,-0.57,0.9,461.3,-93.26,65.92
70,1715532590080,-0.76,-0.57,0.9,461.3,-93.26,65.92
71,1715532590090,-0.76,-0.57,0.9,461.3,-93.26,65.92
72,1715532590100,-0.5466666666666667,-0.4333333333333333,0.8300000000000001,408.81,-65.85666666666667,74.14
73,1715532590110,-0.3075,-0.115,0.7875,212.22,48.215,52.25
74,1715532590120,-0.37,-0.1,0.82,120.61,107.48,13.92
75,1715532590130,-0.37,-0.1,0.82,120.61,107.48,13.92
76,1715532590140,-0.37,-0.1,0.82,120.61,107.48,13.92
77,1715532590150,-0.5125000000000001,-0.475,1.0225,9.7375,32.36,-8.4675
78,1715532590160,-0.56,-0.6,1.09,-27.22,7.32,-15.93
79,1715532590170,-0.56,-0.6,1.09,-27.22,7.32,-15.93
80,1715532590180,-0.56,-0.6,1.09,-27.22,7.32,-15.93
81,1715532590190,-0.15500000000000003,-0.2925,0.5275000000000001,-105.4075,-21.06,-93.4725
82,1715532590200,-0.02,-0.19,0.34,-131.47,-30.52,-119.32
83,1715532590210,-0.02,-0.19,0.34,-131.47,-30.52,-119.32
84,1715532590220,-0.02,-0.19,0.34,-131.47,-30.52,-119.32
85,1715532590230,-0.02,-0.19,0.34,-131.47,-30.52,-119.32
86,1715532590240,-0.02,-0.19,0.34,-131.47,-30.52,-119.32
87,1715532590250,-0.02,-0.19,0.34,-131.47,-30.52,-119.32
88,1715532590260,-0.02,-0.19,0.34,-131.47,-30.52,-119.32
89,1715532590270,-0.02,-0.19,0.34,-131.47,-30.52,-119.32
90,1715532590280,-0.02,-0.19,0.34,-131.47,-30.52,-119.32
91,1715532590290,-0.02,-0.19,0.34,-131.47,-30.52,-119.32
92,1715532590300,-1.25,-0.43499999999999994,0.7575,-323.4725,71.72749999999999,-208.8025
93,1715532590310,-1.88,-0.03,0.87,-369.2,86.24,-177.49
94,1715532590320,-1.88,-0.03,0.87,-369.2,86.24,-177.49
95,1715532590330,-1.88,-0.03,0.87,-369.2,86.24,-177.49
96,1715532590340,-1.52,0.14,0.8300000000000001,-349.365,60.927499999999995,-152.8925
97,1715532590350,-1.16,0.31,0.79,-289.86,-15.01,-79.1
98,1715532590360,-1.16,0.31,0.79,-289.86,-15.01,-79.1
99,1715532590370,-1.16,0.31,0.79,-289.86,-15.01,-79.1
100,1715532590380,-1.03,0.475,0.78,-282.3525,26.8425,-68.8475
101,1715532590390,-0.9,0.64,0.77,-259.83,152.4,-38.09
102,1715532590400,-0.9,0.64,0.77,-259.83,152.4,-38.09
103,1715532590410,-0.9,0.64,0.77,-259.83,152.4,-38.09
104,1715532590420,-1.36,1.37,2.21,-258.65000000000003,160.70666666666668,-40.49
105,1715532590430,-1.36,1.37,2.21,-258.06,164.86,-41.69
106,1715532590440,-1.36,1.37,2.21,-258.06,164.86,-41.69
107,1715532590450,-1.36,1.37,2.21,-258.06,164.86,-41.69
108,1715532590460,-1.56,1.6,2.7,-120.13499999999999,41.67250000000001,9.947500000000002
109,1715532590470,-1.56,1.6,2.7,-74.16,0.61,27.16
110,1715532590480,-1.56,1.6,2.7,-74.16,0.61,27.16
111,1715532590490,-1.56,1.6,2.7,-74.16,0.61,27.16
112,1715532590500,-0.51,1.37,2.12,-3.6,-73.24,59.94
113,1715532590510,-0.51,1.37,2.12,-3.6,-73.24,59.94
114,1715532590520,-0.51,1.37,2.12,-3.6,-73.24,59.94
115,1715532590530,-0.51,1.37,2.12,-3.6,-73.24,59.94
116,1715532590540,-0.51,1.37,2.12,-3.6,-73.24,59.94
117,1715532590550,-0.51,1.37,2.12,-3.6,-73.24,59.94
118,1715532590560,-0.99,1.38,1.96,161.74,36.44,28.81
119,1715532590570,-0.99,1.38,1.96,161.74,36.44,28.81
120,1715532590580,-1.32,1.19,1.4,203.31,-74.34,99.98
121,1715532590590,-1.32,1.19,1.4,203.31,-74.34,99.98
122,1715532590600,-1.32,1.19,1.4,203.31,-74.34,99.98
123,1715532590610,-1.32,1.19,1.4,203.31,-74.34,99.98
124,1715532590620,-1.05,0.52,0.91,224.64249999999998,-83.9675,109.775
125,1715532590630,-1.05,0.52,0.91,288.64,-112.85,139.16
126,1715532590640,-1.05,0.52,0.91,288.64,-112.85,139.16
127,1715532590650,-1.02,-0.09499999999999999,0.7525,339.205,-81.53999999999999,160.005
128,1715532590660,-1.01,-0.3,0.7,389.77,-50.23,180.85
129,1715532590670,-1.01,-0.3,0.7,389.77,-50.23,180.85
130,1715532590680,-1.01,-0.3,0.7,389.77,-50.23,180.85
131,1715532590690,-0.96,-0.5,0.65,383.36,-72.14,229.49
132,1715532590700,-0.96,-0.5,0.65,383.36,-72.14,229.49
133,1715532590710,-0.96,-0.5,0.65,383.36,-72.14,229.49
134,1715532590720,-0.8474999999999999,-0.41000000000000003,0.635,377.195,-60.65,222.76250000000002
135,1715532590730,-0.51,-0.14,0.59,358.7,-26.18,202.58
136,1715532590740,-0.51,-0.14,0.59,358.7,-26.18,202.58
137,1715532590750,-0.51,-0.14,0.59,358.7,-26.18,202.58
138,1715532590760,-0.51,-0.14,0.59,358.7,-26.18,202.58
139,1715532590770,-0.51,-0.14,0.59,358.7,-26.18,202.58
140,1715532590780,-0.51,-0.14,0.59,358.7,-26.179999999999996,202.58
141,1715532590790,-0.51,-0.14,0.59,358.7,-26.18,202.58
142,1715532590800,-0.51,-0.14,0.59,358.7,-26.18,202.58
143,1715532590810,-0.51,-0.14,0.59,358.7,-26.179999999999996,202.58
144,1715532590820,-0.65,-0.355,0.9750000000000001,142.67,-9.885,163.76
145,1715532590830,-0.79,-0.57,1.36,-73.36,6.41,124.94
146,1715532590840,-0.268,-0.46799999999999997,0.97,-98.04400000000001,-70.75,0.4280000000000001
147,1715532590850,0.08,-0.4000000000000001,0.71,-114.5,-122.19,-82.58
148,1715532590860,0.08,-0.4,0.71,-114.5,-122.19,-82.58
149,1715532590870,0.08,-0.4,0.71,-114.5,-122.19,-82.58
150,1715532590880,0.08,-0.4,0.71,-114.5,-122.19,-82.58
151,1715532590890,-0.31,-0.44,0.46,-177.61,91.43,-219.97
152,1715532590900,-0.31,-0.44000000000000006,0.4600000000000001,-177.61,91.43,-219.96999999999997
153,1715532590910,-0.31,-0.44,0.46,-177.61,91.43,-219.97
154,1715532590920,-0.96,-0.73,0.43,-202.81,66.87,-314.746
155,1715532590930,-0.96,-0.73,0.43,-209.11,60.73,-338.44
156,1715532590940,-0.96,-0.73,0.43,-209.11,60.73,-338.44
157,1715532590950,-0.96,-0.73,0.43,-209.11,60.73,-338.44
158,1715532590960,-1.27,-0.54,0.1,-207.76,92.9,-314.82
159,1715532590970,-1.27,-0.54,0.1,-207.76,92.9,-314.82
160,1715532590980,-1.27,-0.54,0.1,-207.76,92.9,-314.82
161,1715532590990,-1.27,-0.54,0.1,-207.76,92.9,-314.82
162,1715532591000,-1.495,-0.27,0.055,-256.60749999999996,102.875,-236.3625
163,1715532591010,-1.57,-0.18000000000000002,0.04,-272.89,106.2,-210.21
164,1715532591020,-1.57,-0.18,0.04,-272.89,106.2,-210.21
165,1715532591030,-1.6075,-0.06499999999999999,0.1875,-295.7025,84.425,-203.555
166,1715532591040,-1.72,0.28,0.63,-364.14,19.1,-183.59
167,1715532591050,-1.72,0.28,0.63,-364.14,19.1,-183.59
168,1715532591060,-1.72,0.28,0.63,-364.14,19.1,-183.59
169,1715532591070,-1.72,0.28,0.63,-364.14,19.1,-183.59
170,1715532591080,-1.72,0.28,0.63,-364.14,19.1,-183.59
171,1715532591090,-1.72,0.28,0.63,-364.14,19.1,-183.59
172,1715532591100,-1.72,0.28,0.63,-364.14,19.1,-183.59
173,1715532591110,-1.72,0.28,0.63,-364.14,19.1,-183.59
174,1715532591120,-1.72,0.28,0.63,-364.14,19.1,-183.59
175,1715532591130,-1.72,0.28,0.63,-364.14000000000004,19.1,-183.59
176,1715532591140,-1.72,0.28,0.63,-364.14,19.1,-183.59
177,1715532591150,-1.72,0.28,0.63,-364.14,19.1,-183.59
178,1715532591160,-1.19,1.47,1.87,-126.21999999999998,-112.24,20.39
179,1715532591170,-1.19,1.47,1.87,-126.22,-112.24,20.39
180,1715532591180,-1.19,1.47,1.87,-126.21999999999998,-112.24,20.39
181,1715532591190,-1.1925,1.4425,1.8050000000000002,-65.6425,-83.065,21.1525
182,1715532591200,-1.2,1.36,1.61,116.09,4.46,23.44
183,1715532591210,-1.2,1.36,1.61,116.09,4.46,23.44
184,1715532591220,-1.2166666666666666,1.3133333333333335,1.3533333333333335,116.08999999999999,4.46,23.44
185,1715532591230,-1.25,1.22,0.84,184.20499999999998,-6.985,63.22
186,1715532591240,-1.25,1.22,0.84,206.91,-10.8,76.48
187,1715532591250,-1.25,1.22,0.84,206.91,-10.800000000000002,76.48
188,1715532591260,-1.25,1.22,0.84,206.91,-10.8,76.48
189,1715532591270,-1.25,1.22,0.84,206.91,-10.8,76.48
190,1715532591280,-1.25,1.22,0.84,206.91,-10.8,76.48
191,1715532591290,-1.25,1.22,0.84,206.91,-10.8,76.48
192,1715532591300,-1.25,1.22,0.84,206.91,-10.8,76.48
193,1715532591310,-1.25,1.22,0.84,206.91,-10.8,76.48
194,1715532591320,-1.25,1.22,0.84,206.91,-10.8,76.48
195,1715532591330,-1.25,1.22,0.84,206.91,-10.8,76.48
196,1715532591340,-1.25,1.22,0.84,206.91,-10.8,76.48
197,1715532591350,-1.4,0.07,0.34,284.61,-30.03,280.52
198,1715532591360,-1.4,0.07,0.34,284.61,-30.03,280.52
199,1715532591370,-1.4,0.07,0.34,284.61,-30.03,280.52
200,1715532591380,-1.89,0.57,0.93,211.79,-90.52,322.75
201,1715532591390,-1.89,0.57,0.93,211.79,-90.52,322.75
202,1715532591400,-1.89,0.57,0.93,211.79,-90.52,322.75
203,1715532591410,-1.89,0.57,0.93,211.79,-90.52,322.75
204,1715532591420,-1.71,0.56,1.4,269.23,37.48,306.88
205,1715532591430,-1.71,0.56,1.4,269.23,37.48,306.88
206,1715532591440,-1.71,0.56,1.4,269.23,37.48,306.88
207,1715532591450,-1.71,0.56,1.3999999999999997,269.23,37.48,306.88
208,1715532591460,-1.5,-0.39,0.94,176.57,173.46,228.88
209,1715532591470,-1.5,-0.39,0.94,176.57,173.46,228.88
210,1715532591480,-1.5,-0.39,0.94,176.57,173.46,228.88
211,1715532591490,-1.5,-0.39,0.94,176.57,173.46,228.88
212,1715532591500,0.22,-0.89,0.5,-44.62,-61.34,118.29
213,1715532591510,0.22,-0.89,0.5,-44.62,-61.34,118.29
214,1715532591520,0.22,-0.89,0.5,-44.62,-61.34,118.29
215,1715532591530,0.5700000000000001,-0.775,0.315,-53.7125,-51.987500000000004,39.1275
216,1715532591540,0.92,-0.66,0.13,-80.99,-23.93,-198.36
217,1715532591550,0.92,-0.66,0.13,-80.99,-23.929999999999996,-198.36
218,1715532591560,0.92,-0.66,0.13,-80.99,-23.93,-198.36
219,1715532591570,0.45,-0.8400000000000001,0.14,-90.94,39.67,-283.935
220,1715532591580,-0.02,-1.02,0.15,-100.89,103.27,-369.51
221,1715532591590,-0.02,-1.02,0.15,-100.89,103.27,-369.51
222,1715532591600,-0.02,-1.02,0.15,-100.89,103.27,-369.51
223,1715532591610,-0.02,-1.02,0.15,-100.89,103.27,-369.51
224,1715532591620,-0.02,-1.02,0.15,-100.89,103.27,-369.51
225,1715532591630,-0.02,-1.02,0.15,-100.89,103.27,-369.51
226,1715532591640,-0.02,-1.02,0.15,-100.89,103.27,-369.51
227,1715532591650,-0.02,-1.02,0.15,-100.89,103.27,-369.51
228,1715532591660,-0.02,-1.02,0.15,-100.89,103.27,-369.51
229,1715532591670,-0.02,-1.02,0.15,-100.89,103.27,-369.51
230,1715532591680,-0.2975,-0.9725,0.215,-134.79500000000002,76.965,-359.835
231,1715532591690,-1.69,-0.28,0.49,-274.8725,-30.3825,-312.0
232,1715532591700,-1.69,-0.28,0.49,-287.66,-39.86,-305.73
233,1715532591710,-1.69,-0.28,0.49,-287.66,-39.86,-305.73
234,1715532591720,-1.69,-0.28,0.49,-287.66,-39.86,-305.73
235,1715532591730,-2.39,0.62,1.11,-289.98,51.57,-234.86
236,1715532591740,-2.39,0.62,1.11,-289.98,51.57,-234.86
237,1715532591750,-2.39,0.62,1.11,-289.98,51.57,-234.86
238,1715532591760,-2.595,0.92,1.2075,-289.98,51.57,-234.86
239,1715532591770,-3.21,1.82,1.5,-136.47,33.69,-164.98
240,1715532591780,-3.21,1.82,1.5,-136.47,33.69,-164.98
241,1715532591790,-3.21,1.82,1.5,-136.47,33.69,-164.98
242,1715532591800,-3.21,1.82,1.5,-136.47,33.69,-164.98
243,1715532591810,-3.21,1.82,1.5,-136.47,33.69,-164.98
244,1715532591820,-3.21,1.82,1.5,-136.47,33.69,-164.98
245,1715532591830,-3.21,1.82,1.5,-136.47,33.69,-164.98
246,1715532591840,-3.21,1.82,1.5,-136.47,33.69,-164.98
247,1715532591850,-3.21,1.82,1.5,-136.47,33.69,-164.98
248,1715532591860,-3.2099999999999995,1.82,1.5,-136.47,33.69,-164.98
249,1715532591870,-1.8525,1.7525,1.4625,-50.7825,-53.190000000000005,21.335
250,1715532591880,-1.79,1.67,1.45,71.8975,-40.63,111.91
251,1715532591890,-1.92,1.65,1.45,103.27,-26.79,121.4
252,1715532591900,-1.92,1.6499999999999997,1.45,103.27,-26.790000000000003,121.40000000000002
253,1715532591910,-1.886,1.502,1.374,103.27000000000001,-26.79,121.4
254,1715532591920,-1.75,0.91,1.07,206.97,-118.53000000000002,213.13
255,1715532591930,-1.75,0.91,1.07,206.97,-118.53,213.13
256,1715532591940,-1.75,0.91,1.07,206.97,-118.53,213.13
257,1715532591950,-1.7700000000000002,0.6033333333333334,1.01,249.0233333333333,-101.58333333333333,226.72333333333333
258,1715532591960,-1.81,-0.01,0.89,333.13,-67.69,253.91
259,1715532591970,-1.81,-0.01,0.89,333.13,-67.69,253.91
260,1715532591980,-1.81,-0.01,0.89,333.13,-67.69,253.91
261,1715532591990,-1.855,-0.375,0.79,352.005,-58.32,283.695
262,1715532592000,-1.8999999999999997,-0.7399999999999999,0.69,408.62999999999994,-30.209999999999997,373.05
263,1715532592010,-1.9,-0.74,0.69,408.63,-30.21,373.05
264,1715532592020,-1.9,-0.74,0.69,408.63,-30.21,373.05
265,1715532592030,-1.545,-0.87,0.6,380.645,-38.91,388.52
266,1715532592040,-1.19,-1.0,0.51,352.66,-47.61,403.99
267,1715532592050,-1.19,-1.0,0.51,352.66,-47.61,403.99
268,1715532592060,-1.19,-1.0,0.51,352.66,-47.61,403.99
269,1715532592070,-0.5225,-0.655,0.225,342.4975,-8.055,333.355
270,1715532592080,-0.3,-0.54,0.13,339.11,5.13,309.81
271,1715532592090,-0.3,-0.54,0.13,339.11,5.13,309.81
272,1715532592100,-0.3,-0.54,0.13,339.11,5.13,309.81
273,1715532592110,0.12000000000000001,-0.16666666666666666,-0.10333333333333333,226.85,30.51666666666667,138.10333333333332
274,1715532592120,0.33,0.02,-0.22,170.72,43.21,52.25
275,1715532592130,0.33,0.02,-0.22,170.72,43.21,52.25
276,1715532592140,0.33,0.02,-0.22000000000000003,170.72,43.21,52.25
277,1715532592150,0.33,0.02,-0.22,170.72,43.21,52.25
278,1715532592160,0.33,0.02,-0.22,170.72,43.21,52.25
279,1715532592170,0.33,0.02,-0.22,170.72,43.21,52.25
280,1715532592180,0.33,0.02,-0.22,170.72,43.21,52.25
281,1715532592190,0.33,0.02,-0.22,170.72,43.21,52.25
282,1715532592200,0.18,-0.25,0.045,8.424999999999997,34.545,-41.959999999999994
283,1715532592210,0.03,-0.52,0.31,-153.87,25.88,-136.17
284,1715532592220,-0.12666666666666668,-0.6166666666666667,0.4466666666666666,-183.98000000000002,26.143333333333334,-195.09
285,1715532592230,-0.44,-0.81,0.72,-244.2,26.67,-312.93
286,1715532592240,-0.44,-0.81,0.72,-244.2,26.67,-312.93
287,1715532592250,-0.44,-0.81,0.72,-244.2,26.67,-312.93
288,1715532592260,-1.045,-0.81,0.81,-225.33999999999997,50.625,-357.635
289,1715532592270,-1.65,-0.81,0.9,-206.48,74.58,-402.34
290,1715532592280,-1.65,-0.81,0.9,-206.48,74.58,-402.34
291,1715532592290,-1.65,-0.81,0.9,-206.48,74.58,-402.34
292,1715532592300,-2.0025,-0.3225,0.9075,-187.98499999999999,30.825,-401.28999999999996
293,1715532592310,-2.12,-0.16,0.91,-181.82,16.24,-400.94
294,1715532592320,-2.12,-0.16,0.91,-181.82,16.24,-400.94
295,1715532592330,-2.12,-0.16,0.91,-181.82,16.24,-400.94
296,1715532592340,-2.12,-0.16,0.91,-181.82,16.24,-400.94
297,1715532592350,-2.12,-0.16,0.91,-181.82,16.24,-400.94
298,1715532592360,-2.12,-0.16,0.91,-181.82,16.24,-400.94
299,1715532592370,-2.12,-0.16,0.91,-181.82,16.24,-400.94
300,1715532592380,-2.12,-0.16,0.91,-181.82000000000002,16.24,-400.94
301,1715532592390,-1.82,-0.037500000000000006,0.795,-201.7175,-9.7625,-351.2275
302,1715532592400,-0.92,0.33,0.45,-261.41,-87.77,-202.09
303,1715532592410,-0.92,0.33,0.45,-261.41,-87.77,-202.09
304,1715532592420,-1.5,1.02,0.82,-232.73,46.02,-220.4
305,1715532592430,-1.5,1.02,0.82,-232.73,46.02,-220.4
306,1715532592440,-1.5,1.02,0.82,-232.73,46.02,-220.4
307,1715532592450,-2.275,1.245,1.17,-232.73,46.02,-220.4
308,1715532592460,-3.05,1.47,1.52,-200.45749999999998,89.0475,-165.3725
309,1715532592470,-3.05,1.47,1.52,-189.7,103.39,-147.03
310,1715532592480,-3.0499999999999994,1.47,1.5200000000000002,-189.69999999999996,103.39,-147.03
311,1715532592490,-2.48,1.625,1.32,-175.4925,65.39750000000001,-109.25
312,1715532592500,-1.91,1.78,1.12,-132.87,-48.580000000000005,4.09
313,1715532592510,-1.91,1.78,1.12,-132.87,-48.58,4.09
314,1715532592520,-1.91,1.78,1.12,-132.87,-48.58,4.09
315,1715532592530,-2.0433333333333334,1.7,1.28,-105.71,-27.05666666666667,30.356666666666666
316,1715532592540,-2.11,1.6599999999999997,1.36,-51.39,15.99,82.89
317,1715532592550,-2.11,1.66,1.36,-51.39,15.99,82.89
318,1715532592560,-2.11,1.66,1.36,-51.39000000000001,15.99,82.89
319,1715532592570,-2.0125,1.435,0.955,79.1175,-24.3825,169.725
320,1715532592580,-1.98,1.36,0.82,122.62,-37.84,198.67
321,1715532592590,-1.98,1.36,0.82,122.62,-37.84,198.67
322,1715532592600,-1.98,1.36,0.82,122.62,-37.84,198.67
323,1715532592610,-1.8,0.8,0.27,152.89,-95.95,312.5
324,1715532592620,-1.8,0.8,0.27,152.89,-95.95,312.5
325,1715532592630,-1.8,0.8,0.27,152.89,-95.95,312.5
326,1715532592640,-1.8,0.8000000000000002,0.27,152.89,-95.95,312.5
327,1715532592650,-1.8,0.8,0.27,152.89,-95.95,312.5
328,1715532592660,-1.8,0.8,0.27,152.89,-95.95,312.5
329,1715532592670,-1.8,0.8,0.27,152.89,-95.95,312.5
330,1715532592680,-1.8,0.8000000000000002,0.27,152.89,-95.95,312.5
331,1715532592690,-1.8,0.8,0.27,152.89,-95.95,312.5
332,1715532592700,-1.8,0.8,0.27,152.89,-95.95,312.5
333,1715532592710,-1.8,0.8000000000000002,0.27,152.89,-95.95,312.5
334,1715532592720,-1.8,0.8,0.27,152.89,-95.95,312.5
335,1715532592730,-1.23,-0.22000000000000003,0.6,267.565,-59.095,384.6425
336,1715532592740,-1.04,-0.56,0.71,305.79,-46.81,408.69
337,1715532592750,-1.04,-0.56,0.71,305.79,-46.81,408.69
338,1715532592760,-0.755,-0.17000000000000004,0.44999999999999996,305.79,-46.81,408.69
339,1715532592770,-0.47,0.22,0.19,295.53,1.4,241.33
340,1715532592780,-0.47,0.22,0.19000000000000003,295.53,1.3999999999999997,241.33
341,1715532592790,-0.47,0.22,0.19,295.53,1.4,241.33
342,1715532592800,-0.5966666666666667,0.06666666666666667,0.57,119.79,51.49333333333334,126.99000000000001
343,1715532592810,-0.66,-0.01,0.76,31.92,76.54,69.82
344,1715532592820,-0.66,-0.01,0.7600000000000001,31.92,76.54,69.82
345,1715532592830,-0.66,-0.01,0.76,31.92,76.54,69.82
346,1715532592840,-0.66,-0.01,0.76,31.92,76.54,69.82
347,1715532592850,-0.66,-0.01,0.76,31.92,76.54,69.82
348,1715532592860,-0.66,-0.01,0.76,31.92,76.54,69.82
349,1715532592870,-0.66,-0.01,0.76,31.92,76.54,69.82
350,1715532592880,-0.66,-0.01,0.76,31.92,76.54,69.82
351,1715532592890,-0.66,-0.01,0.76,31.92,76.54,69.82
352,1715532592900,-0.66,-0.01,0.76,31.92,76.54,69.82
353,1715532592910,-0.66,-0.01,0.76,31.92,76.54,69.82
354,1715532592920,-0.5925,-0.5425,0.5275,-88.97250000000001,56.260000000000005,-246.35750000000002
355,1715532592930,-0.57,-0.72,0.45,-129.27,49.5,-351.75
356,1715532592940,-0.57,-0.72,0.45,-129.27,49.5,-351.75
357,1715532592950,-0.7699999999999999,-0.6766666666666666,0.4366666666666667,-145.28333333333333,17.496666666666666,-357.52666666666664
358,1715532592960,-1.17,-0.59,0.41,-177.31,-46.51,-369.08
359,1715532592970,-1.17,-0.59,0.41,-177.31000000000003,-46.51,-369.08
360,1715532592980,-1.17,-0.59,0.41,-177.31,-46.51,-369.08
361,1715532592990,-1.1624999999999999,-0.5375,0.35750000000000004,-205.05,-58.959999999999994,-344.575
362,1715532593000,-1.16,-0.52,0.34,-232.79,-71.41,-320.07
363,1715532593010,-1.16,-0.52,0.34,-232.79,-71.41,-320.07
364,1715532593020,-1.16,-0.52,0.34,-232.79000000000002,-71.41,-320.07
365,1715532593030,-1.1549999999999998,-0.355,0.28500000000000003,-203.765,7.140000000000001,-283.755
366,1715532593040,-1.15,-0.19,0.23,-174.74,85.69,-247.44
367,1715532593050,-1.15,-0.19000000000000003,0.23,-174.74,85.69,-247.43999999999997
368,1715532593060,-1.15,-0.19,0.23,-174.74,85.69,-247.44
369,1715532593070,-1.4725000000000001,0.26749999999999996,0.1775,-168.47,49.48,-236.31
370,1715532593080,-1.58,0.42,0.16,-166.38,37.41,-232.6
371,1715532593090,-1.58,0.42,0.16,-166.38,37.41,-232.6
372,1715532593100,-1.58,0.42,0.16,-166.38,37.41,-232.6
373,1715532593110,-2.35,1.3,0.72,-272.09,-1.65,-124.39
374,1715532593120,-2.35,1.3,0.72,-272.09,-1.65,-124.39
375,1715532593130,-2.35,1.3,0.7200000000000001,-272.09,-1.6499999999999997,-124.39
376,1715532593140,-2.56,1.4725000000000001,0.8625,-226.575,26.4575,-113.9825
377,1715532593150,-3.19,1.99,1.29,-90.03,110.78,-82.76
378,1715532593160,-3.19,1.99,1.29,-90.03,110.78,-82.76
379,1715532593170,-3.19,1.9899999999999998,1.29,-90.03,110.78,-82.76
380,1715532593180,-3.19,1.99,1.29,-90.03000000000002,110.78000000000002,-82.76
381,1715532593190,-3.19,1.9899999999999998,1.29,-90.03,110.78,-82.76
382,1715532593200,-3.19,1.99,1.29,-90.03000000000002,110.78000000000002,-82.76
383,1715532593210,-3.19,1.9899999999999998,1.29,-90.03,110.78,-82.76
384,1715532593220,-3.19,1.99,1.29,-90.03000000000002,110.78000000000002,-82.76
385,1715532593230,-3.19,1.99,1.29,-90.03,110.78,-82.76
386,1715532593240,-3.19,1.99,1.29,-90.03,110.78,-82.76
387,1715532593250,-2.6399999999999997,1.83,1.28,-59.295,18.25,16.36
388,1715532593260,-1.835,1.2874999999999999,1.0150000000000001,101.1225,-74.505,166.4725
389,1715532593270,-1.75,1.16,0.93,144.35,-74.58,183.47
390,1715532593280,-1.75,1.16,0.93,144.35,-74.58,183.47
391,1715532593290,-1.75,1.16,0.93,144.35,-74.58,183.47
392,1715532593300,-1.6775,1.0025,0.8150000000000001,155.6575,-86.33,198.18
393,1715532593310,-1.46,0.53,0.47,189.58,-121.58,242.31
394,1715532593320,-1.46,0.53,0.47,189.58,-121.58,242.31
395,1715532593330,-1.46,0.53,0.47,189.58,-121.58,242.31
396,1715532593340,-1.3625,-0.09999999999999999,0.5075000000000001,204.82,-198.1175,311.25
397,1715532593350,-1.33,-0.31,0.52,209.9,-223.63,334.23
398,1715532593360,-1.33,-0.31,0.52,209.9,-223.63,334.23
399,1715532593370,-1.33,-0.31,0.52,209.9,-223.63,334.23
400,1715532593380,-1.33,-0.31,0.52,209.9,-223.63,334.23
401,1715532593390,-1.33,-0.31,0.52,209.9,-223.63,334.23
402,1715532593400,-1.33,-0.31,0.52,209.9,-223.63,334.23
403,1715532593410,-1.33,-0.31,0.52,209.9,-223.63,334.23
404,1715532593420,-1.33,-0.31,0.52,209.9,-223.63,334.23
405,1715532593430,-1.33,-0.31,0.52,209.9,-223.63,334.23
406,1715532593440,-1.195,-0.3625,0.5075000000000001,251.38750000000002,-172.6675,332.9175
407,1715532593450,-0.41000000000000003,-0.22,0.21,356.045,6.68,281.19
408,1715532593460,-0.03,0.08,-0.05,336.24,33.14,233.4
409,1715532593470,-0.03,0.08,-0.05,336.24,33.14,233.4
410,1715532593480,-0.03,0.08,-0.05000000000000001,336.24,33.14,233.4
411,1715532593490,-0.20500000000000002,0.04,-0.015000000000000001,233.885,109.375,130.31
412,1715532593500,-0.38,0.0,0.02,131.53,185.61,27.22
413,1715532593510,-0.38,0.0,0.02,131.53,185.61,27.22
414,1715532593520,-0.38,0.0,0.02,131.53,185.61,27.22
415,1715532593530,-0.24,-0.09999999999999999,0.09333333333333334,-1.1566666666666663,105.89666666666669,15.299999999999999
416,1715532593540,-0.17,-0.15,0.13,-67.5,66.04,9.34
417,1715532593550,-0.17,-0.15,0.13,-67.5,66.04,9.34
418,1715532593560,-0.17,-0.15,0.13,-67.5,66.04,9.34
419,1715532593570,0.16,-0.4275,0.3025,-204.9675,-40.805,-133.6175
420,1715532593580,0.27,-0.52,0.36000000000000004,-250.79,-76.42,-181.27
421,1715532593590,0.27,-0.52,0.36,-250.79,-76.42,-181.27
422,1715532593600,0.27,-0.52,0.36,-250.79,-76.42,-181.27
423,1715532593610,-0.56,-0.83,0.69,-216.5975,8.405,-310.5475
424,1715532593620,-0.56,-0.83,0.69,-205.2,36.68,-353.64
425,1715532593630,-0.56,-0.83,0.69,-205.2,36.68,-353.64
426,1715532593640,-0.56,-0.83,0.69,-205.2,36.68,-353.64
427,1715532593650,-1.025,-0.845,0.705,-160.29,93.4925,-414.2025
428,1715532593660,-1.18,-0.85,0.71,-145.32,112.43,-434.39
429,1715532593670,-1.18,-0.85,0.71,-145.32,112.43,-434.39
430,1715532593680,-1.285,-0.7324999999999999,0.665,-145.32,112.43,-434.39
431,1715532593690,-1.6,-0.38,0.53,-145.32,112.43,-434.39
432,1715532593700,-1.6,-0.38,0.53,-145.32,112.43,-434.39
433,1715532593710,-1.6,-0.38,0.53,-145.32,112.43,-434.39
434,1715532593720,-1.6000000000000003,-0.38000000000000006,0.53,-145.32,112.43,-434.39000000000004
435,1715532593730,-1.6,-0.38,0.53,-145.32,112.43,-434.39
436,1715532593740,-1.6,-0.38,0.53,-145.32,112.43,-434.39
437,1715532593750,-1.6,-0.38,0.53,-145.32,112.43,-434.39
438,1715532593760,-1.6,-0.38,0.53,-145.32,112.43,-434.39
439,1715532593770,-1.6,-0.38,0.53,-145.32,112.43,-434.39
440,1715532593780,-1.4,0.51,0.11,-153.93,-123.35,-226.44
441,1715532593790,-1.4,0.51,0.11,-153.93,-123.35,-226.44
442,1715532593800,-2.135,0.795,0.7025,-162.9975,-49.879999999999995,-242.7825
443,1715532593810,-2.38,0.89,0.9,-166.02,-25.39,-248.23
444,1715532593820,-2.38,0.89,0.9,-166.02,-25.39,-248.23
445,1715532593830,-2.38,0.89,0.9,-166.02,-25.39,-248.23
446,1715532593840,-3.0625,1.34,0.9525,-68.01,16.497500000000002,-147.565
447,1715532593850,-3.29,1.49,0.97,-35.34,30.46,-114.01
448,1715532593860,-3.29,1.49,0.97,-35.34,30.46,-114.01
449,1715532593870,-3.29,1.49,0.97,-35.34,30.46,-114.01
450,1715532593880,-2.06,1.4,0.66,-121.995,-103.625,8.165
451,1715532593890,-2.06,1.4,0.66,-150.88,-148.32,48.89
452,1715532593900,-2.06,1.4,0.66,-150.88,-148.32,48.89
453,1715532593910,-2.06,1.4,0.66,-150.88,-148.32,48.89
454,1715532593920,-2.06,1.4,0.66,-150.88,-148.32,48.89
455,1715532593930,-2.06,1.4,0.66,-150.88,-148.32,48.89
456,1715532593940,-2.06,1.3999999999999997,0.66,-150.88,-148.32,48.89000000000001
457,1715532593950,-2.06,1.4,0.66,-150.88,-148.32,48.89
458,1715532593960,-2.06,1.4,0.66,-150.88,-148.32,48.89
459,1715532593970,-1.47,1.11,0.47,46.14,0.24,160.71
460,1715532593980,-1.47,1.11,0.47,46.14000000000001,0.24,160.71
461,1715532593990,-1.188,0.8160000000000001,0.33199999999999996,46.14,0.24,160.71
462,1715532594000,-1.0,0.62,0.24,133.67,-42.3,205.19999999999996
463,1715532594010,-1.0,0.62,0.24,133.67,-42.3,205.2
464,1715532594020,-1.0,0.62,0.24,133.67,-42.3,205.2
465,1715532594030,-1.03,0.07,0.26,189.29,-20.246666666666666,251.50666666666666
466,1715532594040,-1.03,0.07,0.26,217.1,-9.22,274.66
467,1715532594050,-1.03,0.07,0.26,217.1,-9.22,274.66
468,1715532594060,-1.03,0.07,0.26,217.1,-9.22,274.66
469,1715532594070,-1.14,-0.4,0.33,259.76750000000004,-4.78,315.9475
470,1715532594080,-1.14,-0.4,0.33,273.99,-3.3,329.71
471,1715532594090,-1.14,-0.4,0.33,273.99,-3.3,329.71
472,1715532594100,-1.0875,-0.3275,0.32,262.0575,-15.8425,340.3775
473,1715532594110,-0.93,-0.11,0.29,226.26,-53.47,372.38
474,1715532594120,-0.93,-0.11,0.29,226.26,-53.47,372.37999999999994
475,1715532594130,-0.93,-0.11,0.29,226.26,-53.47,372.38
476,1715532594140,-0.7925,0.015,0.295,226.26,-53.47,372.38
477,1715532594150,-0.38,0.39,0.31,225.1,-15.32,277.34
478,1715532594160,-0.38,0.39,0.31,225.1,-15.32,277.34
479,1715532594170,-0.38000000000000006,0.38999999999999996,0.31,225.1,-15.32,277.34
480,1715532594180,-0.52,0.33,0.32599999999999996,214.394,33.642,233.004
481,1715532594190,-1.08,0.09,0.39,171.57,229.49,55.66
482,1715532594200,-1.08,0.09,0.39,171.57,229.49,55.66
483,1715532594210,-1.08,0.09,0.39,171.57,229.49,55.66
484,1715532594220,-1.08,0.09,0.39,171.57,229.49,55.66
485,1715532594230,-1.08,0.09,0.39,171.57,229.49,55.66
486,1715532594240,-1.08,0.09,0.39,171.57,229.49,55.66
487,1715532594250,-1.08,0.09,0.39,171.57,229.49,55.66
488,1715532594260,-1.08,0.09,0.39,171.57,229.49,55.66
489,1715532594270,-1.08,0.09,0.39,171.57,229.49,55.66
490,1715532594280,-1.08,0.09,0.39,171.57,229.49,55.66
491,1715532594290,-1.08,0.09,0.39,171.57,229.49,55.66
492,1715532594300,-0.14,-0.59,0.58,-191.22,-100.77,-128.72
493,1715532594310,-0.14,-0.59,0.58,-27.1,90.03,-306.7
494,1715532594320,-0.14,-0.59,0.58,-27.1,90.03,-306.7
495,1715532594330,-0.14,-0.59,0.58,-27.1,90.03,-306.7
496,1715532594340,-0.61,-0.7399999999999999,0.4000000000000001,14.47,72.39,-392.09
497,1715532594350,-0.61,-0.74,0.4,14.47,72.39,-392.09
498,1715532594360,-0.61,-0.74,0.4,14.47,72.39,-392.09
499,1715532594370,-0.6025,-0.735,0.41500000000000004,15.2325,54.735,-391.815
500,1715532594380,-0.58,-0.7200000000000001,0.46,17.52,1.7700000000000002,-390.99
501,1715532594390,-0.58,-0.72,0.46,17.52,1.77,-390.99
502,1715532594400,-0.58,-0.72,0.46,17.52,1.77,-390.99
503,1715532594410,-0.58,-0.72,0.46,17.52,1.77,-390.99
504,1715532594420,-0.58,-0.72,0.46,17.52,1.77,-390.99
505,1715532594430,-0.58,-0.72,0.46,17.52,1.77,-390.99
506,1715532594440,-0.58,-0.72,0.46,17.52,1.77,-390.99
507,1715532594450,-0.58,-0.72,0.46,17.52,1.77,-390.99
508,1715532594460,-0.58,-0.72,0.46,17.52,1.77,-390.99
509,1715532594470,-0.58,-0.72,0.46,17.52,1.77,-390.99
510,1715532594480,-0.58,-0.7200000000000001,0.46,17.52,1.7700000000000002,-390.99
511,1715532594490,-1.87,0.125,0.21000000000000002,-28.015,-8.15,-274.35
512,1715532594500,-3.16,0.97,-0.04,-73.55,-18.07,-157.71
513,1715532594510,-3.16,0.97,-0.04,-73.55,-18.07,-157.71
514,1715532594520,-3.16,0.97,-0.04,-73.55,-18.07,-157.71
515,1715532594530,-3.0700000000000003,1.315,-0.22000000000000003,-168.305,-78.0775,-39.06
516,1715532594540,-3.04,1.43,-0.28,-199.89,-98.08,0.49
517,1715532594550,-3.04,1.43,-0.28,-199.89,-98.08,0.49
518,1715532594560,-3.04,1.43,-0.28,-199.89,-98.08,0.49000000000000005
519,1715532594570,-1.7,1.19,0.35,-313.78,-152.83,120.85
520,1715532594580,-1.7,1.19,0.35,-313.78,-152.83,120.85
521,1715532594590,-1.7,1.19,0.3499999999999999,-313.78,-152.83,120.84999999999998
522,1715532594600,-1.795,1.185,0.49,-313.78,-152.83,120.85
523,1715532594610,-2.08,1.17,0.91,-176.2225,-23.327500000000004,102.5875
524,1715532594620,-2.08,1.17,0.91,-130.37,19.84,96.5
525,1715532594630,-2.08,1.17,0.91,-130.37,19.84,96.5
526,1715532594640,-1.96,1.0925,0.8675,-86.79,6.594999999999999,113.80250000000001
527,1715532594650,-1.6,0.86,0.74,43.95,-33.14,165.71
528,1715532594660,-1.6,0.86,0.74,43.95,-33.14,165.71
529,1715532594670,-1.6,0.86,0.74,43.95,-33.14,165.71
530,1715532594680,-1.1266666666666667,0.5466666666666667,0.47333333333333333,86.36666666666667,-54.78666666666667,175.19000000000003
531,1715532594690,-0.89,0.39,0.34,171.2,-98.08,194.15
532,1715532594700,-0.89,0.39,0.34,171.2,-98.08,194.15
533,1715532594710,-0.89,0.39,0.34,171.2,-98.08,194.15
534,1715532594720,-0.8150000000000001,0.037500000000000006,0.28,207.7325,-93.73750000000001,223.08499999999998
535,1715532594730,-0.79,-0.08,0.26,219.91,-92.29,232.73
536,1715532594740,-0.79,-0.08,0.26,219.91,-92.29,232.72999999999996
537,1715532594750,-0.79,-0.08,0.26,219.91,-92.29,232.73
538,1715532594760,-0.79,-0.08,0.26,219.91,-92.29,232.73
539,1715532594770,-0.79,-0.08,0.26,219.91,-92.29,232.73
540,1715532594780,-0.79,-0.08,0.26,219.91,-92.29,232.73
541,1715532594790,-0.79,-0.08,0.26,219.91,-92.29,232.72999999999996
542,1715532594800,-0.79,-0.08,0.26,219.91,-92.29,232.73
543,1715532594810,-0.79,-0.08,0.26,219.91,-92.29,232.72999999999996
544,1715532594820,-0.7566666666666667,-0.07,0.23666666666666666,257.87333333333333,-38.190000000000005,230.98
545,1715532594830,-0.69,-0.05,0.19,333.8,70.01,227.48
546,1715532594840,-1.32,0.5,0.01,310.42,198.24,130.55
547,1715532594850,-1.32,0.5,0.01,310.42,198.24,130.55
548,1715532594860,-1.32,0.5,0.01,310.42,198.24,130.55
549,1715532594870,-1.44,0.4875,0.08249999999999999,248.67000000000002,197.7525,129.8025
550,1715532594880,-1.8,0.45,0.3,63.419999999999995,196.29,127.56
551,1715532594890,-1.8,0.45,0.3,63.42,196.29,127.56
552,1715532594900,-1.8,0.45,0.3,63.42,196.29,127.56
553,1715532594910,-1.2850000000000001,0.29000000000000004,0.39,-30.060000000000002,95.42999999999999,138.39499999999998
554,1715532594920,-0.77,0.13,0.48,-123.54,-5.43,149.23
555,1715532594930,-0.77,0.13,0.48,-123.54,-5.43,149.23
556,1715532594940,-0.77,0.13,0.48,-123.54,-5.43,149.23
557,1715532594950,-0.77,0.13,0.48,-123.54,-5.43,149.23
558,1715532594960,-0.77,0.13,0.48,-123.54,-5.43,149.23
559,1715532594970,-0.77,0.13,0.48,-123.54,-5.43,149.23
560,1715532594980,-0.77,0.13,0.48,-123.54,-5.43,149.23
561,1715532594990,-0.77,0.13,0.48,-123.54,-5.43,149.23
562,1715532595000,-0.77,0.13,0.48,-123.54,-5.43,149.23
563,1715532595010,-0.77,0.13,0.48,-123.54,-5.43,149.23
564,1715532595020,0.04,-0.3,0.47,-45.04,24.11,-241.15
565,1715532595030,-0.17,-0.56,0.37,-118.65,-97.53,-331.3
566,1715532595040,-0.17,-0.56,0.37,-118.65,-97.53,-331.3
567,1715532595050,-0.17,-0.56,0.36999999999999994,-118.65000000000002,-97.53000000000002,-331.3
568,1715532595060,-0.17,-0.56,0.37,-118.65,-97.53,-331.3
569,1715532595070,-0.74,-0.59,0.33,-96.5,-87.46,-385.8
570,1715532595080,-0.74,-0.59,0.33,-96.5,-87.46,-385.8
571,1715532595090,-0.74,-0.59,0.33,-96.5,-87.46,-385.8
572,1715532595100,-0.7775,-0.44999999999999996,0.24000000000000002,-97.35249999999999,-83.2025,-343.33500000000004
573,1715532595110,-0.89,-0.03,-0.03,-99.91,-70.43,-215.94
574,1715532595120,-0.89,-0.03,-0.03,-99.91000000000001,-70.43,-215.93999999999997
575,1715532595130,-0.89,-0.03,-0.03,-99.91,-70.43,-215.94
576,1715532595140,-0.9075,-0.0375,-0.0225,-128.9475,-85.64500000000001,-202.8175
577,1715532595150,-0.96,-0.06,0.0,-216.06,-131.29,-163.45
578,1715532595160,-0.96,-0.06,0.0,-216.06,-131.29,-163.45
579,1715532595170,-0.96,-0.06,0.0,-216.06,-131.29,-163.45
580,1715532595180,-0.96,-0.06,0.0,-216.06,-131.29,-163.45
581,1715532595190,-1.4325,0.5025,0.0975,-197.20499999999998,-44.545,-164.5075
582,1715532595200,-1.59,0.69,0.13,-190.92,-15.63,-164.86
583,1715532595210,-1.59,0.69,0.13,-190.92,-15.63,-164.86
584,1715532595220,-2.61,1.0166666666666666,0.7766666666666667,-207.86666666666665,1.1966666666666665,-156.45666666666668
585,1715532595230,-3.12,1.18,1.1,-241.76,34.85,-139.65
586,1715532595240,-3.12,1.18,1.1,-241.76,34.85,-139.65
587,1715532595250,-3.12,1.18,1.1,-241.76,34.85,-139.65
588,1715532595260,-3.12,1.18,1.1,-241.76,34.85,-139.65
589,1715532595270,-3.1199999999999997,1.18,1.1,-241.76,34.85,-139.65
590,1715532595280,-3.12,1.18,1.1,-241.76,34.85,-139.65
591,1715532595290,-3.12,1.18,1.1,-241.76,34.85,-139.65
592,1715532595300,-3.12,1.18,1.1,-241.76,34.85,-139.65
593,1715532595310,-3.12,1.18,1.1,-241.76,34.85,-139.65
594,1715532595320,-3.12,1.18,1.1,-241.76,34.85,-139.65
595,1715532595330,-3.1199999999999997,1.18,1.1,-241.76,34.85,-139.65
596,1715532595340,-3.12,1.18,1.1,-241.76,34.85,-139.65
597,1715532595350,-2.025,0.7975,0.545,40.817499999999995,59.38999999999999,69.08999999999999
598,1715532595360,-1.66,0.67,0.36000000000000004,135.01,67.57,138.67
599,1715532595370,-1.4975,0.5750000000000001,0.285,137.23749999999998,28.094999999999995,154.9825
600,1715532595380,-1.01,0.29,0.06,143.92,-90.33,203.92
601,1715532595390,-1.01,0.29,0.06,143.92,-90.33,203.92
602,1715532595400,-1.01,0.29,0.06,143.92,-90.33,203.92
603,1715532595410,-0.8633333333333333,0.15333333333333332,0.06999999999999999,158.89333333333332,-69.90333333333334,210.08333333333334
604,1715532595420,-0.57,-0.12,0.09,188.84,-29.05,222.41
605,1715532595430,-0.57,-0.12,0.09,188.84,-29.05,222.41
606,1715532595440,-0.57,-0.12,0.09,188.84,-29.05,222.41
607,1715532595450,-0.5774999999999999,-0.3,0.14250000000000002,244.55,68.03750000000001,230.42000000000002
608,1715532595460,-0.58,-0.36,0.16,263.12,100.4,233.09
609,1715532595470,-0.58,-0.36,0.16,263.12,100.4,233.09
610,1715532595480,-0.58,-0.36,0.16,263.12,100.4,233.09
611,1715532595490,-0.58,-0.36,0.16,263.12,100.4,233.09
612,1715532595500,-0.58,-0.36,0.16,263.12,100.4,233.09
613,1715532595510,-0.58,-0.36,0.16,263.12,100.4,233.09
614,1715532595520,-0.58,-0.36,0.16,263.12,100.4,233.09
615,1715532595530,-0.58,-0.36,0.16,263.12,100.4,233.09
616,1715532595540,-0.7375,0.30000000000000004,0.1375,171.6125,50.0,229.66250000000002
617,1715532595550,-0.79,0.52,0.13,141.11,33.2,228.52
618,1715532595560,-0.885,0.5475,0.23,141.11,33.2,228.52
619,1715532595570,-1.17,0.63,0.53,39.92,127.44,126.4
620,1715532595580,-1.17,0.63,0.53,39.92,127.44,126.4
621,1715532595590,-1.17,0.63,0.53,39.92,127.44,126.40000000000002
622,1715532595600,-1.2225,0.56,0.5425,22.402500000000003,137.6025,115.9025
623,1715532595610,-1.38,0.35,0.58,-30.15,168.09,84.41
624,1715532595620,-1.38,0.35,0.58,-30.15,168.09,84.41
625,1715532595630,-1.38,0.35,0.58,-30.15,168.09,84.41
626,1715532595640,-1.025,0.05499999999999999,0.685,-96.19,15.625,53.285
627,1715532595650,-0.67,-0.24,0.79,-162.23,-136.84,22.16
628,1715532595660,-0.67,-0.24,0.79,-162.23,-136.84,22.16
629,1715532595670,-0.67,-0.24,0.79,-162.23,-136.84,22.16
630,1715532595680,-0.14500000000000002,-0.3075,0.7825,-143.64499999999998,-87.7225,-89.26
631,1715532595690,0.03,-0.33,0.78,-137.45,-71.35,-126.4
632,1715532595700,0.03,-0.33,0.78,-137.45,-71.35,-126.4
633,1715532595710,0.03,-0.33,0.78,-137.45,-71.35,-126.4
634,1715532595720,-0.3,-0.45,0.38999999999999996,-90.98333333333333,-10.963333333333331,-231.46666666666667
635,1715532595730,-0.3,-0.45,0.39,-67.75,19.23,-284.0
636,1715532595740,-0.3,-0.45,0.39,-67.75,19.23,-284.0
637,1715532595750,-0.3,-0.45,0.39,-67.75,19.23,-284.0
638,1715532595760,-0.58,-0.46,0.06,-125.43,-37.11,-317.81
639,1715532595770,-0.58,-0.46,0.06,-125.43,-37.11,-317.81
640,1715532595780,-0.58,-0.46,0.06,-125.43,-37.11,-317.81
641,1715532595790,-0.58,-0.46,0.06,-125.43,-37.11,-317.81
642,1715532595800,-0.58,-0.46,0.06,-125.43,-37.11,-317.81
643,1715532595810,-0.58,-0.46,0.06,-125.43,-37.11,-317.81
644,1715532595820,-0.58,-0.46,0.06,-125.43,-37.11,-317.81
645,1715532595830,-0.58,-0.46,0.06,-125.43,-37.11,-317.81
646,1715532595840,-0.58,-0.46,0.06,-125.43,-37.11,-317.81
647,1715532595850,-0.58,-0.46,0.06,-125.43,-37.11,-317.81
648,1715532595860,-0.58,-0.46,0.06,-125.43,-37.11,-317.81
649,1715532595870,-1.2866666666666666,0.20000000000000004,0.14666666666666667,-155.35666666666665,24.963333333333335,-269.7966666666667
650,1715532595880,-1.64,0.53,0.19,-141.54,58.59,-215.64
651,1715532595890,-1.64,0.53,0.19,-141.54,58.59,-215.64
652,1715532595900,-1.64,0.53,0.19000000000000003,-141.54,58.59,-215.64
653,1715532595910,-1.64,0.53,0.19,-141.54,58.59,-215.64
654,1715532595920,-2.74,1.18,0.53,-100.65,16.85,-191.28
655,1715532595930,-2.74,1.18,0.53,-100.65,16.85,-191.28
656,1715532595940,-2.74,1.18,0.53,-100.65,16.85,-191.28
657,1715532595950,-2.8466666666666662,1.4000000000000001,0.4366666666666667,-100.65000000000002,16.85,-191.28
658,1715532595960,-2.9,1.51,0.39,-38.76,46.370000000000005,-57.1125
659,1715532595970,-2.9,1.51,0.39,-18.13,56.21,-12.39
660,1715532595980,-2.9,1.51,0.39,-18.13,56.21,-12.39
661,1715532595990,-2.9,1.51,0.39,-18.13,56.21,-12.39
662,1715532596000,-2.9,1.51,0.39,-18.13,56.21,-12.39
663,1715532596010,-2.9,1.51,0.38999999999999996,-18.13,56.21,-12.39
664,1715532596020,-2.9,1.51,0.39,-18.13,56.21,-12.39
665,1715532596030,-2.9,1.51,0.39,-18.13,56.21,-12.39
666,1715532596040,-2.9,1.51,0.39,-18.13,56.21,-12.39
667,1715532596050,-2.9,1.51,0.39,-18.13,56.21,-12.39
668,1715532596060,-2.6025,1.3375,0.4125,-4.747499999999999,42.4475,22.965
669,1715532596070,-1.71,0.82,0.48,102.6,-19.59,215.52
670,1715532596080,-1.71,0.82,0.48,102.6,-19.59,215.52
671,1715532596090,-1.71,0.82,0.48,102.6,-19.59,215.52
672,1715532596100,-1.71,0.82,0.48,102.6,-19.59,215.52
673,1715532596110,-1.335,0.5549999999999999,0.395,97.96,-51.115,243.44
674,1715532596120,-0.96,0.29,0.31,93.32,-82.64,271.36
675,1715532596130,-0.96,0.29,0.31,93.32,-82.64,271.36
676,1715532596140,-0.93,0.10333333333333332,0.3666666666666667,93.32,-82.64,271.36
677,1715532596150,-0.87,-0.27,0.48,145.51,-55.24,307.07
678,1715532596160,-0.8699999999999999,-0.27,0.48,145.51,-55.239999999999995,307.07
679,1715532596170,-0.87,-0.27,0.48,145.51,-55.24,307.07
680,1715532596180,-0.9500000000000001,-0.45,0.48,190.23000000000002,-36.36000000000001,327.8233333333333
681,1715532596190,-0.99,-0.54,0.48,212.59,-26.92,338.2
682,1715532596200,-0.99,-0.54,0.48,212.59,-26.92,338.2
683,1715532596210,-0.9899999999999999,-0.54,0.48,212.59,-26.92,338.2
684,1715532596220,-0.8775,-0.36,0.38249999999999995,230.9425,-11.305,317.275
685,1715532596230,-0.84,-0.3,0.35,237.06,-6.1,310.3
686,1715532596240,-0.84,-0.3,0.35,237.06,-6.1,310.3
687,1715532596250,-0.84,-0.3,0.3499999999999999,237.06000000000003,-6.099999999999999,310.3
688,1715532596260,-0.71,0.24,-0.15,278.9925,31.939999999999998,224.29000000000002
689,1715532596270,-0.71,0.24,-0.15,292.97,44.62,195.62
690,1715532596280,-0.71,0.24,-0.15,292.97,44.62,195.62
691,1715532596290,-0.71,0.24,-0.15,292.97,44.62,195.62
692,1715532596300,-0.7,0.45,-0.1,87.83,141.72,102.97
693,1715532596310,-0.7,0.45,-0.1,87.83,141.72,102.97
694,1715532596320,-0.7,0.45,-0.1,87.83,141.72,102.97
695,1715532596330,-0.7,0.45,-0.1,87.83,141.72,102.97
696,1715532596340,-0.7,0.45,-0.1,87.83,141.72,102.97
697,1715532596350,-0.7,0.45,-0.1,87.83,141.72,102.97
698,1715532596360,-0.7,0.45,-0.1,87.83,141.72,102.97
699,1715532596370,-0.7,0.45,-0.1,87.83,141.72,102.97
700,1715532596380,-0.6999999999999998,0.45,-0.10000000000000002,87.83,141.72,102.96999999999998
701,1715532596390,-0.7,0.45,-0.1,87.83,141.72,102.97
702,1715532596400,-0.175,0.14250000000000002,0.125,-118.12,19.912499999999998,-23.15
703,1715532596410,-0.0975,-0.32,0.515,-174.41000000000003,11.505,-157.84
704,1715532596420,-0.13,-0.44,0.62,-162.05,43.7,-250.49
705,1715532596430,-0.13,-0.44,0.62,-162.05,43.7,-250.49
706,1715532596440,-0.13,-0.44,0.62,-162.05,43.7,-250.49
707,1715532596450,-0.84,-0.77,0.64,-42.48,19.1,-394.1
708,1715532596460,-0.84,-0.77,0.64,-42.48,19.1,-394.1
709,1715532596470,-0.84,-0.77,0.64,-42.48,19.1,-394.1000000000001
710,1715532596480,-0.84,-0.77,0.64,-42.48,19.1,-394.1
711,1715532596490,-1.21,-0.28,0.39,-61.83,-41.14,-299.13
712,1715532596500,-1.21,-0.28,0.39,-61.83,-41.14,-299.13
713,1715532596510,-1.21,-0.28,0.39,-61.83,-41.14,-299.13
714,1715532596520,-1.21,-0.28,0.38999999999999996,-61.830000000000005,-41.14,-299.13
715,1715532596530,-1.21,-0.28,0.39,-61.83,-41.14,-299.13
716,1715532596540,-1.21,-0.28,0.39,-61.83,-41.14,-299.13
717,1715532596550,-1.21,-0.28,0.39,-61.83,-41.14,-299.13
718,1715532596560,-1.21,-0.28,0.38999999999999996,-61.830000000000005,-41.14,-299.13
719,1715532596570,-1.21,-0.28,0.39,-61.83,-41.14,-299.13
720,1715532596580,-1.21,-0.28,0.39,-61.83,-41.14,-299.13
721,1715532596590,-0.69,0.19,0.33,-126.16,-88.99,-203.06
722,1715532596600,-1.075,0.505,0.36,-126.16,-88.99,-203.06
723,1715532596610,-1.46,0.82,0.38999999999999996,-126.16000000000001,-88.99,-203.06000000000003
724,1715532596620,-1.46,0.82,0.39,-134.22,-37.41,-218.2
725,1715532596630,-1.46,0.82,0.38999999999999996,-134.22,-37.41,-218.19999999999996
726,1715532596640,-2.18,1.222,0.882,-134.22,-37.41,-218.2
727,1715532596650,-2.66,1.49,1.21,-195.18999999999997,-100.95,-156.07
728,1715532596660,-2.66,1.49,1.21,-195.19,-100.95,-156.07
729,1715532596670,-2.66,1.49,1.21,-195.19,-100.95,-156.07
730,1715532596680,-2.7575000000000003,1.715,1.15,-126.345,-53.19,-85.725
731,1715532596690,-2.79,1.79,1.13,-57.5,-5.43,-15.38
732,1715532596700,-2.79,1.79,1.13,-57.5,-5.43,-15.38
733,1715532596710,-2.79,1.79,1.13,-57.5,-5.43,-15.38
734,1715532596720,-2.35,1.52,1.06,-60.55,-50.415000000000006,35.370000000000005
735,1715532596730,-2.35,1.52,1.06,-63.6,-95.4,86.12
736,1715532596740,-2.35,1.5200000000000002,1.06,-63.6,-95.40000000000002,86.12
737,1715532596750,-2.35,1.52,1.06,-63.6,-95.4,86.12
738,1715532596760,-2.15,1.4100000000000001,0.93,1.3099999999999987,-45.655,123.655
739,1715532596770,-1.95,1.3,0.8,66.22,4.09,161.19
740,1715532596780,-1.95,1.3,0.8000000000000002,66.22,4.09,161.19
741,1715532596790,-1.7675,1.19,0.6575000000000001,66.22,4.09,161.19
742,1715532596800,-1.22,0.86,0.23,187.19,-7.02,191.65
743,1715532596810,-1.22,0.86,0.23,187.19,-7.02,191.65
744,1715532596820,-1.22,0.86,0.23,187.18999999999997,-7.02,191.65
745,1715532596830,-1.22,0.86,0.23000000000000004,187.19,-7.019999999999999,191.65
746,1715532596840,-1.22,0.86,0.23,187.18999999999997,-7.02,191.65
747,1715532596850,-1.22,0.86,0.23,187.19,-7.02,191.65
748,1715532596860,-1.22,0.86,0.23,187.19,-7.02,191.65
749,1715532596870,-1.22,0.86,0.23,187.18999999999997,-7.02,191.65
750,1715532596880,-1.22,0.86,0.23,187.19,-7.02,191.65
751,1715532596890,-1.22,0.86,0.23,187.19,-7.02,191.65
752,1715532596900,-1.22,0.86,0.23,187.19,-7.02,191.65
753,1715532596910,-1.22,0.86,0.23,187.19,-7.02,191.65
754,1715532596920,-0.9199999999999999,0.2966666666666667,0.18333333333333335,221.35,-14.833333333333334,236.51
755,1715532596930,-0.62,-0.42,0.28,289.67,-30.46,326.23
756,1715532596940,-0.62,-0.42000000000000004,0.28,289.67,-30.46,326.23
757,1715532596950,-0.32,0.26,0.21,272.89,13.85,302.8
758,1715532596960,-0.32,0.26,0.21,272.89,13.85,302.8
759,1715532596970,-0.32,0.26,0.21,272.89,13.85,302.8
760,1715532596980,-0.215,0.36,0.22,272.89,13.85,302.8
761,1715532596990,0.1,0.66,0.25,303.65,201.54,103.09
762,1715532597000,0.1,0.66,0.25,303.65,201.54,103.09
763,1715532597010,0.1,0.66,0.25,303.65,201.54,103.09
764,1715532597020,-0.304,0.536,0.32599999999999996,303.65,201.54,103.09
765,1715532597030,-0.91,0.35,0.44,115.0025,268.4625,-26.779999999999994
766,1715532597040,-0.91,0.35,0.44,52.12,290.77,-70.07
767,1715532597050,-0.91,0.35,0.44,52.12,290.77,-70.07
768,1715532597060,-0.91,0.3499999999999999,0.44,52.12,290.77,-70.07
769,1715532597070,-0.91,0.35,0.44,52.12,290.77,-70.07
770,1715532597080,-0.91,0.35,0.44,52.12,290.77,-70.07
771,1715532597090,-0.91,0.35,0.44,52.12,290.77,-70.07
772,1715532597100,-0.91,0.35,0.44,52.12,290.77,-70.07
773,1715532597110,-0.6366666666666667,0.07999999999999997,0.5766666666666667,-42.54333333333334,131.14333333333332,-112.95666666666666
774,1715532597120,-0.09,-0.46,0.85,-231.87,-188.11,-198.73
775,1715532597130,-0.09,-0.46,0.85,-231.87,-188.11,-198.73
776,1715532597140,-0.63,-0.5533333333333333,0.79,-187.90666666666667,-132.83333333333334,-222.75666666666666
777,1715532597150,-0.9,-0.6,0.76,-99.98,-22.28,-270.81
778,1715532597160,-0.9,-0.6,0.76,-99.98,-22.28,-270.81
779,1715532597170,-0.9,-0.6,0.76,-99.98,-22.28,-270.81
780,1715532597180,-1.15,-0.38000000000000006,0.45,-116.27,-39.06,-323.79
781,1715532597190,-1.15,-0.38,0.45,-116.27,-39.06,-323.79
782,1715532597200,-1.15,-0.38,0.45,-116.27,-39.06,-323.79
783,1715532597210,-1.15,-0.38,0.45,-116.27,-39.06,-323.79
784,1715532597220,-0.94,-0.3,0.15,-99.37,-105.34999999999998,-255.92
785,1715532597230,-0.94,-0.3,0.15,-99.37,-105.35,-255.92
786,1715532597240,-0.94,-0.3,0.15,-99.37,-105.35,-255.92
787,1715532597250,-0.9033333333333333,-0.19333333333333333,0.07333333333333332,-99.37,-105.34999999999998,-255.92
788,1715532597260,-0.83,0.02,-0.08,-129.735,-75.715,-212.065
789,1715532597270,-0.83,0.02,-0.08,-160.1,-46.08,-168.21
790,1715532597280,-0.83,0.02,-0.08,-160.1,-46.08,-168.21
791,1715532597290,-0.9125,0.1125,0.04000000000000001,-160.1,-46.08,-168.21
792,1715532597300,-1.16,0.38999999999999996,0.4000000000000001,-233.28,-90.15000000000002,-95.52
793,1715532597310,-1.16,0.39,0.4,-233.28,-90.15,-95.52
794,1715532597320,-1.16,0.39,0.4,-233.28,-90.15,-95.52
795,1715532597330,-1.4966666666666668,0.8133333333333334,0.7033333333333335,-233.28,-90.15000000000002,-95.52
796,1715532597340,-2.17,1.66,1.31,-226.44,34.0,-94.6
797,1715532597350,-2.17,1.66,1.31,-226.44,34.0,-94.6
798,1715532597360,-2.17,1.66,1.31,-226.44,34.0,-94.6
799,1715532597370,-2.17,1.66,1.31,-226.44,34.0,-94.6
800,1715532597380,-2.17,1.66,1.31,-226.43999999999997,34.0,-94.59999999999998
801,1715532597390,-2.17,1.66,1.31,-226.44,34.0,-94.6
802,1715532597400,-2.17,1.66,1.31,-226.43999999999997,34.0,-94.59999999999998
803,1715532597410,-2.17,1.66,1.31,-226.44,34.0,-94.6
804,1715532597420,-2.17,1.66,1.31,-226.43999999999997,34.0,-94.59999999999998
805,1715532597430,-2.17,1.66,1.31,-226.44,34.0,-94.6
806,1715532597440,-1.9775,1.72,1.385,-181.275,9.142499999999998,-53.235
807,1715532597450,-1.79,1.67,1.33,82.52,135.8,56.03
808,1715532597460,-1.79,1.67,1.33,82.52,135.8,56.03
809,1715532597470,-1.79,1.67,1.33,82.52,135.8,56.03
810,1715532597480,-1.7166666666666668,1.53,1.16,82.52,135.8,56.03
811,1715532597490,-1.57,1.25,0.82,158.02,-51.09,147.83
812,1715532597500,-1.57,1.25,0.82,158.02,-51.09,147.83
813,1715532597510,-1.57,1.25,0.82,158.02,-51.09,147.83
814,1715532597520,-1.4525000000000001,1.085,0.7575,163.78750000000002,-55.21,167.36
815,1715532597530,-1.1,0.59,0.57,181.09,-67.57,225.95
816,1715532597540,-1.1,0.59,0.57,181.09,-67.57,225.95
817,1715532597550,-1.1,0.59,0.57,181.09,-67.57,225.94999999999996
818,1715532597560,-1.1,0.59,0.57,181.09,-67.57,225.95
819,1715532597570,-1.1,0.59,0.57,181.09,-67.57,225.95
820,1715532597580,-1.1,0.59,0.57,181.09,-67.57,225.95
821,1715532597590,-1.1,0.59,0.57,181.09,-67.57,225.94999999999996
822,1715532597600,-1.1,0.59,0.57,181.09,-67.57,225.95
823,1715532597610,-1.1,0.59,0.57,181.09,-67.57,225.95
824,1715532597620,-1.1,0.59,0.57,181.09,-67.57,225.94999999999996
825,1715532597630,-1.1,0.59,0.57,181.09,-67.57,225.95
826,1715532597640,-1.0750000000000002,0.034999999999999976,0.55,248.10500000000002,-66.925,275.055
827,1715532597650,-0.58,-0.23,0.48,286.19,-37.48,292.72
828,1715532597660,-0.58,-0.23,0.48,286.19,-37.48,292.72
829,1715532597670,-0.58,-0.23,0.48,286.19,-37.48,292.72
830,1715532597680,-0.3325,0.2275,0.255,307.94,34.85,220.5325
831,1715532597690,-0.25,0.38,0.18,315.19,58.96,196.47
832,1715532597700,-0.25,0.38,0.18,315.19,58.96,196.47
833,1715532597710,-0.25,0.38000000000000006,0.18000000000000002,315.19,58.96,196.47
834,1715532597720,-0.7,0.22,0.22,163.39000000000001,64.45,108.5325
835,1715532597730,-0.7,0.22,0.22,112.79,66.28,79.22
836,1715532597740,-0.6999999999999998,0.22,0.22,112.79,66.28,79.22
837,1715532597750,-0.5675,0.17,0.195,112.79,66.28,79.22
838,1715532597760,-0.17,0.02,0.12,-57.62,-57.98,44.13
839,1715532597770,-0.17,0.02,0.12,-57.62,-57.98,44.13
840,1715532597780,-0.17,0.02,0.12,-57.62,-57.98,44.13
841,1715532597790,-0.053333333333333344,-0.06,0.17,-101.78666666666668,-72.50666666666666,7.713333333333334
842,1715532597800,0.18000000000000002,-0.22,0.27,-190.12,-101.56,-65.12
843,1715532597810,0.18,-0.22,0.27,-190.12,-101.56,-65.12
844,1715532597820,0.18,-0.22,0.27,-190.12,-101.56,-65.12
845,1715532597830,0.009999999999999995,-0.39,0.385,-198.4675,-48.352500000000006,-93.1975
846,1715532597840,-0.16,-0.56,0.5,-223.51,111.27,-177.43
847,1715532597850,-0.16,-0.56,0.5,-223.51,111.27,-177.43
848,1715532597860,-0.16,-0.56,0.5,-223.51,111.27,-177.42999999999998
849,1715532597870,-0.6325000000000001,-0.6875,0.7175,-220.4425,108.705,-275.2075
850,1715532597880,-0.79,-0.73,0.79,-219.42,107.85,-307.8
851,1715532597890,-0.79,-0.73,0.79,-219.42,107.85,-307.8
852,1715532597900,-0.79,-0.73,0.79,-219.42,107.85,-307.8
853,1715532597910,-0.79,-0.73,0.79,-219.42,107.85,-307.8
854,1715532597920,-0.79,-0.73,0.79,-219.42,107.85,-307.8
855,1715532597930,-0.79,-0.73,0.79,-219.42,107.85,-307.8
856,1715532597940,-0.79,-0.73,0.79,-219.42,107.85,-307.8
857,1715532597950,-0.79,-0.73,0.79,-219.42,107.85,-307.8
858,1715532597960,-0.79,-0.73,0.79,-219.42,107.85,-307.8
859,1715532597970,-0.8633333333333333,-0.3233333333333333,0.43,-206.24,66.26333333333334,-272.9666666666667
860,1715532597980,-0.96,-0.009999999999999995,0.24,-199.65,45.47,-255.55
861,1715532597990,-1.14,0.32,0.21,-199.345,42.875,-258.20500000000004
862,1715532598000,-1.14,0.32,0.21,-199.04,40.28,-260.86
863,1715532598010,-1.14,0.32,0.21,-199.04,40.28,-260.86
864,1715532598020,-1.6800000000000002,0.81,0.42,-191.09,67.38,-265.9875
865,1715532598030,-2.22,1.3,0.63,-167.24,148.68,-281.37
866,1715532598040,-2.22,1.3,0.63,-167.24,148.68,-281.37
867,1715532598050,-2.22,1.3,0.63,-167.24,148.68,-281.37
868,1715532598060,-2.796666666666667,1.6766666666666667,0.7733333333333334,-167.24,148.68,-281.37
869,1715532598070,-3.95,2.43,1.06,-33.51,137.27,-206.73
870,1715532598080,-3.95,2.43,1.06,-33.51,137.27,-206.73
871,1715532598090,-3.95,2.43,1.06,-33.51,137.27,-206.73
872,1715532598100,-3.95,2.43,1.06,-33.51,137.27,-206.73
873,1715532598110,-3.95,2.43,1.06,-33.51,137.27,-206.73
874,1715532598120,-3.95,2.43,1.06,-33.51,137.27,-206.73
875,1715532598130,-3.9500000000000006,2.43,1.06,-33.51,137.27,-206.73
876,1715532598140,-3.95,2.43,1.06,-33.51,137.27,-206.73
877,1715532598150,-3.95,2.43,1.06,-33.51,137.27,-206.73
878,1715532598160,-3.2300000000000004,2.1300000000000003,1.12,-38.45333333333333,73.95666666666666,-114.70666666666666
879,1715532598170,-1.79,1.53,1.24,-48.34,-52.67,69.34
880,1715532598180,-1.62,1.22,0.93,111.69,-50.23,53.96
881,1715532598190,-1.62,1.22,0.93,111.69,-50.23,53.96
882,1715532598200,-1.62,1.22,0.93,111.69,-50.23,53.96
883,1715532598210,-1.495,1.115,0.8125,111.69,-50.23,53.96
884,1715532598220,-1.12,0.8000000000000002,0.46,185.73,-37.41,151.61
885,1715532598230,-1.12,0.8000000000000002,0.46,185.73,-37.41,151.61
886,1715532598240,-1.12,0.8,0.46,185.73,-37.41,151.61
887,1715532598250,-1.125,0.6775,0.375,197.9075,-43.622499999999995,172.805
888,1715532598260,-1.14,0.31,0.12,234.43999999999997,-62.26,236.39
889,1715532598270,-1.14,0.31,0.12,234.44,-62.26,236.39
890,1715532598280,-1.14,0.31,0.12,234.44,-62.26,236.39
891,1715532598290,-1.1366666666666665,0.14666666666666667,0.13999999999999999,255.13,-44.39666666666667,253.15333333333334
892,1715532598300,-1.13,-0.18,0.18,296.51,-8.67,286.68
893,1715532598310,-1.13,-0.18,0.18,296.51,-8.67,286.68
894,1715532598320,-1.13,-0.18000000000000002,0.18000000000000002,296.51,-8.67,286.68
895,1715532598330,-1.07,-0.315,0.30000000000000004,299.96000000000004,26.669999999999998,305.265
896,1715532598340,-1.05,-0.36,0.34,303.41,62.010000000000005,323.85
897,1715532598350,-1.05,-0.36,0.34,303.41,62.01,323.85
898,1715532598360,-1.05,-0.36000000000000004,0.34,303.41,62.01,323.85
899,1715532598370,-0.645,-0.30000000000000004,0.325,265.14,40.83,342.225
900,1715532598380,-0.51,-0.28,0.32,226.86999999999998,19.65,360.6
901,1715532598390,-0.51,-0.28,0.32,226.87,19.65,360.6000000000001
902,1715532598400,-0.51,-0.28,0.32,226.87,19.65,360.6
903,1715532598410,-0.51,-0.28,0.32,226.87,19.65,360.6
904,1715532598420,-0.51,-0.28,0.32,226.87,19.65,360.6
905,1715532598430,-0.51,-0.28,0.32,226.87,19.65,360.6
906,1715532598440,-0.51,-0.28,0.32,226.87,19.65,360.6
907,1715532598450,-0.51,-0.28,0.32,226.87,19.65,360.6
908,1715532598460,-0.51,-0.28,0.32,226.87,19.65,360.6
909,1715532598470,-0.51,-0.28,0.32,226.87,19.65,360.6
910,1715532598480,-0.51,-0.28,0.32,226.87,19.65,360.6000000000001
911,1715532598490,-0.10500000000000001,-0.28750000000000003,0.22,94.315,24.3825,205.86
912,1715532598500,0.31,-0.56,0.23,-281.01,-66.89,-117.61
913,1715532598510,0.31,-0.56,0.23,-281.01,-66.89,-117.61
914,1715532598520,0.16666666666666666,-0.7799999999999999,0.5299999999999999,-277.24333333333334,-60.93,-178.70666666666668
915,1715532598530,-0.12,-1.22,1.13,-269.71,-49.01,-300.9
916,1715532598540,-0.12,-1.22,1.13,-269.71,-49.01,-300.9
917,1715532598550,-0.12,-1.22,1.13,-269.71,-49.01,-300.9
918,1715532598560,-0.8300000000000001,-1.085,1.035,-171.96499999999997,17.825,-362.885
919,1715532598570,-1.54,-0.95,0.94,-74.22,84.66,-424.87
920,1715532598580,-1.54,-0.9499999999999998,0.94,-74.22,84.66,-424.87000000000006
921,1715532598590,-1.54,-0.95,0.94,-74.22,84.66,-424.87
922,1715532598600,-2.2075,-0.27499999999999997,0.7749999999999999,-74.22,84.66,-424.87
923,1715532598610,-2.43,-0.05000000000000001,0.7200000000000001,-74.22,84.66,-424.87000000000006
924,1715532598620,-2.43,-0.05,0.72,-74.22,84.66,-424.87
925,1715532598630,-2.43,-0.05,0.72,-74.22,84.66,-424.87
926,1715532598640,-2.43,-0.05,0.72,-74.22,84.66,-424.87
927,1715532598650,-2.43,-0.05000000000000001,0.7200000000000001,-74.22,84.66,-424.87000000000006
928,1715532598660,-2.43,-0.05,0.72,-74.22,84.66,-424.87
929,1715532598670,-2.43,-0.05,0.72,-74.22,84.66,-424.87
930,1715532598680,-2.43,-0.05000000000000001,0.7200000000000001,-127.66666666666667,0.22666666666666893,-407.76
931,1715532598690,-1.0,-0.05,-0.1,-11.05,68.3,-281.74
932,1715532598700,-1.0,-0.05,-0.1,-11.05,68.3,-281.74
933,1715532598710,-0.995,0.0,-0.10500000000000001,-41.185,39.66,-276.9475
934,1715532598720,-0.98,0.15,-0.12,-131.59,-46.26,-262.57
935,1715532598730,-0.98,0.15,-0.12,-131.59,-46.26,-262.57
936,1715532598740,-0.98,0.15,-0.12,-131.59,-46.26,-262.57
937,1715532598750,-1.4100000000000001,0.31,0.0975,-144.0575,-33.0925,-254.1775
938,1715532598760,-2.7,0.79,0.75,-181.46,6.41,-229.0
939,1715532598770,-2.7000000000000006,0.79,0.75,-181.46,6.41,-229.0
940,1715532598780,-2.7,0.79,0.75,-181.46,6.41,-229.0
941,1715532598790,-3.315,1.4649999999999999,0.9825,-126.3425,-15.565000000000001,-115.9375
942,1715532598800,-3.52,1.6900000000000002,1.06,-107.96999999999998,-22.89,-78.25
943,1715532598810,-3.52,1.69,1.06,-107.97,-22.89,-78.25
944,1715532598820,-3.52,1.69,1.06,-107.97,-22.89,-78.25
945,1715532598830,-2.48,1.3633333333333333,1.0866666666666667,-115.13333333333333,-80.69,-30.316666666666666
946,1715532598840,-1.96,1.2,1.1,-129.46,-196.29,65.55
947,1715532598850,-1.96,1.2,1.1,-129.46,-196.29,65.55
948,1715532598860,-1.96,1.2,1.1,-129.46,-196.29,65.55
949,1715532598870,-2.0825,1.2974999999999999,1.205,-98.97250000000001,-143.70749999999998,69.1525
950,1715532598880,-2.45,1.59,1.52,-7.51,14.04,79.96
951,1715532598890,-2.45,1.59,1.5200000000000002,-7.510000000000001,14.04,79.96
952,1715532598900,-2.45,1.59,1.52,-7.51,14.04,79.96
953,1715532598910,-2.25,1.415,1.33,42.69500000000001,-70.375,131.9
954,1715532598920,-2.05,1.24,1.14,92.9,-154.79,183.84
955,1715532598930,-2.05,1.24,1.14,92.9,-154.79,183.84
956,1715532598940,-2.05,1.24,1.14,92.9,-154.79,183.84
957,1715532598950,-2.05,1.24,1.14,92.9,-154.79,183.84
958,1715532598960,-2.05,1.24,1.14,92.9,-154.79,183.84
959,1715532598970,-2.05,1.24,1.14,92.9,-154.79,183.84
960,1715532598980,-2.05,1.24,1.14,92.9,-154.79,183.84
961,1715532598990,-2.05,1.24,1.14,92.90000000000002,-154.79,183.84
962,1715532599000,-2.05,1.24,1.14,92.9,-154.79,183.84
963,1715532599010,-2.05,1.24,1.14,92.9,-154.79,183.84
964,1715532599020,-1.375,-0.67,0.4475,410.11,22.007499999999997,322.6625
965,1715532599030,-1.35,-0.78,0.4,422.12,37.48,334.29
966,1715532599040,-1.3500000000000003,-0.7799999999999999,0.4000000000000001,422.12000000000006,37.48,334.29
967,1715532599050,-1.35,-0.78,0.4,422.12,37.48,334.29
968,1715532599060,-1.1500000000000001,-0.7333333333333334,0.4066666666666667,394.34999999999997,51.43666666666667,349.99666666666667
969,1715532599070,-1.05,-0.71,0.41,338.81,79.35,381.41
970,1715532599080,-1.05,-0.71,0.41,338.81,79.35,381.41
971,1715532599090,-1.05,-0.71,0.41,338.81,79.35,381.41
972,1715532599100,-0.5475,-0.53,0.2675,322.84749999999997,84.37,355.6225
973,1715532599110,-0.38,-0.47,0.22,274.96,99.43,278.26
974,1715532599120,-0.38,-0.47,0.22,274.96,99.43,278.26
975,1715532599130,-0.38000000000000006,-0.47,0.22,274.96,99.43,278.26
976,1715532599140,-0.38,-0.47,0.22,274.96,99.43,278.26
977,1715532599150,-0.38,-0.47,0.22,274.96,99.43,278.26
978,1715532599160,-0.38000000000000006,-0.47,0.22,274.96,99.43,278.26
979,1715532599170,-0.38,-0.47,0.22,274.96,99.43,278.26
980,1715532599180,-0.38,-0.47,0.22,274.96,99.43,278.26
981,1715532599190,-0.38000000000000006,-0.47,0.22,274.96,99.43,278.26
982,1715532599200,-0.38,-0.47,0.22,274.96,99.43,278.26
983,1715532599210,-0.35,-0.4,0.325,91.125,43.64,154.51
984,1715532599220,-0.024999999999999994,-0.43000000000000005,0.46499999999999997,-133.605,-8.73,-65.125
985,1715532599230,0.27,-0.53,0.5,-174.5,-5.31,-161.01
986,1715532599240,0.27,-0.53,0.5,-174.5,-5.31,-161.01
987,1715532599250,0.165,-0.595,0.52,-168.855,14.602500000000001,-202.02499999999998
988,1715532599260,-0.15,-0.79,0.58,-151.92,74.34,-325.07
989,1715532599270,-0.15,-0.79,0.58,-151.92,74.34,-325.07
990,1715532599280,-0.15,-0.79,0.58,-151.92,74.34,-325.07
991,1715532599290,-0.6799999999999999,-0.9550000000000001,0.6,-148.6375,68.665,-348.63
992,1715532599300,-1.21,-1.12,0.62,-138.79,51.64,-419.31
993,1715532599310,-1.21,-1.12,0.62,-138.79,51.64,-419.31
994,1715532599320,-1.21,-1.12,0.62,-138.79,51.64,-419.31
995,1715532599330,-1.91,-0.7,0.55,-171.08,-50.42,-415.71
996,1715532599340,-1.91,-0.6999999999999998,0.55,-171.08,-50.419999999999995,-415.71
997,1715532599350,-1.91,-0.7,0.55,-171.08,-50.42,-415.71
998,1715532599360,-1.91,-0.7,0.55,-171.08,-50.42,-415.71
999,1715532599370,-1.62,-0.27,0.41,-275.09,-145.39,-308.11
1000,1715532599380,-1.62,-0.27,0.41,-275.09,-145.39,-308.11
1001,1715532599390,-1.62,-0.27,0.41,-275.09,-145.39,-308.11
1002,1715532599400,-1.5950000000000002,-0.17,0.45999999999999996,-248.065,-115.32999999999998,-299.5475
1003,1715532599410,-1.5200000000000002,0.13,0.61,-166.99,-25.149999999999995,-273.86
1004,1715532599420,-1.52,0.13,0.61,-166.99,-25.15,-273.86
1005,1715532599430,-1.52,0.13,0.61,-166.99,-25.15,-273.86
1006,1715532599440,-1.5225,0.23750000000000002,0.5625,-166.99,-25.15,-273.86
1007,1715532599450,-1.53,0.56,0.42,-100.58999999999999,44.01,-194.64
1008,1715532599460,-1.53,0.56,0.42000000000000004,-100.59,44.01,-194.64
1009,1715532599470,-1.53,0.56,0.42,-100.59,44.01,-194.64
1010,1715532599480,-1.53,0.56,0.42,-100.58999999999999,44.01,-194.64
1011,1715532599490,-1.53,0.56,0.42,-100.59,44.01,-194.64
1012,1715532599500,-1.53,0.56,0.42,-100.59,44.01,-194.64
1013,1715532599510,-1.53,0.56,0.42,-100.59,44.01,-194.64
1014,1715532599520,-1.53,0.56,0.42,-100.58999999999999,44.01,-194.64
1015,1715532599530,-1.53,0.56,0.42,-100.59,44.01,-194.64
1016,1715532599540,-2.185,1.045,0.7849999999999999,-120.485,-2.530000000000001,-82.365
1017,1715532599550,-2.84,1.53,1.15,-140.38,-49.07,29.91
1018,1715532599560,-2.39,1.3425,1.075,-56.8825,-12.905,83.00999999999999
1019,1715532599570,-2.24,1.28,1.05,-29.05,-0.85,100.71
1020,1715532599580,-2.24,1.28,1.05,-29.05,-0.85,100.71
1021,1715532599590,-2.24,1.28,1.05,-29.05,-0.85,100.71
1022,1715532599600,-2.4125,1.3175000000000001,1.0875000000000001,-14.08,-8.68,174.96
1023,1715532599610,-2.47,1.33,1.1,-9.09,-11.29,199.71
1024,1715532599620,-2.47,1.33,1.1,-9.09,-11.29,199.71
1025,1715532599630,-2.47,1.33,1.1,-9.09,-11.29,199.71
1026,1715532599640,-1.68,0.91,0.78,94.97,17.58,257.45
1027,1715532599650,-1.68,0.91,0.78,94.97,17.58,257.45
1028,1715532599660,-1.68,0.91,0.78,94.97,17.58,257.45
1029,1715532599670,-1.68,0.91,0.78,94.97,17.58,257.45
1030,1715532599680,-1.68,0.91,0.7799999999999999,94.96999999999998,17.58,257.45
1031,1715532599690,-1.68,0.91,0.78,94.97,17.58,257.45
1032,1715532599700,-1.68,0.91,0.78,94.97,17.58,257.45
1033,1715532599710,-1.68,0.91,0.78,94.97,17.58,257.45
1034,1715532599720,-1.68,0.91,0.78,94.97,17.58,257.45
1035,1715532599730,-1.5833333333333333,0.5966666666666667,0.5366666666666667,118.16333333333334,-11.780000000000001,289.39
1036,1715532599740,-1.39,-0.03,0.05,164.55,-70.5,353.27
1037,1715532599750,-1.3575,-0.16,0.11,164.55,-70.5,353.27
1038,1715532599760,-1.26,-0.55,0.29,219.42,-46.33,375.06
1039,1715532599770,-1.26,-0.55,0.29,219.42,-46.33,375.06
1040,1715532599780,-1.26,-0.55,0.29,219.42,-46.330000000000005,375.06
1041,1715532599790,-1.13,-0.55,0.33999999999999997,217.345,-51.575,373.565
1042,1715532599800,-1.0,-0.55,0.39,215.27,-56.82,372.07
1043,1715532599810,-1.0,-0.55,0.38999999999999996,215.27,-56.82,372.07
1044,1715532599820,-1.0,-0.55,0.39,215.27,-56.82,372.07
1045,1715532599830,-0.34,-0.55,0.28,223.875,-33.17,348.3275
1046,1715532599840,-0.34,-0.55,0.28,249.69,37.78,277.1
1047,1715532599850,-0.34,-0.55,0.28,249.68999999999997,37.78,277.1
1048,1715532599860,-0.34,-0.55,0.28,249.69,37.78,277.1
1049,1715532599870,-0.41,-0.25,0.02,228.09,231.75,138.61
1050,1715532599880,-0.41,-0.25,0.02,228.09,231.75,138.61
1051,1715532599890,-0.41,-0.25,0.02,228.09,231.75,138.61
1052,1715532599900,-0.475,-0.26,0.03,228.09,231.75,138.61
1053,1715532599910,-0.67,-0.29,0.06,-30.4,44.43,2.08
1054,1715532599920,-0.67,-0.29,0.06,-30.399999999999995,44.43,2.08
1055,1715532599930,-0.67,-0.29,0.06,-30.4,44.43,2.08
1056,1715532599940,-0.54,-0.45999999999999996,0.23,-114.14,-13.305000000000003,-104.065
1057,1715532599950,-0.41,-0.63,0.4000000000000001,-197.88,-71.04,-210.21
1058,1715532599960,-0.41,-0.63,0.4,-197.88,-71.04,-210.21
1059,1715532599970,-0.41,-0.63,0.4,-197.88,-71.04,-210.21
1060,1715532599980,-0.41,-0.63,0.4,-197.88,-71.04,-210.21
1061,1715532599990,-0.41,-0.63,0.4000000000000001,-197.88,-71.04,-210.21
1062,1715532600000,-0.41,-0.63,0.4,-197.88,-71.04,-210.21
1063,1715532600010,-0.41,-0.63,0.4,-197.88,-71.04,-210.21
1064,1715532600020,-0.41,-0.63,0.4,-197.88,-71.04,-210.21
1065,1715532600030,-0.41,-0.63,0.4,-197.88,-71.04,-210.21
1066,1715532600040,-0.41,-0.63,0.4,-197.88,-71.04,-210.21
1067,1715532600050,-0.41,-0.63,0.4000000000000001,-197.88,-71.04,-210.21
1068,1715532600060,-0.41,-0.63,0.4,-197.88,-71.04,-210.21
1069,1715532600070,-1.23,-0.08,0.47,-196.59,-79.04,-287.6
1070,1715532600080,-1.23,-0.08,0.47,-196.59,-79.04,-287.6
1071,1715532600090,-1.23,-0.08,0.47,-196.59,-79.04,-287.6
1072,1715532600100,-1.0125,-0.0275,0.3725,-188.015,-66.1,-273.255
1073,1715532600110,-0.94,-0.01,0.34,-179.43999999999997,-53.16,-258.91
1074,1715532600120,-0.94,-0.01,0.34,-179.44,-53.16,-258.91
1075,1715532600130,-0.94,-0.01,0.34,-179.44,-53.16,-258.91
1076,1715532600140,-0.9199999999999999,-0.0025000000000000005,0.28250000000000003,-169.72,-48.2325,-258.6975
1077,1715532600150,-0.86,0.02,0.11,-140.56,-33.45,-258.06
1078,1715532600160,-0.86,0.02,0.11,-140.56,-33.45,-258.06
1079,1715532600170,-0.86,0.02,0.11,-140.56,-33.45,-258.06
1080,1715532600180,-0.86,0.02,0.11,-140.56,-33.45,-258.06
1081,1715532600190,-0.86,0.02,0.11,-140.56,-33.45,-258.06
1082,1715532600200,-0.86,0.02,0.11,-140.56,-33.45,-258.06
1083,1715532600210,-0.86,0.02,0.11,-140.56,-33.45,-258.06
1084,1715532600220,-0.86,0.02,0.11,-140.56,-33.45,-258.06
1085,1715532600230,-0.86,0.02,0.11,-140.56,-33.45,-258.06
1086,1715532600240,-0.86,0.02,0.11,-140.56,-33.45,-258.06
1087,1715532600250,-0.86,0.02,0.11,-140.56,-33.45,-258.06
1088,1715532600260,-2.965,1.7425,1.255,-264.525,67.1675,-19.062499999999996
1089,1715532600270,-2.84,1.76,1.49,-251.95,68.48,40.95
1090,1715532600280,-2.84,1.76,1.49,-251.95,68.48,40.95
1091,1715532600290,-2.33,1.4675,1.685,-155.8675,24.125,84.81
1092,1715532600300,-2.16,1.37,1.75,-123.84,9.34,99.43
1093,1715532600310,-2.16,1.37,1.75,-123.84,9.34,99.43
1094,1715532600320,-2.16,1.37,1.75,-123.83999999999999,9.34,99.43
1095,1715532600330,-2.325,1.2650000000000001,1.795,-6.285000000000002,-28.242500000000003,104.69500000000001
1096,1715532600340,-2.38,1.23,1.81,32.9,-40.77,106.45
1097,1715532600350,-2.38,1.23,1.81,32.9,-40.77,106.45
1098,1715532600360,-2.38,1.23,1.8099999999999998,32.9,-40.77,106.45
1099,1715532600370,-1.87,0.81,1.11,167.8025,-107.23499999999999,136.1125
1100,1715532600380,-1.87,0.81,1.11,212.77,-129.39,146.0
1101,1715532600390,-1.87,0.81,1.11,212.77,-129.39,146.0
1102,1715532600400,-1.87,0.81,1.11,212.77,-129.39,146.0
1103,1715532600410,-1.6600000000000001,0.51,0.435,309.6325,-123.765,184.085
1104,1715532600420,-1.59,0.41,0.21,341.92,-121.89,196.78
1105,1715532600430,-1.59,0.41,0.21,341.92,-121.89,196.78
1106,1715532600440,-1.42,0.06,-0.06999999999999999,341.92,-121.89,196.78
1107,1715532600450,-1.25,-0.29,-0.3499999999999999,425.42,-41.38,271.18
1108,1715532600460,-1.25,-0.29,-0.35,425.42,-41.38,271.18
1109,1715532600470,-1.25,-0.29,-0.3499999999999999,425.42,-41.38,271.18
1110,1715532600480,-1.1949999999999998,-0.485,-0.275,358.89,29.569999999999997,310.33500000000004
1111,1715532600490,-1.14,-0.68,-0.2,292.36,100.52,349.49
1112,1715532600500,-1.14,-0.68,-0.2,292.36,100.52,349.49
1113,1715532600510,-1.14,-0.68,-0.20000000000000004,292.36,100.52,349.49
1114,1715532600520,-1.14,-0.68,-0.2,292.36,100.52,349.49
1115,1715532600530,-1.14,-0.68,-0.2,292.36,100.52,349.49
1116,1715532600540,-1.14,-0.68,-0.20000000000000004,292.36,100.52,349.49
1117,1715532600550,-1.14,-0.68,-0.2,292.36,100.52,349.49
1118,1715532600560,-1.14,-0.68,-0.2,292.36,100.52,349.49
1119,1715532600570,-1.14,-0.68,-0.2,292.36,100.52,349.49
1120,1715532600580,-1.14,-0.68,-0.20000000000000004,292.36,100.52,349.49
1121,1715532600590,-0.7549999999999999,-0.47500000000000003,0.125,226.075,82.395,333.15999999999997
1122,1715532600600,0.14,0.15,0.37,159.79,64.27,316.83
1123,1715532600610,0.14,0.15,0.37,157.225,70.53999999999999,162.2475
1124,1715532600620,0.14,0.15,0.37,156.37,72.63,110.72
1125,1715532600630,-0.0975,0.0975,0.425,132.6725,68.115,72.1
1126,1715532600640,-0.81,-0.06,0.59,61.58,54.57,-43.76
1127,1715532600650,-0.81,-0.06,0.59,61.58,54.57,-43.76
1128,1715532600660,-0.81,-0.06,0.59,61.58,54.57,-43.76
1129,1715532600670,-0.73,-0.06333333333333334,0.5433333333333333,61.580000000000005,54.57,-43.76
1130,1715532600680,-0.57,-0.07,0.45,-36.93,-111.57,-123.54
1131,1715532600690,-0.57,-0.07,0.45,-36.93,-111.57,-123.54
1132,1715532600700,-0.57,-0.07,0.45,-36.93,-111.57,-123.54
1133,1715532600710,-0.57,-0.07,0.45,-36.93,-111.57,-123.54
1134,1715532600720,-0.57,-0.07,0.45,-36.93,-111.57,-123.54
1135,1715532600730,-0.57,-0.07,0.45,-36.93,-111.57,-123.54
1136,1715532600740,-0.57,-0.07,0.45,-36.93,-111.57,-123.54
1137,1715532600750,-0.57,-0.07,0.45,-36.93,-111.57,-123.54
1138,1715532600760,-0.57,-0.07,0.45,-36.93,-111.57,-123.54
1139,1715532600770,-0.57,-0.07,0.45,-36.93,-111.57,-123.54
1140,1715532600780,-0.6699999999999999,-0.08333333333333333,0.43333333333333335,-85.43,-128.58,-165.67333333333332
1141,1715532600790,-0.75,-0.2,0.35500000000000004,-202.44,-181.0425,-255.6175
1142,1715532600800,-0.71,-0.23,0.34,-209.11,-187.19,-257.51
1143,1715532600810,-0.71,-0.23,0.34,-209.11,-187.19,-257.51
1144,1715532600820,-0.71,-0.23,0.34,-209.11,-187.18999999999997,-257.51
1145,1715532600830,-0.79,0.07,0.15,-218.035,-133.775,-205.505
1146,1715532600840,-0.79,0.07,0.15,-221.01,-115.97,-188.17
1147,1715532600850,-0.79,0.07,0.15,-221.01,-115.96999999999998,-188.17
1148,1715532600860,-0.785,0.08750000000000001,0.1775,-242.9975,-136.70499999999998,-180.9375
1149,1715532600870,-0.77,0.14,0.26,-308.96,-198.91,-159.24
1150,1715532600880,-0.77,0.14,0.26,-308.96,-198.91,-159.24
1151,1715532600890,-0.77,0.14,0.26,-308.96,-198.91,-159.24
1152,1715532600900,-0.8333333333333334,0.28,0.25,-308.96,-198.91,-159.24
1153,1715532600910,-0.96,0.56,0.23,-308.96,-198.91,-159.24
1154,1715532600920,-0.96,0.56,0.23,-124.76,76.6,-130.55
1155,1715532600930,-0.96,0.56,0.23,-124.76,76.6,-130.55
1156,1715532600940,-1.7,1.1199999999999999,0.1366666666666667,-156.53333333333333,70.29333333333334,-103.81666666666668
1157,1715532600950,-2.07,1.4,0.09,-172.42,67.14,-90.45
1158,1715532600960,-2.07,1.4,0.09,-172.42,67.14,-90.45
1159,1715532600970,-2.07,1.3999999999999997,0.09000000000000001,-172.42,67.14,-90.45
1160,1715532600980,-2.5949999999999998,1.8575,0.8400000000000001,-191.64749999999998,85.2375,-54.042500000000004
1161,1715532600990,-2.77,2.01,1.09,-249.33,139.53,55.18
1162,1715532601000,-2.77,2.01,1.09,-249.33,139.53,55.18
1163,1715532601010,-2.77,2.01,1.09,-249.33,139.53,55.18
1164,1715532601020,-2.07,1.83,1.02,-177.57333333333335,104.83999999999999,83.5
1165,1715532601030,-2.07,1.83,1.02,-34.06,35.46,140.14
1166,1715532601040,-2.07,1.83,1.02,-34.06,35.46,140.14
1167,1715532601050,-2.07,1.83,1.02,-34.06,35.46,140.14
1168,1715532601060,-2.07,1.83,1.02,-34.06,35.46,140.14
1169,1715532601070,-2.07,1.83,1.02,-34.06,35.46,140.14
1170,1715532601080,-2.07,1.83,1.02,-34.06,35.46,140.14
1171,1715532601090,-2.07,1.83,1.02,-34.06,35.46,140.14
1172,1715532601100,-2.07,1.83,1.02,-34.06,35.46,140.14
1173,1715532601110,-2.07,1.83,1.02,-34.06,35.46,140.14
1174,1715532601120,-2.19,1.17,0.9499999999999998,123.05,-108.64,106.69
1175,1715532601130,-1.98,1.0474999999999999,0.8125,149.31,-92.77250000000001,125.93
1176,1715532601140,-1.35,0.68,0.4,228.09,-45.17,183.65
1177,1715532601150,-1.35,0.68,0.4,228.09,-45.17,183.65
1178,1715532601160,-1.35,0.68,0.4,228.09,-45.17,183.65
1179,1715532601170,-1.0425,0.2,0.19,278.625,-77.39,229.295
1180,1715532601180,-0.94,0.04,0.12,295.47,-88.13,244.51
1181,1715532601190,-0.94,0.04,0.12,295.47,-88.13,244.51
1182,1715532601200,-0.94,0.04,0.12,295.47,-88.13,244.51
1183,1715532601210,-0.7375,-0.34249999999999997,0.0375,310.89750000000004,-60.807500000000005,275.0875
1184,1715532601220,-0.67,-0.47,0.01,316.04,-51.7,285.28
1185,1715532601230,-0.67,-0.47,0.01,316.04,-51.7,285.28
1186,1715532601240,-0.67,-0.47,0.01,316.04,-51.70000000000001,285.28
1187,1715532601250,-0.67,-0.47,0.01,316.04,-51.7,285.28
1188,1715532601260,-0.67,-0.47,0.01,316.04,-51.7,285.28
1189,1715532601270,-0.67,-0.47,0.01,316.04,-51.7,285.28
1190,1715532601280,-0.67,-0.47,0.01,316.04,-51.7,285.28
1191,1715532601290,-0.67,-0.47,0.01,316.04,-51.7,285.28
1192,1715532601300,-0.67,-0.47,0.01,316.04,-51.70000000000001,285.28
1193,1715532601310,0.25,-0.19,0.23,205.81,-79.83,215.33
1194,1715532601320,0.25,-0.19,0.23,205.81,-79.83,215.33
1195,1715532601330,0.06,0.15,0.23,236.33,145.45,31.25
1196,1715532601340,0.06,0.15,0.23,236.33,145.45,31.25
1197,1715532601350,0.06,0.15,0.23,236.33,145.45,31.25
1198,1715532601360,-0.265,0.21500000000000002,0.33,165.71,139.865,-18.340000000000003
1199,1715532601370,-0.59,0.28,0.43,95.08999999999999,134.28,-67.93
1200,1715532601380,-0.59,0.28,0.43,95.09,134.28,-67.93
1201,1715532601390,-0.59,0.28,0.43,95.09,134.28,-67.93
1202,1715532601400,-0.45999999999999996,0.23500000000000001,0.385,7.445,72.42,-55.940000000000005
1203,1715532601410,-0.33,0.19,0.34,-80.2,10.56,-43.95
1204,1715532601420,-0.33,0.19000000000000003,0.34,-80.2,10.56,-43.95000000000001
1205,1715532601430,-0.33,0.19,0.34,-80.2,10.56,-43.95
1206,1715532601440,-0.2775,-0.0875,0.49750000000000005,-187.77249999999998,-43.41,-144.23999999999998
1207,1715532601450,-0.26,-0.18000000000000002,0.55,-223.63,-61.4,-177.67
1208,1715532601460,-0.26,-0.18,0.55,-223.63,-61.4,-177.67
1209,1715532601470,-0.26,-0.18000000000000002,0.55,-223.63,-61.4,-177.67
1210,1715532601480,-0.6799999999999999,-0.30000000000000004,0.6625,-227.23000000000002,-7.140000000000001,-227.47499999999997
1211,1715532601490,-0.82,-0.34,0.7,-230.83,47.12,-277.28
1212,1715532601500,-0.82,-0.34,0.6999999999999998,-230.83,47.12,-277.28
1213,1715532601510,-0.82,-0.34,0.7,-230.83,47.12,-277.28
1214,1715532601520,-1.39,-0.38,0.73,-223.45,33.08,-347.41
1215,1715532601530,-1.39,-0.38,0.73,-223.45,33.08,-347.41
1216,1715532601540,-1.39,-0.38000000000000006,0.73,-223.44999999999996,33.08,-347.41
1217,1715532601550,-1.39,-0.38,0.73,-223.45,33.08,-347.41
1218,1715532601560,-1.39,-0.38,0.73,-223.45,33.08,-347.41
1219,1715532601570,-1.39,-0.38,0.73,-223.45,33.08,-347.41
1220,1715532601580,-1.39,-0.38000000000000006,0.73,-223.44999999999996,33.08,-347.41
1221,1715532601590,-1.39,-0.38,0.73,-223.45,33.08,-347.41
1222,1715532601600,-1.39,-0.38,0.73,-223.45,33.08,-347.41
1223,1715532601610,-1.39,-0.38,0.73,-223.45,33.08,-347.41
1224,1715532601620,-1.39,-0.38,0.73,-223.45,33.08,-347.41
1225,1715532601630,-1.39,-0.38000000000000006,0.73,-223.44999999999996,33.08,-347.41
1226,1715532601640,-1.25,0.10999999999999999,0.355,-204.345,19.96,-261.595
1227,1715532601650,-1.11,0.6,-0.02,-185.24,6.84,-175.78
1228,1715532601660,-1.11,0.6,-0.02,-185.24,6.84,-175.78
1229,1715532601670,-1.6500000000000001,1.2675,0.07,-185.24,6.84,-175.78
1230,1715532601680,-1.83,1.49,0.10000000000000002,-183.85999999999999,68.44,-177.61333333333334
1231,1715532601690,-1.83,1.49,0.1,-183.17,99.24,-178.53
1232,1715532601700,-1.83,1.49,0.1,-183.17,99.24,-178.53
1233,1715532601710,-3.27,2.14,1.07,-245.0,-25.02,-90.39
1234,1715532601720,-3.27,2.14,1.07,-245.0,-25.02,-90.39
1235,1715532601730,-3.27,2.14,1.07,-245.0,-25.02,-90.39
1236,1715532601740,-3.27,2.14,1.07,-245.0,-25.02,-90.39
1237,1715532601750,-3.27,2.14,1.07,-245.0,-25.02,-90.39
1238,1715532601760,-3.27,2.14,1.07,-245.0,-25.02,-90.39
1239,1715532601770,-3.27,2.14,1.07,-245.0,-25.02,-90.39
1240,1715532601780,-3.27,2.14,1.07,-245.0,-25.02,-90.39
1241,1715532601790,-3.27,2.14,1.07,-245.0,-25.02,-90.39
1242,1715532601800,-3.27,2.14,1.07,-245.0,-25.02,-90.39
1243,1715532601810,-3.27,2.14,1.07,-245.0,-25.02,-90.39
1244,1715532601820,-3.27,2.14,1.07,-245.0,-25.02,-90.39
1245,1715532601830,-2.4975,1.51,0.935,27.880000000000003,-49.0575,124.43249999999999
1246,1715532601840,-2.24,1.3,0.89,118.84,-57.07,196.04
1247,1715532601850,-2.24,1.3,0.89,118.84,-57.07,196.04
1248,1715532601860,-1.9933333333333334,1.06,0.7400000000000001,118.83999999999999,-57.07,196.04
1249,1715532601870,-1.5,0.58,0.44,208.6975,-73.5475,222.8675
1250,1715532601880,-1.5,0.58,0.44,238.65,-79.04,231.81
1251,1715532601890,-1.5,0.58,0.44,238.65,-79.04,231.81
1252,1715532601900,-1.375,0.26999999999999996,0.325,250.6575,-66.30000000000001,251.6325
1253,1715532601910,-1.25,-0.04,0.21,286.68,-28.08,311.1
1254,1715532601920,-1.25,-0.04,0.21,286.68,-28.08,311.1
1255,1715532601930,-1.25,-0.04,0.21,286.68,-28.08,311.1
1256,1715532601940,-1.0474999999999999,-0.4525,0.3375,271.665,-34.349999999999994,336.045
1257,1715532601950,-0.98,-0.59,0.38000000000000006,266.66,-36.44,344.35999999999996
1258,1715532601960,-0.98,-0.59,0.38,266.66,-36.44,344.36
1259,1715532601970,-0.98,-0.59,0.38,266.66,-36.44,344.36
1260,1715532601980,-0.62,-0.56,0.48,268.2066666666667,-29.866666666666664,338.9266666666667
1261,1715532601990,-0.62,-0.56,0.48,271.3,-16.72,328.06
1262,1715532602000,-0.62,-0.56,0.48,271.3,-16.72,328.06
1263,1715532602010,-0.62,-0.56,0.48,271.3,-16.72,328.06
1264,1715532602020,-0.27,-0.36000000000000004,0.38999999999999996,270.75,40.34,240.78
1265,1715532602030,-0.27,-0.36,0.39,270.75,40.34,240.78
1266,1715532602040,-0.27,-0.36,0.39,270.75,40.34,240.78
1267,1715532602050,-0.27,-0.36000000000000004,0.38999999999999996,270.75,40.34,240.78
1268,1715532602060,-0.285,-0.135,0.35250000000000004,174.39000000000001,43.1375,105.9225
1269,1715532602070,-0.29,-0.06,0.34,142.27,44.07,60.97
1270,1715532602080,-0.29,-0.06,0.34,142.27,44.07,60.97
1271,1715532602090,-0.29,-0.06,0.34,142.27,44.07,60.97
1272,1715532602100,-0.29,-0.06,0.34,142.27,44.07,60.97
1273,1715532602110,-0.29,-0.06,0.34,142.27,44.07,60.97
1274,1715532602120,-0.29,-0.06,0.34,142.27,44.07,60.97
1275,1715532602130,-0.29,-0.06,0.34,142.27,44.07,60.97
1276,1715532602140,-0.29,-0.06,0.34,142.27,44.07,60.97
1277,1715532602150,-0.29,-0.06,0.34,142.27,44.07,60.97
1278,1715532602160,-0.18999999999999997,-0.1375,0.41000000000000003,67.2275,-2.5,15.8825
1279,1715532602170,-0.22333333333333336,-0.5166666666666666,0.5933333333333333,-180.96666666666667,-122.23,-255.69333333333336
1280,1715532602180,-0.39,-0.59,0.58,-192.5,-112.24,-323.85
1281,1715532602190,-0.39,-0.59,0.58,-192.5,-112.24,-323.85
1282,1715532602200,-0.39,-0.59,0.58,-192.5,-112.23999999999998,-323.85
1283,1715532602210,-1.23,-0.82,0.51,-294.98,-32.47,-317.57
1284,1715532602220,-1.23,-0.82,0.51,-294.98,-32.47,-317.57
1285,1715532602230,-1.23,-0.82,0.51,-294.98,-32.47,-317.57
1286,1715532602240,-1.3133333333333332,-0.8099999999999999,0.5066666666666667,-294.98,-32.47,-317.57
1287,1715532602250,-1.73,-0.76,0.49000000000000005,-324.89,28.32,-337.22
1288,1715532602260,-1.7299999999999998,-0.7600000000000001,0.49,-324.89,28.320000000000004,-337.22
1289,1715532602270,-1.73,-0.76,0.49000000000000005,-324.89,28.32,-337.22
1290,1715532602280,-1.73,-0.76,0.49000000000000005,-324.89,28.32,-337.22
1291,1715532602290,-1.7299999999999998,-0.7600000000000001,0.49,-324.89,28.320000000000004,-337.22
1292,1715532602300,-1.73,-0.76,0.49000000000000005,-324.89,28.32,-337.22
1293,1715532602310,-1.73,-0.76,0.49000000000000005,-324.89,28.32,-337.22
1294,1715532602320,-1.73,-0.76,0.49000000000000005,-324.89,28.32,-337.22
1295,1715532602330,-1.7299999999999998,-0.7600000000000001,0.49,-324.89,28.320000000000004,-337.22
1296,1715532602340,-1.73,-0.76,0.49000000000000005,-324.89,28.32,-337.22
1297,1715532602350,-1.66,-0.485,0.4675,-311.1725,19.6525,-306.58000000000004
1298,1715532602360,-1.518,0.4680000000000001,0.41600000000000004,-218.848,45.334,-213.58800000000002
1299,1715532602370,-1.6200000000000003,0.66,0.44000000000000006,-142.09,122.85999999999999,-211.97999999999996
1300,1715532602380,-1.6200000000000003,0.66,0.44000000000000006,-142.09,122.85999999999999,-211.97999999999996
1301,1715532602390,-1.62,0.66,0.44,-142.09,122.86,-211.98
1302,1715532602400,-2.544,1.3199999999999998,0.662,-116.53,117.18400000000001,-207.58200000000002
1303,1715532602410,-3.16,1.76,0.81,-99.49,113.4,-204.65
1304,1715532602420,-3.16,1.7600000000000002,0.8100000000000002,-99.49,113.4,-204.65
1305,1715532602430,-3.16,1.76,0.81,-99.49,113.4,-204.65
1306,1715532602440,-2.504,1.848,0.898,-104.178,23.216,-39.81
1307,1715532602450,-2.34,1.87,0.92,-105.35,0.67,1.4
1308,1715532602460,-2.34,1.87,0.92,-105.35,0.67,1.4
1309,1715532602470,-2.34,1.87,0.92,-105.35,0.67,1.4
1310,1715532602480,-1.87,1.41,1.24,-80.57,-23.213333333333335,19.04
1311,1715532602490,-1.87,1.41,1.24,-31.01,-70.98,54.32
1312,1715532602500,-1.87,1.41,1.24,-31.01,-70.98,54.32
1313,1715532602510,-1.87,1.41,1.24,-31.01,-70.98,54.32
1314,1715532602520,-2.51,1.5,0.93,168.09,20.69,93.38
1315,1715532602530,-2.51,1.5,0.93,168.09,20.69,93.38
1316,1715532602540,-2.51,1.5,0.93,168.09,20.69,93.38
1317,1715532602550,-2.34,1.3475,0.7725000000000001,168.09,20.69,93.38
1318,1715532602560,-1.83,0.89,0.3,196.9,-72.02,200.5
1319,1715532602570,-1.83,0.89,0.3,196.9,-72.02,200.5
1320,1715532602580,-1.83,0.89,0.3,196.9,-72.02,200.5
1321,1715532602590,-1.83,0.89,0.3,196.9,-72.02,200.5
1322,1715532602600,-1.83,0.89,0.3,196.9,-72.02,200.5
1323,1715532602610,-1.83,0.89,0.3,196.9,-72.02,200.5
1324,1715532602620,-1.83,0.89,0.3,196.9,-72.02,200.5
1325,1715532602630,-1.83,0.89,0.3,196.9,-72.02,200.5
1326,1715532602640,-1.83,0.89,0.3,196.9,-72.02,200.5
1327,1715532602650,-1.83,0.89,0.3,196.9,-72.02,200.5
1328,1715532602660,-1.83,0.89,0.3,196.9,-72.02,200.5
1329,1715532602670,-1.83,0.89,0.3,196.9,-72.02,200.5
1330,1715532602680,-1.83,0.89,0.3,196.9,-72.02,200.5
1331,1715532602690,-1.2375,-0.355,0.5025,267.0325,33.7225,357.835
1332,1715532602700,-1.04,-0.77,0.57,290.41,68.97,410.28
1333,1715532602710,-0.8225,-0.8525,0.45749999999999996,300.7075,124.63499999999999,373.38
1334,1715532602720,-0.75,-0.88,0.42,304.14,143.19,361.08
1335,1715532602730,-0.75,-0.88,0.42,304.14,143.19,361.08
1336,1715532602740,-0.75,-0.88,0.42,304.14,143.19,361.08
1337,1715532602750,-0.38,-0.49,0.02,268.92,184.45,179.32
1338,1715532602760,-0.38000000000000006,-0.49,0.02,268.92,184.44999999999996,179.32000000000002
1339,1715532602770,-0.38,-0.49,0.02,268.92,184.45,179.32
1340,1715532602780,-0.41333333333333333,-0.4666666666666666,0.13333333333333333,178.77,175.13,107.36
1341,1715532602790,-0.48,-0.42,0.36000000000000004,-1.53,156.49,-36.56
1342,1715532602800,-0.48,-0.42,0.36,-1.53,156.49,-36.56
1343,1715532602810,-0.48,-0.42,0.36000000000000004,-1.53,156.49,-36.56
1344,1715532602820,-0.48,-0.42,0.36,-1.53,156.49,-36.56
1345,1715532602830,-0.48,-0.42,0.36000000000000004,-1.53,156.49,-36.56
1346,1715532602840,-0.48,-0.42,0.36,-1.53,156.49,-36.56
1347,1715532602850,-0.48,-0.42,0.36000000000000004,-1.53,156.49,-36.56
1348,1715532602860,-0.48,-0.42,0.36,-1.53,156.49,-36.56
1349,1715532602870,-0.48,-0.42,0.36,-1.53,156.49,-36.56
1350,1715532602880,-0.1275,-0.7575,0.6375,-167.28,-82.8725,-258.2525
1351,1715532602890,-0.01,-0.87,0.73,-222.53,-162.66,-332.15
1352,1715532602900,-0.4025,-0.9,0.8,-201.275,-119.44749999999999,-367.9475
1353,1715532602910,-1.58,-0.9899999999999999,1.01,-137.51,10.19,-475.34
1354,1715532602920,-1.58,-0.99,1.01,-137.51,10.19,-475.34
1355,1715532602930,-1.58,-0.99,1.01,-137.51,10.19,-475.34
1356,1715532602940,-2.465,-0.3975,0.8674999999999999,-144.95749999999998,-18.2975,-475.67499999999995
1357,1715532602950,-2.76,-0.20000000000000004,0.82,-167.3,-103.76,-476.68
1358,1715532602960,-2.76,-0.2,0.82,-167.3,-103.76,-476.68
1359,1715532602970,-2.76,-0.2,0.82,-167.3,-103.76,-476.68
1360,1715532602980,-2.07,0.18000000000000002,0.43,-128.91,-206.79,-338.68
1361,1715532602990,-2.07,0.18,0.43,-128.91,-206.79,-338.68
1362,1715532603000,-2.07,0.18000000000000002,0.43,-128.91,-206.79,-338.68
1363,1715532603010,-1.9375,0.22,0.385,-128.91,-206.79,-338.68
1364,1715532603020,-1.54,0.34,0.25,-93.87,-10.19,-227.78
1365,1715532603030,-1.54,0.34,0.25,-93.87,-10.19,-227.78
1366,1715532603040,-1.54,0.34,0.25,-93.87,-10.19,-227.78
1367,1715532603050,-1.5025,0.42250000000000004,0.145,-97.625,-37.4275,-209.5775
1368,1715532603060,-1.39,0.67,-0.17,-108.89,-119.14,-154.97
1369,1715532603070,-1.39,0.67,-0.17,-108.89,-119.14,-154.97
1370,1715532603080,-1.39,0.67,-0.17,-108.89,-119.14,-154.97
1371,1715532603090,-1.39,0.67,-0.17,-108.89,-119.14,-154.97
1372,1715532603100,-1.69,0.98,0.14,-151.92,-16.17,-109.99
1373,1715532603110,-1.6900000000000002,0.98,0.14,-151.92,-16.17,-109.99
1374,1715532603120,-1.69,0.98,0.14,-151.92,-16.17,-109.99
1375,1715532603130,-1.6900000000000002,0.98,0.14,-151.92,-16.17,-109.99
1376,1715532603140,-1.69,0.98,0.14,-151.92,-16.17,-109.99
1377,1715532603150,-1.69,0.98,0.14,-151.92,-16.17,-109.99
1378,1715532603160,-1.6900000000000002,0.98,0.14,-151.92,-16.17,-109.99
1379,1715532603170,-1.69,0.98,0.14,-151.92,-16.17,-109.99
1380,1715532603180,-1.69,0.98,0.14,-151.92,-16.17,-109.99
1381,1715532603190,-1.6900000000000002,0.98,0.14,-151.92,-16.17,-109.99
1382,1715532603200,-1.69,0.98,0.14,-151.92,-16.17,-109.99
1383,1715532603210,-2.0524999999999998,1.2525,0.5475,-97.94749999999999,-32.7125,83.2675
1384,1715532603220,-2.36,1.31,0.85,-47.85,-11.9,152.65
1385,1715532603230,-2.36,1.31,0.85,-47.85,-11.9,152.65
1386,1715532603240,-2.36,1.31,0.85,-47.85,-11.9,152.65
1387,1715532603250,-2.356666666666667,1.22,0.7399999999999999,15.483333333333334,-6.976666666666667,172.30333333333337
1388,1715532603260,-2.35,1.04,0.52,142.15,2.87,211.61
1389,1715532603270,-2.35,1.04,0.52,142.15,2.8699999999999997,211.61
1390,1715532603280,-2.35,1.04,0.52,142.15,2.87,211.61
1391,1715532603290,-1.45,0.38,0.28,182.25,-13.73,267.21
1392,1715532603300,-1.45,0.38,0.28,182.25,-13.73,267.21
1393,1715532603310,-1.45,0.38,0.28,182.25,-13.73,267.21
1394,1715532603320,-1.45,0.38000000000000006,0.28,182.25,-13.729999999999999,267.21
1395,1715532603330,-1.45,0.38,0.28,182.25,-13.73,267.21
1396,1715532603340,-1.45,0.38,0.28,182.25,-13.73,267.21
1397,1715532603350,-1.45,0.38,0.28,182.25,-13.73,267.21
1398,1715532603360,-1.45,0.38,0.28,182.25,-13.73,267.21
1399,1715532603370,-1.45,0.38000000000000006,0.28,182.25,-13.729999999999999,267.21
1400,1715532603380,-1.45,0.38000000000000006,0.28,182.25,-13.729999999999999,267.21
1401,1715532603390,-1.45,0.38,0.28,182.25,-13.73,267.21
1402,1715532603400,-1.45,0.38000000000000006,0.28,182.25,-13.729999999999999,267.21
1403,1715532603410,-1.25,-0.66,0.36,252.5,87.59,441.28
1404,1715532603420,-1.25,-0.66,0.36000000000000004,252.5,87.58999999999999,441.28
1405,1715532603430,-1.25,-0.66,0.36,252.5,87.59,441.28
1406,1715532603440,-0.61,-0.59,0.13,206.17249999999999,77.375,378.9325
1407,1715532603450,-0.61,-0.59,0.13,190.73,73.97,358.15
1408,1715532603460,-0.61,-0.59,0.13,190.73,73.97,358.1499999999999
1409,1715532603470,-0.61,-0.59,0.13,190.73,73.97,358.15
1410,1715532603480,-0.6166666666666667,-0.48333333333333334,0.11666666666666665,165.38333333333333,102.7,272.90666666666664
1411,1715532603490,-0.63,-0.27,0.09,114.69,160.16,102.42
1412,1715532603500,-0.63,-0.27,0.09000000000000001,114.69,160.16,102.42
1413,1715532603510,-0.7,-0.30000000000000004,0.2,83.3925,130.465,62.685
1414,1715532603520,-0.91,-0.39,0.53,-10.5,41.38,-56.52
1415,1715532603530,-0.91,-0.38999999999999996,0.53,-10.5,41.38,-56.52
1416,1715532603540,-0.91,-0.39,0.53,-10.5,41.38,-56.52
1417,1715532603550,-0.51,-0.325,0.525,-86.275,-40.224999999999994,-104.43
1418,1715532603560,-0.11,-0.26,0.52,-162.05,-121.83,-152.34
1419,1715532603570,-0.11,-0.26,0.52,-162.05,-121.83,-152.34
1420,1715532603580,-0.11,-0.26,0.52,-162.05,-121.83,-152.34
1421,1715532603590,-0.1325,-0.5225,0.625,-133.85,-135.06,-294.9375
1422,1715532603600,-0.14,-0.61,0.66,-124.45,-139.47,-342.47
1423,1715532603610,-0.14,-0.61,0.66,-124.45,-139.47,-342.47
1424,1715532603620,-0.14,-0.61,0.66,-124.45,-139.47,-342.47
1425,1715532603630,-0.755,-0.76,0.6525000000000001,-76.42750000000001,-80.9175,-377.3075
1426,1715532603640,-0.96,-0.81,0.65,-60.42,-61.4,-388.92
1427,1715532603650,-0.96,-0.81,0.65,-60.419999999999995,-61.4,-388.92
1428,1715532603660,-0.96,-0.81,0.65,-60.42,-61.4,-388.92
1429,1715532603670,-0.96,-0.81,0.65,-60.42,-61.4,-388.92
1430,1715532603680,-0.96,-0.81,0.65,-60.419999999999995,-61.4,-388.92
1431,1715532603690,-0.96,-0.81,0.65,-60.42,-61.4,-388.92
1432,1715532603700,-0.96,-0.81,0.65,-60.419999999999995,-61.4,-388.92
1433,1715532603710,-0.96,-0.81,0.65,-60.42,-61.4,-388.92
1434,1715532603720,-0.96,-0.81,0.65,-60.42,-61.4,-388.92
1435,1715532603730,-0.96,-0.81,0.65,-60.42,-61.4,-388.92
1436,1715532603740,-0.98,-0.42333333333333334,0.30333333333333334,-116.37333333333333,-76.33333333333333,-316.5733333333333
1437,1715532603750,-1.68,0.07,-0.125,-118.58,-17.56,-285.5675
1438,1715532603760,-1.91,0.17,-0.21,-109.99,4.52,-287.29
1439,1715532603770,-1.91,0.17,-0.21,-109.99,4.52,-287.29
1440,1715532603780,-2.0324999999999998,0.4025,-0.355,-109.99,4.52,-287.29
1441,1715532603790,-2.4,1.1,-0.79,-157.35,-30.313333333333333,-212.50333333333333
1442,1715532603800,-2.4,1.1,-0.79,-181.03,-47.73,-175.11
1443,1715532603810,-2.4,1.1,-0.79,-181.03,-47.73,-175.11
1444,1715532603820,-2.8333333333333335,1.2133333333333334,-0.7966666666666667,-181.03,-47.73,-175.11
1445,1715532603830,-3.05,1.27,-0.8,-192.26,33.75,-67.32
1446,1715532603840,-3.05,1.27,-0.8,-192.26,33.75,-67.32
1447,1715532603850,-3.0499999999999994,1.27,-0.8000000000000002,-192.26,33.75,-67.32
1448,1715532603860,-3.05,1.27,-0.8,-192.26,33.75,-67.32
1449,1715532603870,-3.05,1.27,-0.8,-192.26,33.75,-67.32
1450,1715532603880,-3.05,1.27,-0.8,-192.26,33.75,-67.32
1451,1715532603890,-3.0499999999999994,1.27,-0.8000000000000002,-192.26,33.75,-67.32
1452,1715532603900,-3.05,1.27,-0.8,-192.26,33.75,-67.32
1453,1715532603910,-3.05,1.27,-0.8,-192.26,33.75,-67.32
1454,1715532603920,-3.05,1.27,-0.8,-192.26,33.75,-67.32
1455,1715532603930,-2.54,1.25,-0.08,-94.73,-29.850000000000005,126.28000000000002
1456,1715532603940,-2.79,1.0,-0.24,164.67,39.31,169.86
1457,1715532603950,-2.7900000000000005,1.0,-0.24,164.67,39.31,169.86
1458,1715532603960,-2.79,1.0,-0.24,164.67,39.31,169.86
1459,1715532603970,-2.5575,0.87,-0.215,151.39499999999998,35.417500000000004,201.5825
1460,1715532603980,-1.86,0.48,-0.14,111.57,23.74,296.75
1461,1715532603990,-1.86,0.48,-0.14,111.57,23.74,296.75
1462,1715532604000,-1.86,0.48,-0.14,111.57,23.74,296.75
1463,1715532604010,-1.525,0.07499999999999998,0.07499999999999998,91.705,-38.24,345.91499999999996
1464,1715532604020,-1.19,-0.33,0.29,71.84,-100.22,395.08
1465,1715532604030,-1.19,-0.33,0.29,71.84,-100.22,395.08
1466,1715532604040,-1.19,-0.33,0.29,71.84,-100.22,395.08
1467,1715532604050,-1.0166666666666666,-0.71,0.38999999999999996,123.06666666666668,-95.54,415.58666666666664
1468,1715532604060,-0.93,-0.9,0.44,148.68,-93.2,425.84
1469,1715532604070,-0.93,-0.9,0.44,148.68,-93.2,425.84
1470,1715532604080,-0.93,-0.9,0.44,148.68,-93.2,425.84
1471,1715532604090,-0.77,-0.8500000000000001,0.405,186.79500000000002,-27.860000000000003,407.105
1472,1715532604100,-0.61,-0.8,0.37,224.91,37.48,388.37
1473,1715532604110,-0.61,-0.8000000000000002,0.36999999999999994,224.91,37.48,388.37000000000006
1474,1715532604120,-0.61,-0.8,0.37,224.91,37.48,388.37
1475,1715532604130,-0.33,-0.45,0.29,222.23,88.81,341.31
1476,1715532604140,-0.33,-0.45,0.29,222.23,88.81,341.31
1477,1715532604150,-0.33,-0.45,0.29,222.23,88.81,341.31
1478,1715532604160,-0.28500000000000003,-0.3425,0.23249999999999998,222.23,88.81,341.31
1479,1715532604170,-0.15,-0.02,0.06,122.5,16.3,194.94999999999996
1480,1715532604180,-0.15,-0.02,0.06,122.5,16.3,194.95
1481,1715532604190,-0.15,-0.02,0.06,122.5,16.3,194.95
1482,1715532604200,-0.15,-0.02,0.06,122.5,16.3,194.94999999999996
1483,1715532604210,-0.15,-0.02,0.06,122.5,16.3,194.95
1484,1715532604220,-0.15,-0.02,0.06,122.5,16.3,194.95
1485,1715532604230,-0.15,-0.02,0.06,122.5,16.3,194.94999999999996
1486,1715532604240,-0.15,-0.02,0.06,122.5,16.3,194.95
1487,1715532604250,-0.15,-0.02,0.06,122.5,16.3,194.94999999999996
1488,1715532604260,-0.155,0.09,0.095,55.144999999999996,-22.155,78.49499999999999
1489,1715532604270,-0.16,0.2,0.13,-12.21,-60.61,-37.96
1490,1715532604280,-0.006666666666666664,0.04,0.19666666666666668,-155.59666666666666,-165.26333333333335,-130.98000000000002
1491,1715532604290,0.07,-0.04,0.23,-227.29,-217.59,-177.49
1492,1715532604300,0.07,-0.04,0.23,-227.29,-217.59,-177.49
1493,1715532604310,0.07,-0.04,0.23,-227.29,-217.59,-177.49
1494,1715532604320,-0.47,-0.4525,0.56,-196.7575,-45.6525,-293.395
1495,1715532604330,-0.65,-0.59,0.67,-186.58,11.660000000000002,-332.03
1496,1715532604340,-0.65,-0.59,0.67,-186.58,11.66,-332.03
1497,1715532604350,-0.65,-0.59,0.67,-186.58,11.660000000000002,-332.03
1498,1715532604360,-1.47,-0.65,0.18,-121.3525,45.485,-346.17499999999995
1499,1715532604370,-1.47,-0.65,0.18000000000000002,-99.61,56.76,-350.89000000000004
1500,1715532604380,-1.47,-0.65,0.18,-99.61,56.76,-350.89
1501,1715532604390,-1.47,-0.65,0.18,-99.61,56.760000000000005,-350.89
1502,1715532604400,-1.47,-0.65,0.18,-99.61,56.76,-350.89
1503,1715532604410,-1.47,-0.65,0.18,-99.61,56.76,-350.89
1504,1715532604420,-1.47,-0.65,0.18000000000000002,-99.61,56.76,-350.89000000000004
1505,1715532604430,-1.47,-0.65,0.18,-99.61,56.76,-350.89
1506,1715532604440,-1.47,-0.65,0.18,-99.61,56.76,-350.89
1507,1715532604450,-1.4766666666666666,-0.47333333333333333,0.17666666666666667,-141.58,46.89333333333334,-331.8066666666667
1508,1715532604460,-1.49,-0.12,0.17,-225.52000000000004,27.160000000000004,-293.64
1509,1715532604470,-1.48,0.2,0.05500000000000001,-208.34,-0.8849999999999998,-261.14
1510,1715532604480,-1.47,0.52,-0.06,-191.16,-28.929999999999996,-228.64
1511,1715532604490,-1.47,0.52,-0.06,-191.16,-28.93,-228.64
1512,1715532604500,-1.47,0.52,-0.06,-191.16,-28.93,-228.64
1513,1715532604510,-1.49,0.6733333333333333,0.10666666666666667,-195.96,-28.929999999999996,-188.11333333333332
1514,1715532604520,-1.5,0.75,0.19,-198.36,-28.93,-167.85
1515,1715532604530,-1.5,0.75,0.19,-198.36,-28.93,-167.85
1516,1715532604540,-1.5,0.75,0.19,-198.36,-28.93,-167.85
1517,1715532604550,-2.4975,1.4925,0.3325,-130.46,20.875000000000004,-150.97
1518,1715532604560,-2.83,1.74,0.38,-62.56,70.68,-134.09
1519,1715532604570,-2.83,1.74,0.38000000000000006,-62.56,70.68,-134.09
1520,1715532604580,-2.83,1.74,0.38,-62.56,70.68,-134.09
1521,1715532604590,-2.5900000000000003,1.7933333333333332,0.32666666666666666,-57.026666666666664,27.46666666666667,-12.836666666666668
1522,1715532604600,-2.47,1.82,0.3,-54.26,5.86,47.79
1523,1715532604610,-2.47,1.82,0.3,-54.26,5.86,47.79
1524,1715532604620,-2.47,1.82,0.3,-54.26,5.86,47.79
1525,1715532604630,-2.4175,1.6475,0.51,-49.497499999999995,-10.760000000000002,86.52000000000001
1526,1715532604640,-2.4,1.59,0.58,-47.91,-16.3,99.43
1527,1715532604650,-2.4,1.59,0.58,-47.91,-16.3,99.43
1528,1715532604660,-2.36,1.5050000000000001,0.57,-17.897499999999997,-8.120000000000001,115.16
1529,1715532604670,-2.24,1.25,0.54,72.14,16.42,162.35
1530,1715532604680,-2.24,1.25,0.54,72.14,16.42,162.35
1531,1715532604690,-2.24,1.25,0.54,72.14,16.42,162.35
1532,1715532604700,-2.24,1.25,0.54,72.14,16.42,162.35
1533,1715532604710,-2.24,1.25,0.54,72.14,16.42,162.35
1534,1715532604720,-2.24,1.25,0.54,72.14,16.42,162.35
1535,1715532604730,-2.24,1.25,0.54,72.14,16.42,162.35
1536,1715532604740,-2.24,1.25,0.54,72.14,16.42,162.35
1537,1715532604750,-2.24,1.25,0.54,72.14,16.42,162.35
1538,1715532604760,-2.24,1.25,0.54,72.14,16.42,162.35
1539,1715532604770,-2.24,1.25,0.54,72.14,16.42,162.35
1540,1715532604780,-1.995,0.8,0.525,104.3675,0.8850000000000016,217.13
1541,1715532604790,-1.26,-0.55,0.48,201.05000000000004,-45.72,381.47
1542,1715532604800,-1.26,-0.55,0.48,201.05,-45.72,381.47
1543,1715532604810,-1.26,-0.55,0.48,201.05000000000004,-45.72,381.47
1544,1715532604820,-1.17,-0.67,0.44,231.66,-28.384999999999998,393.92
1545,1715532604830,-1.08,-0.79,0.4000000000000001,262.27,-11.050000000000002,406.37000000000006
1546,1715532604840,-1.08,-0.79,0.4,262.27,-11.05,406.37
1547,1715532604850,-1.08,-0.79,0.4000000000000001,262.27,-11.050000000000002,406.37000000000006
1548,1715532604860,-0.72,-0.7000000000000001,0.1375,279.94,23.740000000000002,376.15999999999997
1549,1715532604870,-0.6,-0.67,0.05,297.61,58.53,345.95
1550,1715532604880,-0.6,-0.67,0.05000000000000001,297.61,58.53,345.95
1551,1715532604890,-0.6,-0.67,0.05,297.61,58.53,345.95
1552,1715532604900,-0.6,-0.67,0.05,297.61,58.53,345.95
1553,1715532604910,-0.6,-0.67,0.05,297.61,58.53,345.95
1554,1715532604920,-0.6,-0.67,0.05,297.61,58.53,345.95
1555,1715532604930,-0.6,-0.67,0.05000000000000001,297.61,58.53,345.95
1556,1715532604940,-0.6,-0.67,0.05,297.61,58.53,345.95
1557,1715532604950,-0.6,-0.67,0.05,297.61,58.53,345.95
1558,1715532604960,-0.6,-0.67,0.05000000000000001,297.61,58.53,345.95
1559,1715532604970,-0.6,-0.67,0.05,297.61,58.53,345.95
1560,1715532604980,0.037500000000000006,-0.31,0.1025,-39.8975,-40.1175,56.87
1561,1715532604990,0.25,-0.19000000000000003,0.12,-152.4,-73.0,-39.49
1562,1715532605000,0.25,-0.19000000000000003,0.12,-152.4,-73.0,-39.49
1563,1715532605010,0.305,-0.405,0.265,-197.66,-75.9,-159.485
1564,1715532605020,0.36000000000000004,-0.62,0.41,-242.92,-78.8,-279.48
1565,1715532605030,0.36,-0.62,0.41,-242.92,-78.8,-279.48
1566,1715532605040,0.36,-0.62,0.41,-242.92,-78.8,-279.48
1567,1715532605050,-0.6333333333333333,-0.8866666666666667,0.7966666666666665,-242.92,-78.8,-279.48
1568,1715532605060,-1.13,-1.02,0.99,-148.86,66.59,-514.47
1569,1715532605070,-1.13,-1.02,0.99,-148.86,66.59,-514.47
1570,1715532605080,-1.13,-1.02,0.9899999999999999,-148.86,66.59,-514.47
1571,1715532605090,-2.2966666666666664,-0.3933333333333333,0.7233333333333333,-68.70666666666666,16.37666666666667,-505.23
1572,1715532605100,-2.88,-0.08,0.59,-28.63,-8.73,-500.61
1573,1715532605110,-2.88,-0.08,0.59,-28.63,-8.73,-500.61
1574,1715532605120,-2.88,-0.08,0.59,-28.63,-8.73,-500.61
1575,1715532605130,-2.17,0.57,0.06,-280.33,-214.66,-226.62
1576,1715532605140,-2.17,0.57,0.06,-280.33,-214.66,-226.62
1577,1715532605150,-2.17,0.57,0.06,-280.33,-214.66,-226.62
1578,1715532605160,-2.17,0.57,0.06,-280.33,-214.66,-226.62
1579,1715532605170,-1.36,0.4,0.23,-316.41,-56.88,-187.07
1580,1715532605180,-1.36,0.4,0.23,-316.41,-56.88,-187.07
1581,1715532605190,-1.36,0.4,0.23,-316.41,-56.88,-187.07
1582,1715532605200,-1.36,0.4000000000000001,0.23,-316.41,-56.88,-187.07000000000002
1583,1715532605210,-1.16,0.68,0.39,-257.02,-103.58,-163.51
1584,1715532605220,-1.16,0.68,0.39,-257.02,-103.58,-163.51
1585,1715532605230,-1.16,0.68,0.39,-257.02,-103.58,-163.51
1586,1715532605240,-1.16,0.68,0.38999999999999996,-257.02,-103.58,-163.51
1587,1715532605250,-1.16,0.68,0.39,-257.02,-103.58,-163.51
1588,1715532605260,-1.16,0.68,0.39,-257.02,-103.58,-163.51
1589,1715532605270,-1.16,0.68,0.39,-257.02,-103.58,-163.51
1590,1715532605280,-1.16,0.68,0.39,-257.02,-103.58,-163.51
1591,1715532605290,-1.16,0.68,0.38999999999999996,-257.02,-103.58,-163.51
1592,1715532605300,-1.16,0.68,0.39,-257.02,-103.58,-163.51
1593,1715532605310,-1.6025,1.3375,0.9750000000000001,-132.875,29.067499999999995,-84.0425
1594,1715532605320,-1.3075,1.6724999999999999,1.3525,-63.4925,-10.987500000000004,154.7225
1595,1715532605330,-1.08,1.65,1.37,-60.18,-45.84,212.46
1596,1715532605340,-1.08,1.6499999999999997,1.37,-60.18,-45.84,212.46
1597,1715532605350,-1.08,1.65,1.37,-60.18,-45.84,212.46
1598,1715532605360,-1.22,1.32,1.31,-27.77,1.25,208.03500000000003
1599,1715532605370,-1.22,1.32,1.31,4.64,48.34,203.61
1600,1715532605380,-1.22,1.32,1.31,4.64,48.34,203.61
1601,1715532605390,-1.5,1.375,1.19,60.425,36.9575,193.1125
1602,1715532605400,-2.34,1.54,0.83,227.78,2.81,161.62
1603,1715532605410,-2.34,1.54,0.83,227.78,2.81,161.62
1604,1715532605420,-2.34,1.54,0.83,227.78,2.81,161.62
1605,1715532605430,-2.34,1.54,0.83,227.78,2.81,161.62
1606,1715532605440,-2.34,1.54,0.83,227.78,2.81,161.62
1607,1715532605450,-2.34,1.54,0.83,227.78,2.81,161.62
1608,1715532605460,-2.34,1.54,0.83,227.78,2.81,161.62
1609,1715532605470,-2.34,1.54,0.83,227.78,2.81,161.62
1610,1715532605480,-2.34,1.54,0.83,227.78,2.81,161.62
1611,1715532605490,-2.34,1.54,0.83,227.78,2.81,161.62
1612,1715532605500,-2.08,0.8250000000000001,0.44999999999999996,269.68,-74.585,187.195
1613,1715532605510,-1.4733333333333334,-0.21666666666666667,0.21000000000000005,269.34666666666664,-87.48666666666666,291.09666666666664
1614,1715532605520,-1.3,-0.38,0.28,248.23,-55.24,330.26
1615,1715532605530,-1.3,-0.38,0.28,248.23,-55.24,330.26
1616,1715532605540,-1.3,-0.38000000000000006,0.28,248.23,-55.24,330.26
1617,1715532605550,-1.09,-0.485,0.2875,257.08,-45.61,329.03999999999996
1618,1715532605560,-1.02,-0.52,0.29,283.63,-16.72,325.38
1619,1715532605570,-1.02,-0.52,0.29,283.63,-16.72,325.38
1620,1715532605580,-1.02,-0.52,0.29,283.63,-16.72,325.38
1621,1715532605590,-0.7600000000000001,-0.29,0.23,280.33666666666664,52.28666666666667,316.14
1622,1715532605600,-0.76,-0.29,0.23,278.69,86.79,311.52
1623,1715532605610,-0.76,-0.29,0.23,278.69,86.79,311.52
1624,1715532605620,-0.76,-0.29,0.23,278.69,86.79,311.52
1625,1715532605630,-0.24,0.08,0.02,251.22333333333333,90.43333333333334,270.9533333333333
1626,1715532605640,-0.24,0.08,0.02,196.29,97.72,189.82
1627,1715532605650,-0.24,0.08,0.02,196.29,97.71999999999998,189.82000000000002
1628,1715532605660,-0.24,0.08,0.02,196.29,97.72,189.82
1629,1715532605670,-0.3866666666666667,-0.07333333333333332,0.25333333333333335,55.01,43.64000000000001,105.22666666666667
1630,1715532605680,-0.46,-0.15,0.37,-15.63,16.6,62.93
1631,1715532605690,-0.46,-0.15,0.37,-15.63,16.6,62.93
1632,1715532605700,-0.115,-0.22999999999999998,0.375,-36.29,-4.5175,27.4675
1633,1715532605710,0.23,-0.31,0.38000000000000006,-98.27,-67.87,-78.92
1634,1715532605720,0.23,-0.31,0.38,-98.27,-67.87,-78.92
1635,1715532605730,0.23,-0.31,0.38,-98.27,-67.87,-78.92
1636,1715532605740,0.23,-0.31,0.38000000000000006,-98.27,-67.87,-78.92
1637,1715532605750,-0.13,-0.42,0.55,-137.02,-22.83,-287.72
1638,1715532605760,-0.13,-0.42,0.55,-137.02,-22.83,-287.72
1639,1715532605770,-0.13,-0.42,0.55,-137.02,-22.83,-287.72
1640,1715532605780,-0.13,-0.42,0.55,-137.02,-22.83,-287.72
1641,1715532605790,-0.13,-0.42,0.55,-137.02,-22.83,-287.72
1642,1715532605800,-0.13,-0.42,0.55,-137.02,-22.83,-287.72
1643,1715532605810,-0.13,-0.42,0.55,-137.02,-22.83,-287.72
1644,1715532605820,-0.13,-0.42,0.55,-137.02,-22.83,-287.72
1645,1715532605830,-0.5775,-0.37,0.5275000000000001,-97.6375,30.287499999999998,-313.66
1646,1715532605840,-1.92,-0.22,0.46,20.51,189.64,-391.48
1647,1715532605850,-1.92,-0.22,0.46,20.51,189.64,-391.48
1648,1715532605860,-1.6000000000000003,0.28,-0.08,-61.46,-86.18,-301.21
1649,1715532605870,-1.6000000000000003,0.28,-0.08,-61.46,-86.18,-301.21
1650,1715532605880,-1.6,0.28,-0.08,-61.46,-86.18,-301.21
1651,1715532605890,-1.6,0.28,-0.08,-61.46,-86.18,-301.21
1652,1715532605900,-0.7600000000000001,0.22,-0.22,-61.46,-86.18,-301.21
1653,1715532605910,-0.7600000000000001,0.22,-0.22,-61.46,-86.18,-301.21
1654,1715532605920,-0.7600000000000001,0.22,-0.22,-61.46,-86.18,-301.21
1655,1715532605930,-0.6950000000000001,0.25,-0.125,-128.2475,-126.60500000000002,-235.51749999999998
1656,1715532605940,-0.63,0.28,-0.03,-125.49000000000001,-41.60666666666667,-205.7266666666667
1657,1715532605950,-0.63,0.28,-0.03,-112.98,7.63,-201.78
1658,1715532605960,-0.63,0.28,-0.03,-112.98,7.63,-201.78
1659,1715532605970,-0.63,0.28,-0.03,-112.98,7.63,-201.78
1660,1715532605980,-0.63,0.28,-0.03,-112.98,7.63,-201.78
1661,1715532605990,-0.63,0.28,-0.03,-112.98,7.63,-201.78
1662,1715532606000,-0.63,0.28,-0.03,-112.98,7.63,-201.78
1663,1715532606010,-0.63,0.28,-0.03,-112.98,7.63,-201.78
1664,1715532606020,-0.63,0.28,-0.03,-112.98,7.63,-201.78
1665,1715532606030,-3.01,1.3,-0.1,33.2,115.84,-232.85
1666,1715532606040,-3.01,1.3,-0.10000000000000002,33.2,115.83999999999999,-232.85
1667,1715532606050,-2.8,1.78,-0.32,-115.11,-59.39,-26.25
1668,1715532606060,-2.8,1.78,-0.32,-115.11,-59.39,-26.25
1669,1715532606070,-2.8,1.78,-0.32,-115.11,-59.39,-26.25
1670,1715532606080,-2.76,1.7033333333333334,-0.20666666666666667,-115.11,-59.39000000000001,-26.25
1671,1715532606090,-2.68,1.55,0.02,-80.87,-59.81,80.81
1672,1715532606100,-2.68,1.55,0.02,-80.87,-59.81,80.81
1673,1715532606110,-2.68,1.55,0.02,-80.87,-59.81,80.81
1674,1715532606120,-2.4600000000000004,1.3800000000000001,0.0,-46.446666666666665,-45.916666666666664,115.74333333333334
1675,1715532606130,-2.02,1.04,-0.04,22.399999999999995,-18.13,185.61
1676,1715532606140,-2.02,1.04,-0.04,22.4,-18.13,185.61
1677,1715532606150,-2.02,1.04,-0.04,22.399999999999995,-18.13,185.61
1678,1715532606160,-1.74,0.8866666666666667,-0.03666666666666667,42.70333333333334,-26.55333333333333,205.73000000000002
1679,1715532606170,-1.18,0.58,-0.03,83.31,-43.4,245.97
1680,1715532606180,-1.18,0.58,-0.03,83.31,-43.4,245.97
1681,1715532606190,-1.18,0.58,-0.03,83.31,-43.4,245.97
1682,1715532606200,-1.035,0.33499999999999996,0.03,107.97,-42.545,277.31
1683,1715532606210,-0.89,0.09000000000000001,0.09000000000000001,132.63,-41.69,308.65
1684,1715532606220,-0.89,0.09,0.09,132.63,-41.69,308.65
1685,1715532606230,-0.89,0.09000000000000001,0.09000000000000001,132.63,-41.69,308.65
1686,1715532606240,-0.9266666666666667,-0.07333333333333335,0.12666666666666668,162.07,-30.94666666666667,312.9633333333333
1687,1715532606250,-1.0,-0.4,0.2,220.95,-9.46,321.59
1688,1715532606260,-1.0,-0.4000000000000001,0.20000000000000004,220.94999999999996,-9.46,321.59
1689,1715532606270,-1.0,-0.4,0.2,220.95,-9.46,321.59
1690,1715532606280,-1.0,-0.4,0.2,220.95,-9.46,321.59
1691,1715532606290,-1.0,-0.4000000000000001,0.20000000000000004,220.94999999999996,-9.46,321.59
1692,1715532606300,-1.0,-0.4,0.2,220.95,-9.46,321.59
1693,1715532606310,-1.0,-0.4000000000000001,0.20000000000000004,220.94999999999996,-9.46,321.59
1694,1715532606320,-1.0,-0.4000000000000001,0.20000000000000004,220.94999999999996,-9.46,321.59
1695,1715532606330,-1.0,-0.4,0.2,220.95,-9.46,321.59
1696,1715532606340,-1.0,-0.4000000000000001,0.20000000000000004,220.94999999999996,-9.46,321.59
1697,1715532606350,-1.0,-0.4000000000000001,0.20000000000000004,220.94999999999996,-9.46,321.59
1698,1715532606360,-1.1124999999999998,0.1325,0.32,119.325,66.07249999999999,253.8875
1699,1715532606370,-1.15,0.31,0.36,85.45,91.25,231.32
1700,1715532606380,-1.15,0.31,0.36000000000000004,85.45,91.25,231.32000000000002
1701,1715532606390,-1.03,0.17333333333333334,0.39666666666666667,68.13666666666667,119.06,207.92333333333332
1702,1715532606400,-0.79,-0.1,0.47,33.51,174.68,161.13
1703,1715532606410,-0.79,-0.10000000000000002,0.47,33.51,174.67999999999998,161.13
1704,1715532606420,-0.79,-0.10000000000000002,0.47,33.51,174.67999999999998,161.13
1705,1715532606430,-0.365,-0.035,0.435,-49.56,69.0,83.67999999999999
1706,1715532606440,0.06,0.03,0.4000000000000001,-132.63,-36.68,6.23
1707,1715532606450,0.06,0.03,0.4,-132.63,-36.68,6.23
1708,1715532606460,0.06,0.03,0.4000000000000001,-132.63,-36.68,6.23
1709,1715532606470,0.06,0.03,0.4,-132.63,-36.68,6.23
1710,1715532606480,0.06,0.03,0.4000000000000001,-132.63,-36.68,6.23
1711,1715532606490,0.06,0.03,0.4000000000000001,-132.63,-36.68,6.23
1712,1715532606500,0.06,0.03,0.4,-132.63,-36.68,6.23
1713,1715532606510,0.06,0.03,0.4000000000000001,-132.63,-36.68,6.23
1714,1715532606520,0.06,0.03,0.4,-132.63,-36.68,6.23
1715,1715532606530,0.06,0.03,0.4000000000000001,-132.63,-36.68,6.23
1716,1715532606540,0.06,0.03,0.4,-132.63,-36.68,6.23
1717,1715532606550,-0.4266666666666667,-0.17,0.4266666666666667,-124.18666666666667,-129.45666666666668,-190.06333333333336
1718,1715532606560,-0.67,-0.27,0.44,-96.68,-179.08,-270.45
1719,1715532606570,-0.67,-0.27,0.44,-96.68,-179.08,-270.45
1720,1715532606580,-0.67,-0.27,0.44,-96.68,-179.08,-270.45
1721,1715532606590,-0.53,-0.21,0.24,-90.6225,-149.4,-265.46
1722,1715532606600,-0.53,-0.21,0.24,-72.45,-60.35999999999999,-250.49
1723,1715532606610,-0.53,-0.21,0.24,-72.45,-60.35999999999999,-250.49
1724,1715532606620,-0.505,-0.195,0.195,-63.555,-46.8575,-241.85250000000002
1725,1715532606630,-0.43,-0.15,0.06,-36.87,-6.349999999999999,-215.93999999999997
1726,1715532606640,-0.43,-0.15,0.06,-36.87,-6.349999999999999,-215.93999999999997
1727,1715532606650,-0.43,-0.15,0.06,-36.87,-6.35,-215.94
1728,1715532606660,-0.45999999999999996,-0.09333333333333332,0.01,-58.21,-27.936666666666667,-209.12666666666667
1729,1715532606670,-0.52,0.02,-0.09,-100.89,-71.11,-195.5
1730,1715532606680,-0.52,0.02,-0.09000000000000001,-100.89,-71.11,-195.5
1731,1715532606690,-0.52,0.02,-0.09,-100.89,-71.11,-195.5
1732,1715532606700,-1.5866666666666667,0.44,0.23,-138.81666666666666,-40.876666666666665,-245.58666666666667
1733,1715532606710,-2.12,0.65,0.39,-157.78,-25.76,-270.63
1734,1715532606720,-2.12,0.65,0.38999999999999996,-157.78,-25.76,-270.63
1735,1715532606730,-2.12,0.65,0.38999999999999996,-157.78,-25.76,-270.63
1736,1715532606740,-4.0024999999999995,1.835,0.14250000000000002,-137.9125,-47.5925,-91.6425
1737,1715532606750,-4.63,2.23,0.06,-131.29,-54.87,-31.98
1738,1715532606760,-4.63,2.23,0.06,-131.29,-54.87,-31.98
1739,1715532606770,-4.63,2.23,0.06,-131.29,-54.87,-31.98
1740,1715532606780,-2.36,1.68,0.64,-317.44,-262.08,184.02
1741,1715532606790,-2.36,1.68,0.64,-317.44,-262.08,184.02
1742,1715532606800,-2.36,1.68,0.64,-317.44,-262.08,184.02
1743,1715532606810,-2.36,1.68,0.64,-317.44,-262.08,184.02
1744,1715532606820,-2.36,1.68,0.64,-317.44,-262.08,184.02
1745,1715532606830,-2.36,1.68,0.64,-317.44,-262.08,184.02
1746,1715532606840,-2.36,1.68,0.64,-317.44,-262.08,184.02
1747,1715532606850,-2.36,1.68,0.64,-317.44,-262.08,184.02
1748,1715532606860,-2.36,1.68,0.64,-317.44,-262.08,184.02
1749,1715532606870,-2.36,1.68,0.64,-317.44,-262.08,184.02
1750,1715532606880,-2.1666666666666665,1.5466666666666666,0.6033333333333334,-212.1966666666667,-194.67999999999998,207.6
1751,1715532606890,-1.4500000000000002,0.7050000000000001,0.41500000000000004,66.71000000000001,-78.19,274.23
1752,1715532606900,-1.12,0.13,0.3,135.13,-96.5,293.7
1753,1715532606910,-1.12,0.13,0.3,135.13,-96.5,293.7
1754,1715532606920,-1.12,0.13,0.3,135.13,-96.5,293.7
1755,1715532606930,-0.82,-0.3633333333333333,0.15333333333333332,266.03000000000003,-10.073333333333332,261.3933333333334
1756,1715532606940,-0.67,-0.61,0.08,331.48,33.14,245.24
1757,1715532606950,-0.67,-0.61,0.08,331.48,33.14,245.24
1758,1715532606960,-0.67,-0.61,0.08,331.48,33.14,245.24
1759,1715532606970,-0.5366666666666666,-0.5433333333333333,0.16666666666666666,339.15000000000003,49.620000000000005,241.07000000000002
1760,1715532606980,-0.47,-0.51,0.21,354.49,82.58,232.73
1761,1715532606990,-0.47,-0.51,0.21,354.49,82.58,232.73
1762,1715532607000,-0.47,-0.51,0.21,354.49,82.58,232.73
1763,1715532607010,-0.47,-0.51,0.21,354.49,82.58,232.73
1764,1715532607020,-0.47,-0.51,0.21,354.49,82.58,232.73
1765,1715532607030,-0.47,-0.51,0.21,354.49,82.58,232.73
1766,1715532607040,-0.47,-0.51,0.21,354.49,82.58,232.73
1767,1715532607050,-0.47,-0.51,0.21,354.49,82.58,232.73
1768,1715532607060,-0.47,-0.51,0.21,354.49,82.58,232.73
1769,1715532607070,-0.36000000000000004,-0.45333333333333337,0.21,336.93333333333334,67.34333333333333,248.31333333333336
1770,1715532607080,0.37333333333333335,0.39999999999999997,0.06333333333333334,237.24,18.676666666666666,157.61
1771,1715532607090,0.34,0.78,0.05,192.44,69.21,13.61
1772,1715532607100,0.34,0.7799999999999999,0.05000000000000001,192.43999999999997,69.21,13.61
1773,1715532607110,0.34,0.7799999999999999,0.05000000000000001,192.43999999999997,69.21,13.61
1774,1715532607120,0.12666666666666668,0.7733333333333334,0.1466666666666667,149.79666666666665,99.87,-14.040000000000001
1775,1715532607130,-0.3,0.76,0.34,64.51,161.19,-69.34
1776,1715532607140,-0.3,0.7600000000000001,0.34,64.51,161.19,-69.34
1777,1715532607150,-0.3,0.76,0.34,64.51,161.19,-69.34
1778,1715532607160,-0.2733333333333333,0.5566666666666666,0.36000000000000004,-35.56666666666666,77.69666666666666,-78.10666666666667
1779,1715532607170,-0.22,0.15,0.4000000000000001,-235.72,-89.29,-95.64
1780,1715532607180,-0.22,0.15,0.4000000000000001,-235.72,-89.29,-95.64
1781,1715532607190,-0.22,0.15,0.4,-235.72,-89.29,-95.64
1782,1715532607200,-0.21,-0.45,0.79,-294.25,-109.86,-203.42999999999998
1783,1715532607210,-0.21,-0.45,0.79,-294.25,-109.86,-203.43
1784,1715532607220,-0.21,-0.45,0.79,-294.25,-109.86,-203.42999999999998
1785,1715532607230,-0.21,-0.45,0.79,-294.25,-109.86,-203.43
1786,1715532607240,-0.975,-0.4575,0.97,-221.32750000000001,32.685,-299.46750000000003
1787,1715532607250,-1.23,-0.46,1.03,-197.02,80.2,-331.48
1788,1715532607260,-1.23,-0.46,1.03,-197.02,80.2,-331.48
1789,1715532607270,-1.23,-0.46,1.03,-197.02,80.2,-331.48
1790,1715532607280,-1.23,-0.46,1.03,-197.02,80.2,-331.48
1791,1715532607290,-1.76,0.02,0.6,-152.95,-60.06,-291.81
1792,1715532607300,-1.76,0.02,0.6,-152.95,-60.06,-291.81
1793,1715532607310,-1.5675,0.045,0.535,-152.95,-60.06,-291.81
1794,1715532607320,-0.9899999999999999,0.12,0.34,-194.34,-157.53,-194.64
1795,1715532607330,-0.99,0.12,0.34,-194.34,-157.53,-194.64
1796,1715532607340,-0.9899999999999999,0.12,0.34,-194.34,-157.53,-194.64
1797,1715532607350,-0.9899999999999999,0.12,0.34,-194.34,-157.53,-194.64
1798,1715532607360,-0.99,0.12,0.34,-194.34,-157.53,-194.64
1799,1715532607370,-0.9899999999999999,0.12,0.34,-194.34,-157.53,-194.64
1800,1715532607380,-0.9899999999999999,0.12,0.34,-194.34,-157.53,-194.64
1801,1715532607390,-0.99,0.12,0.34,-194.34,-157.53,-194.64
1802,1715532607400,-0.9899999999999999,0.12,0.34,-194.34,-157.53,-194.64
1803,1715532607410,-0.91,0.47,-0.14,-169.07,-23.38,-186.16
1804,1715532607420,-0.91,0.47,-0.14,-169.07,-23.38,-186.16
1805,1715532607430,-2.335,1.355,0.46,-169.01,26.795,-205.6
1806,1715532607440,-2.81,1.65,0.66,-168.95,76.97,-225.04
1807,1715532607450,-2.81,1.6499999999999997,0.66,-168.95,76.97,-225.04
1808,1715532607460,-2.81,1.6499999999999997,0.66,-168.95,76.97,-225.04
1809,1715532607470,-3.29,2.08,0.52,-158.94,27.68,-96.895
1810,1715532607480,-3.77,2.51,0.38000000000000006,-148.93,-21.61,31.25
1811,1715532607490,-3.77,2.51,0.38,-148.93,-21.61,31.25
1812,1715532607500,-3.77,2.51,0.38000000000000006,-148.93,-21.61,31.25
1813,1715532607510,-2.315,1.9625,0.8674999999999999,-148.93,-21.61,31.25
1814,1715532607520,-1.83,1.78,1.03,-148.93,-21.61,31.25
1815,1715532607530,-1.83,1.78,1.03,-148.93,-21.61,31.25
1816,1715532607540,-1.83,1.78,1.03,-148.93,-21.61,31.25
1817,1715532607550,-1.83,1.78,1.03,-148.93,-21.61,31.25
1818,1715532607560,-1.83,1.78,1.03,-148.93,-21.61,31.25
1819,1715532607570,-1.83,1.78,1.03,-148.93,-21.61,31.25
1820,1715532607580,-1.83,1.78,1.03,-148.93,-21.61,31.25
1821,1715532607590,-1.83,1.78,1.03,-148.93,-21.61,31.25
1822,1715532607600,-1.8,1.14,0.39999999999999997,147.27666666666667,29.723333333333333,171.12
1823,1715532607610,-1.62,0.94,0.17,159.42,-1.22,205.44
1824,1715532607620,-1.4000000000000001,0.71,0.15,150.59,-2.9299999999999997,230.52666666666664
1825,1715532607630,-0.96,0.25,0.11,132.93,-6.35,280.7
1826,1715532607640,-0.96,0.25,0.11,132.93,-6.349999999999999,280.7
1827,1715532607650,-0.96,0.25,0.11,132.93,-6.349999999999999,280.7
1828,1715532607660,-0.745,-0.015000000000000013,0.205,160.4,16.66,285.765
1829,1715532607670,-0.53,-0.28,0.3,187.87,39.67,290.83
1830,1715532607680,-0.53,-0.28,0.3,187.87,39.67,290.83
1831,1715532607690,-0.53,-0.28,0.3,187.87,39.67,290.83
1832,1715532607700,-0.4625,-0.325,0.39749999999999996,204.625,60.82000000000001,273.94
1833,1715532607710,-0.44,-0.34,0.43,210.21,67.87,268.31
1834,1715532607720,-0.44,-0.34,0.43,210.21,67.87,268.31
1835,1715532607730,-0.44,-0.34,0.43,210.21,67.87,268.31
1836,1715532607740,-0.3425,-0.115,0.4525,220.185,79.27,233.84
1837,1715532607750,-0.31,-0.04,0.46,223.51,83.07,222.35
1838,1715532607760,-0.31,-0.04,0.46,223.51,83.07,222.35
1839,1715532607770,-0.31,-0.04,0.46,223.51,83.07,222.35
1840,1715532607780,-0.27666666666666667,0.07333333333333332,0.4033333333333333,209.26999999999998,84.41333333333333,189.04666666666665
1841,1715532607790,-0.21,0.3,0.29,180.79,87.1,122.44
1842,1715532607800,-0.21,0.3,0.29,180.79,87.09999999999998,122.44
1843,1715532607810,-0.41000000000000003,0.27249999999999996,0.415,154.62,90.35,100.1775
1844,1715532607820,-1.01,0.19000000000000003,0.79,76.11,100.09999999999998,33.39
1845,1715532607830,-1.01,0.19000000000000003,0.79,76.11,100.09999999999998,33.39
1846,1715532607840,-1.01,0.19,0.79,76.11,100.1,33.39
1847,1715532607850,-1.01,0.19000000000000003,0.79,76.11,100.09999999999998,33.39
1848,1715532607860,-1.01,0.19,0.79,76.11,100.1,33.39
1849,1715532607870,-1.01,0.19000000000000003,0.79,76.11,100.09999999999998,33.39
1850,1715532607880,-1.01,0.19000000000000003,0.79,76.11,100.09999999999998,33.39
1851,1715532607890,-1.01,0.19000000000000003,0.79,76.11,100.09999999999998,33.39
1852,1715532607900,-1.01,0.19,0.79,76.11,100.1,33.39
1853,1715532607910,-1.01,0.19000000000000003,0.79,76.11,100.09999999999998,33.39
1854,1715532607920,-1.01,0.19000000000000003,0.79,76.11,100.09999999999998,33.39
1855,1715532607930,-0.7775,0.04,0.5800000000000001,-116.7,-69.9625,-167.43
1856,1715532607940,-0.6999999999999998,-0.01,0.51,-180.97,-126.65000000000002,-234.37
1857,1715532607950,-0.6999999999999998,-0.01,0.51,-180.97,-126.65000000000002,-234.37
1858,1715532607960,-0.7,-0.01,0.51,-180.97,-126.65,-234.37
1859,1715532607970,-0.87,-0.15,0.45,-242.31,-132.08,-230.59
