id,timestamp,acc_x,acc_y,acc_z,gyro_x,gyro_y,gyro_z
0,1715728766990,0.02416817,-0.20006983,0.10872347,0.02416817,-0.20006983,0.10872347
1,1715728767000,-0.6248215,2.54511458,0.3820080466666666,-0.6248215,2.54511458,0.3820080466666666
2,1715728767010,-1.8882178714285713,3.241863542857143,0.24970921857142855,-1.8882178714285713,3.241863542857143,0.24970921857142855
3,1715728767020,-1.4390158,2.4148415666666665,0.19276833166666665,-1.4390158,2.4148415666666665,0.19276833166666665
4,1715728767030,-1.3158479142857142,2.2331349428571428,0.17757564142857143,-1.3158479142857142,2.2331349428571428,0.17757564142857143
5,1715728767040,-0.6282772799999999,1.0165849642857143,0.10435779571428572,-0.6282772799999999,1.0165849642857143,0.10435779571428572
6,1715728767050,-0.59175396,0.68616295,0.11531479,-0.59175396,0.68616295,0.11531479
7,1715728767060,-0.62355968,0.17314338571428572,0.15495781142857143,-0.62355968,0.17314338571428572,0.15495781142857143
8,1715728767070,-0.66738766,-0.29893962,0.17909743999999997,-0.66738766,-0.29893962,0.17909743999999997
9,1715728767080,-0.7355645342857143,-0.34337633142857144,0.2953633657142857,-0.7355645342857143,-0.34337633142857144,0.2953633657142857
10,1715728767090,-0.7676746342857143,-0.16367015757142855,0.40295499285714287,-0.7676746342857143,-0.16367015757142855,0.40295499285714287
11,1715728767100,-0.7302382,-0.016777903,0.35273543,-0.7302382,-0.016777903,0.35273543
12,1715728767110,-0.6663223857142857,0.08320470114285713,0.32534293142857146,-0.6663223857142857,0.08320470114285713,0.32534293142857146
13,1715728767120,-0.38402754,0.29747486,0.24407853,-0.38402754,0.29747486,0.24407853
14,1715728767130,-0.27976486,0.2932138,0.22064273,-0.27976486,0.2932138,0.22064273
15,1715728767140,0.080560565,0.11196681142857144,0.15092503000000002,0.080560565,0.11196681142857144,0.15092503000000002
16,1715728767150,0.18775272,0.04500739,0.13875058,0.18775272,0.04500739,0.13875058
17,1715728767160,0.2729738133333333,-0.09165705333333334,0.10537232266666667,0.2729738133333333,-0.09165705333333334,0.10537232266666667
18,1715728767170,0.443416,-0.36498594,0.03861580800000001,0.443416,-0.36498594,0.03861580800000001
19,1715728767180,0.44323846000000006,-0.42393054333333335,-0.005060002083333332,0.44323846000000006,-0.42393054333333335,-0.005060002083333332
20,1715728767190,0.39441386,-0.44701126,-0.06897582,0.39441386,-0.44701126,-0.06897582
21,1715728767200,0.36245595999999997,-0.4177165016666667,-0.08850565333333334,0.36245595999999997,-0.4177165016666667,-0.08850565333333334
22,1715728767210,0.27635982857142855,-0.3547898585714286,-0.14095720714285714,0.27635982857142855,-0.3547898585714286,-0.14095720714285714
23,1715728767220,0.1431448,-0.26485118,-0.22343905,0.1431448,-0.26485118,-0.22343905
24,1715728767230,0.12112935333333334,-0.26201046,-0.23835273666666668,0.12112935333333334,-0.26201046,-0.23835273666666668
25,1715728767240,0.10923391333333334,-0.28544626666666667,-0.2706657383333333,0.10923391333333334,-0.28544626666666667,-0.2706657383333333
26,1715728767250,0.10905637,-0.2904175,-0.27563697,0.10905637,-0.2904175,-0.27563697
27,1715728767260,0.100960366,-0.295530764,-0.28458519,0.100960366,-0.295530764,-0.28458519
28,1715728767270,-0.011318427,-0.29787433,-0.3065296,-0.011318427,-0.29787433,-0.3065296
29,1715728767280,-0.058545114499999995,-0.29769679833333335,-0.29427907999999997,-0.058545114499999995,-0.29769679833333335,-0.29427907999999997
30,1715728767290,-0.0875913036,-0.337076048,-0.25688832400000006,-0.0875913036,-0.337076048,-0.25688832400000006
31,1715728767300,-0.026232118,-0.3788344,-0.23302642,-0.026232118,-0.3788344,-0.23302642
32,1715728767310,0.016378426800000002,-0.38565208,-0.229617572,0.016378426800000002,-0.38565208,-0.229617572
33,1715728767320,0.25806013,-0.4012048999999999,-0.239418,0.25806013,-0.4012048999999999,-0.239418
34,1715728767330,0.3741738575,-0.397476495,-0.257527475,0.3741738575,-0.397476495,-0.257527475
35,1715728767340,0.48389602,-0.39055228,-0.28415906,0.48389602,-0.39055228,-0.28415906
36,1715728767350,0.48389602,-0.38714344799999995,-0.29864666,0.48389602,-0.38714344799999995,-0.29864666
37,1715728767360,0.39760966750000004,-0.35832806,-0.33742226750000004,0.39760966750000004,-0.35832806,-0.33742226750000004
38,1715728767370,0.2058622,-0.34581122,-0.35233596,0.2058622,-0.34581122,-0.35233596
39,1715728767380,0.102897805,-0.34980594499999995,-0.344346465,0.102897805,-0.34980594499999995,-0.344346465
40,1715728767390,-0.13275848,-0.40227017,-0.34594437,-0.13275848,-0.40227017,-0.34594437
41,1715728767400,-0.23289326,-0.4363586300000001,-0.34274858,-0.23289326,-0.4363586300000001,-0.34274858
42,1715728767410,-0.278433285,-0.4142544025,-0.3126548825,-0.278433285,-0.4142544025,-0.3126548825
43,1715728767420,-0.34581122,-0.35646385,-0.25220117,-0.34581122,-0.35646385,-0.25220117
44,1715728767430,-0.3562508,-0.22271999720000002,-0.17209334159999998,-0.3562508,-0.22271999720000002,-0.17209334159999998
45,1715728767440,-0.36365438,-0.023435799749999996,-0.047137913000000004,-0.36365438,-0.023435799749999996,-0.047137913000000004
46,1715728767450,-0.36605123,0.07163898,0.02476738,-0.36605123,0.07163898,0.02476738
47,1715728767460,-0.36498596,0.0937432,0.0468716,-0.36498596,0.0937432,0.0468716
48,1715728767470,-0.31278804,0.18455693,0.18548903,-0.31278804,0.18455693,0.18548903
49,1715728767480,-0.2669817,0.17496955,0.21638168,-0.2669817,0.17496955,0.21638168
50,1715728767490,-0.05925529,0.07270424,0.28988487,-0.05925529,0.07270424,0.28988487
51,1715728767500,0.10905637,-0.0061252657,0.3239733,0.10905637,-0.0061252657,0.3239733
52,1715728767510,0.10905636999999999,-0.0061252657,0.3239733,0.10905636999999999,-0.0061252657,0.3239733
53,1715728767520,0.2816734616666667,0.002929475083333333,0.33214033000000004,0.2816734616666667,0.002929475083333333,0.33214033000000004
54,1715728767530,0.3496728,0.02796317,0.3356912,0.3496728,0.02796317,0.3356912
55,1715728767540,0.5083971,0.054594763,0.35167015,0.5083971,0.054594763,0.35167015
56,1715728767550,0.5840308,0.05033371,0.35380068,0.5840308,0.05033371,0.35380068
57,1715728767560,0.5840308,0.05033371,0.35380068,0.5840308,0.05033371,0.35380068
58,1715728767570,0.62238026,0.07163898,0.35593122,0.62238026,0.07163898,0.35593122
59,1715728767580,0.62557605,0.118510575,0.352735415,0.62557605,0.118510575,0.352735415
60,1715728767590,0.6149234,0.12703268,0.35167015,0.6149234,0.12703268,0.35167015
61,1715728767600,0.57124764,0.09614004,0.3474091,0.57124764,0.09614004,0.3474091
62,1715728767610,0.5552686933333333,0.09010354799999999,0.34776419333333336,0.5552686933333333,0.09010354799999999,0.34776419333333336
63,1715728767620,0.44916842399999996,0.054168656800000006,0.349326588,0.44916842399999996,0.054168656800000006,0.349326588
64,1715728767630,0.3949465,0.046072652,0.353800685,0.3949465,0.046072652,0.353800685
65,1715728767640,0.23036326,0.078030564,0.38362807,0.23036326,0.078030564,0.38362807
66,1715728767650,0.212466836,0.0839960408,0.388741342,0.212466836,0.0839960408,0.388741342
67,1715728767660,0.19257969749999998,0.10626005,0.4009386125,0.19257969749999998,0.10626005,0.4009386125
68,1715728767670,0.19307904,0.16751271,0.45500073,0.19307904,0.16751271,0.45500073
69,1715728767680,0.207460095,0.1571263875,0.4597944075,0.207460095,0.1571263875,0.4597944075
70,1715728767690,0.20160115000000003,0.08527435539999999,0.46735778000000006,0.20160115000000003,0.08527435539999999,0.46735778000000006
71,1715728767700,0.16751271,0.058855817,0.4613923,0.16751271,0.058855817,0.4613923
72,1715728767710,0.152652278,0.041385493,0.45755735599999997,0.152652278,0.041385493,0.45755735599999997
73,1715728767720,0.07603319,-0.082824245,0.44541335000000004,0.07603319,-0.082824245,0.44541335000000004
74,1715728767730,0.041944757,-0.16684692,0.42623863,0.041944757,-0.16684692,0.42623863
75,1715728767740,0.032357384,-0.28935224,0.38043228,0.032357384,-0.28935224,0.38043228
76,1715728767750,0.070706874,-0.35113752,0.33462593,0.070706874,-0.35113752,0.33462593
77,1715728767760,0.0837030912,-0.357316048,0.32354719000000004,0.0837030912,-0.357316048,0.32354719000000004
78,1715728767770,0.197107065,-0.4051996625,0.2504701125,0.197107065,-0.4051996625,0.2504701125
79,1715728767780,0.285330856,-0.442750212,0.22192105,0.285330856,-0.442750212,0.22192105
80,1715728767790,0.36778226,-0.47257757,0.19401114,0.36778226,-0.47257757,0.19401114
81,1715728767800,0.37950018,-0.47577336,0.18442377,0.37950018,-0.47577336,0.18442377
82,1715728767810,0.37950018,-0.47577336,0.18442377,0.37950018,-0.47577336,0.18442377
83,1715728767820,0.20914675666666663,-0.38593615333333336,0.09116881399999999,0.20914675666666663,-0.38593615333333336,0.09116881399999999
84,1715728767830,0.092651304096,-0.331110588,0.06460824039999999,0.092651304096,-0.331110588,0.06460824039999999
85,1715728767840,-0.13233237990399999,-0.251215806,0.0006924220000000009,-0.13233237990399999,-0.251215806,0.0006924220000000009
86,1715728767850,-0.23715432,-0.22224063,-0.035952646,-0.23715432,-0.22224063,-0.035952646
87,1715728767860,-0.2185122075,-0.2981406625,-0.0649810795,-0.2185122075,-0.2981406625,-0.0649810795
88,1715728767870,-0.16258587,-0.52584076,-0.15206638,-0.16258587,-0.52584076,-0.15206638
89,1715728767880,-0.090787094,-0.615935424,-0.194676932,-0.090787094,-0.615935424,-0.194676932
90,1715728767890,0.08562057,-0.8442214,-0.30546436,0.08562057,-0.8442214,-0.30546436
91,1715728767900,0.2048968075,-1.0218208875,-0.337921595,0.2048968075,-1.0218208875,-0.337921595
92,1715728767910,0.40293598,-1.3692633,-0.40013966,0.40293598,-1.3692633,-0.40013966
93,1715728767920,0.601075,-1.6451664999999998,-0.42570597,0.601075,-1.6451664999999998,-0.42570597
94,1715728767930,0.67258084,-1.82405092,-0.45191145600000004,0.67258084,-1.82405092,-0.45191145600000004
95,1715728767940,0.9418262049999999,-2.529335325,-0.39804242,0.9418262049999999,-2.529335325,-0.39804242
96,1715728767950,1.1484873,-3.1372013,-0.25646222,1.1484873,-3.1372013,-0.25646222
97,1715728767960,1.3986912,-3.737877,-0.00079894776,1.3986912,-3.737877,-0.00079894776
98,1715728767970,1.7459671,-4.3033986,0.25473118,1.7459671,-4.3033986,0.25473118
99,1715728767980,2.2107881750000002,-5.004908175,0.46325652000000006,2.2107881750000002,-5.004908175,0.46325652000000006
100,1715728767990,2.5137558,-5.5046167,0.5988113,2.5137558,-5.5046167,0.5988113
101,1715728768000,2.8636616249999998,-5.978892075,0.735398085,2.8636616249999998,-5.978892075,0.735398085
102,1715728768010,2.897949875,-6.3076923,0.9030772300000001,2.897949875,-6.3076923,0.9030772300000001
103,1715728768020,2.7470486,-6.525006299999999,1.0780468,2.7470486,-6.525006299999999,1.0780468
104,1715728768030,2.29331295,-6.631432825,1.40601485,2.29331295,-6.631432825,1.40601485
105,1715728768040,1.6032218,-6.697446,1.8788588,1.6032218,-6.697446,1.8788588
106,1715728768050,1.0062213759999998,-6.67912304,2.29361916,1.0062213759999998,-6.67912304,2.29361916
107,1715728768060,0.11757848,-6.691054,2.959835,0.11757848,-6.691054,2.959835
108,1715728768070,-0.363814168,-6.834225599999999,3.4292966,-0.363814168,-6.834225599999999,3.4292966
109,1715728768080,-0.6407560649999999,-6.96216375,3.77615985,-0.6407560649999999,-6.96216375,3.77615985
110,1715728768090,-1.0624673,-7.359906699999999,4.7906237,-1.0624673,-7.359906699999999,4.7906237
111,1715728768100,-1.07844626,-7.378442080000001,4.98293048,-1.07844626,-7.378442080000001,4.98293048
112,1715728768110,-1.0390315,-6.758166,5.814076,-1.0390315,-6.758166,5.814076
113,1715728768120,-1.0390315,-5.812478,5.9781265,-1.0390315,-5.812478,5.9781265
114,1715728768130,-1.0390315,-5.812478,5.9781265,-1.0390315,-5.812478,5.9781265
115,1715728768140,-1.0805768,-5.0466866,6.045238,-1.0805768,-5.0466866,6.045238
116,1715728768150,-1.0013479,-3.32229096,6.331873799999999,-1.0013479,-3.32229096,6.331873799999999
117,1715728768160,-0.82163786,-2.07393508,6.4744062,-0.82163786,-2.07393508,6.4744062
118,1715728768170,-0.8080025,-1.5993602,6.154827,-0.8080025,-1.5993602,6.154827
119,1715728768180,-0.8386820719999999,-1.47536352,5.9311750000000005,-0.8386820719999999,-1.47536352,5.9311750000000005
120,1715728768190,-1.076342366,-1.03295954,4.87920068,-1.076342366,-1.03295954,4.87920068
121,1715728768200,-1.34233205,-0.70686901,4.13775045,-1.34233205,-0.70686901,4.13775045
122,1715728768210,-1.8346503000000003,-0.08602004,2.8969846,-1.8346503000000003,-0.08602004,2.8969846
123,1715728768220,-1.9731346000000003,0.27510434,2.38153,-1.9731346000000003,0.27510434,2.38153
124,1715728768230,-2.01076504,0.804833326,1.81494292,-2.01076504,0.804833326,1.81494292
125,1715728768240,-2.031591,1.3283838,1.2643348,-2.031591,1.3283838,1.2643348
126,1715728768250,-2.0094334,1.48849292,1.0522408,-2.0094334,1.48849292,1.0522408
127,1715728768260,-1.7515597,1.669135,-0.1254348,-1.7515597,1.669135,-0.1254348
128,1715728768270,-1.7515597,1.669135,-0.1254348,-1.7515597,1.669135,-0.1254348
129,1715728768280,-1.47891885,1.3714604000000001,-0.71865345,-1.47891885,1.3714604000000001,-0.71865345
130,1715728768290,-0.86765724,0.74368715,-1.877394,-0.86765724,0.74368715,-1.877394
131,1715728768300,-0.6692519,0.6318345125,-2.20269885,-0.6692519,0.6318345125,-2.20269885
132,1715728768310,-0.37444016,0.5242429,-2.7101638,-0.37444016,0.5242429,-2.7101638
133,1715728768320,-0.24160179199999998,0.660596612,-3.08503012,-0.24160179199999998,0.660596612,-3.08503012
134,1715728768330,-0.164450075,0.7761776850000001,-3.3289488250000003,-0.164450075,0.7761776850000001,-3.3289488250000003
135,1715728768340,-0.004926845600000002,1.06571638,-3.8672266800000004,-0.004926845600000002,1.06571638,-3.8672266800000004
136,1715728768350,0.031292118,1.13131,-3.9892793000000006,0.031292118,1.13131,-3.9892793000000006
137,1715728768360,0.2729738,1.5476949,-4.859333,0.2729738,1.5476949,-4.859333
138,1715728768370,0.46578652,1.6936361,-5.4227247,0.46578652,1.6936361,-5.4227247
139,1715728768380,0.657507352,1.7010929000000001,-5.77372904,0.657507352,1.7010929000000001,-5.77372904
140,1715728768390,1.0558094,1.6819181,-6.362021,1.0558094,1.6819181,-6.362021
141,1715728768400,1.32518796,1.70301034,-6.60444832,1.32518796,1.70301034,-6.60444832
142,1715728768410,1.8182718999999998,1.7841834000000003,-7.0532436,1.8182718999999998,1.7841834000000003,-7.0532436
143,1715728768420,2.094175,1.8811225,-7.45578,2.094175,1.8811225,-7.45578
144,1715728768430,2.2107881249999997,1.8779267,-7.6839794999999995,2.2107881249999997,1.8779267,-7.6839794999999995
145,1715728768440,2.5606275,1.8683393,-8.368578,2.5606275,1.8683393,-8.368578
146,1715728768450,2.65522278,1.81976322,-8.529538800000001,2.65522278,1.81976322,-8.529538800000001
147,1715728768460,3.0931260000000003,1.5097448666666666,-9.062863666666667,3.0931260000000003,1.5097448666666666,-9.062863666666667
148,1715728768470,3.246524,1.4040174,-9.175781,3.246524,1.4040174,-9.175781
149,1715728768480,3.46671416,1.25658496,-9.195382200000001,3.46671416,1.25658496,-9.195382200000001
150,1715728768490,3.634147,1.1334405,-9.174716,3.634147,1.1334405,-9.174716
151,1715728768500,3.6989150000000004,1.0541848999999999,-9.1269928,3.6989150000000004,1.0541848999999999,-9.1269928
152,1715728768510,3.9759634,0.51252496,-8.714656,3.9759634,0.51252496,-8.714656
153,1715728768520,4.098681480000001,0.1120923648,-8.271612399999999,4.098681480000001,0.1120923648,-8.271612399999999
154,1715728768530,4.140280000000001,-0.09211201299999999,-8.013878475,4.140280000000001,-0.09211201299999999,-8.013878475
155,1715728768540,4.173037,-0.40440069999999995,-7.5729594,4.173037,-0.40440069999999995,-7.5729594
156,1715728768550,3.9821884,-1.0106023,-6.4259698499999995,3.9821884,-1.0106023,-6.4259698499999995
157,1715728768560,2.4509496,-1.8612818999999998,-3.5969959,2.4509496,-1.8612818999999998,-3.5969959
158,1715728768570,1.8885792,-1.9017619,-2.9743493,1.8885792,-1.9017619,-2.9743493
159,1715728768580,0.7379879599999999,-1.6401864199999998,-2.1087160359999997,0.7379879599999999,-1.6401864199999998,-2.1087160359999997
160,1715728768590,-0.9878989,-1.2478232,-0.8102661399999999,-0.9878989,-1.2478232,-0.8102661399999999
161,1715728768600,-2.2275462,-0.43276334600000005,0.38772932,-2.2275462,-0.43276334600000005,0.38772932
162,1715728768610,-3.1093714,0.39121807,1.754356,-3.1093714,0.39121807,1.754356
163,1715728768620,-3.278038066666667,0.604159845,2.424362416666667,-3.278038066666667,0.604159845,2.424362416666667
164,1715728768630,-3.1647917,0.694898112,4.08792256,-3.1647917,0.694898112,4.08792256
165,1715728768640,-2.686595,0.69255453,7.388136,-2.686595,0.69255453,7.388136
166,1715728768650,-2.3735406,0.58389765,8.342346,-2.3735406,0.58389765,8.342346
167,1715728768660,-1.5523554,0.3699128,10.738656,-1.5523554,0.3699128,10.738656
168,1715728768670,-1.1988211,0.3816307,11.855852,-1.1988211,0.3816307,11.855852
169,1715728768680,-1.10102988,0.381417656,12.2816376,-1.10102988,0.381417656,12.2816376
170,1715728768690,-1.057141,0.32517174,12.670512,-1.057141,0.32517174,12.670512
171,1715728768700,-1.2392678,0.05249752499999999,12.40133325,-1.2392678,0.05249752499999999,12.40133325
172,1715728768710,-1.6088144,-0.50347024,11.789805,-1.6088144,-0.50347024,11.789805
173,1715728768720,-2.0049593,-1.1116027,11.142259,-2.0049593,-1.1116027,11.142259
174,1715728768730,-2.0049593,-1.1116027,11.142259,-2.0049593,-1.1116027,11.142259
175,1715728768740,-2.642919,-2.1137493,9.782316,-2.642919,-2.1137493,9.782316
176,1715728768750,-2.70981756,-2.1614731799999998,9.695390399999999,-2.70981756,-2.1614731799999998,9.695390399999999
177,1715728768760,-3.2542473000000003,-1.7626650600000002,9.698985599999999,-3.2542473000000003,-1.7626650600000002,9.698985599999999
178,1715728768770,-3.2755525,-1.3554149,10.15396,-3.2755525,-1.3554149,10.15396
179,1715728768780,-3.04233964,-1.23317586,10.3362798,-3.04233964,-1.23317586,10.3362798
180,1715728768790,-2.359692,-1.0135983,10.643848,-2.359692,-1.0135983,10.643848
181,1715728768800,-2.2238709,-1.0575405,10.442613249999999,-2.2238709,-1.0575405,10.442613249999999
182,1715728768810,-2.33774768,-0.98654066,9.1211069,-2.33774768,-0.98654066,9.1211069
183,1715728768820,-2.60483598,-0.79458014,7.6336793,-2.60483598,-0.79458014,7.6336793
184,1715728768830,-3.023417975,-0.172739146,5.2328413750000005,-3.023417975,-0.172739146,5.2328413750000005
185,1715728768840,-3.4204283,0.8118641,2.2261348,-3.4204283,0.8118641,2.2261348
186,1715728768850,-3.5373677,1.4440181600000002,1.77427658,-3.5373677,1.4440181600000002,1.77427658
187,1715728768860,-3.8005943,2.6180186,1.2867054,-3.8005943,2.6180186,1.2867054
188,1715728768870,-3.8613143,2.870486,1.1909647,-3.8613143,2.870486,1.1909647
189,1715728768880,-3.68474688,2.76121658,0.83695097,-3.68474688,2.76121658,0.83695097
190,1715728768890,-3.677024,2.8523765,0.6179861,-3.677024,2.8523765,0.6179861
191,1715728768900,-2.71003075,2.1987041,-1.114798375,-2.71003075,2.1987041,-1.114798375
192,1715728768910,-1.890044,1.7202677000000002,-2.6835322,-1.890044,1.7202677000000002,-2.6835322
193,1715728768920,-1.5523554,1.5199981,-3.7005928,-1.5523554,1.5199981,-3.7005928
194,1715728768930,-1.546230125,1.482214525,-3.79620025,-1.546230125,1.482214525,-3.79620025
195,1715728768940,-1.5207526333333334,1.2410321333333334,-4.364318766666666,-1.5207526333333334,1.2410321333333334,-4.364318766666666
196,1715728768950,-1.45311945,1.2258521,-4.4836947,-1.45311945,1.2258521,-4.4836947
197,1715728768960,-0.9102678,1.4253228,-4.7112617,-0.9102678,1.4253228,-4.7112617
198,1715728768970,-0.19436622999999997,1.7156514833333334,-4.9204083333333335,-0.19436622999999997,1.7156514833333334,-4.9204083333333335
199,1715728768980,0.65859926,2.0684757,-5.2034135,0.65859926,2.0684757,-5.2034135
200,1715728768990,1.5733944,2.396577,-5.5952973,1.5733944,2.396577,-5.5952973
201,1715728769000,1.8700036999999998,2.48126535,-5.746498150000001,1.8700036999999998,2.48126535,-5.746498150000001
202,1715728769010,2.9152272,2.712827,-6.4291325,2.9152272,2.712827,-6.4291325
203,1715728769020,3.1591725,2.712827,-6.653903,3.1591725,2.712827,-6.653903
204,1715728769030,3.43566166,2.6740513999999997,-6.9448265199999994,3.43566166,2.6740513999999997,-6.9448265199999994
205,1715728769040,4.269976,2.6499765,-7.740205999999999,4.269976,2.6499765,-7.740205999999999
206,1715728769050,4.3551971,2.6670207,-7.809448,4.3551971,2.6670207,-7.809448
207,1715728769060,4.4404182,2.6840649,-7.87869,4.4404182,2.6840649,-7.87869
208,1715728769070,4.826336639999999,2.83852818,-8.4001092,4.826336639999999,2.83852818,-8.4001092
209,1715728769080,4.8333673,2.8406587,-8.416514,4.8333673,2.8406587,-8.416514
210,1715728769090,4.8333673,2.8406587,-8.416514,4.8333673,2.8406587,-8.416514
211,1715728769100,4.8333673,2.8406587,-8.416514,4.8333673,2.8406587,-8.416514
212,1715728769110,4.8333673,2.8406587,-8.416514,4.8333673,2.8406587,-8.416514
213,1715728769120,4.8333673,2.8406587,-8.416514,4.8333673,2.8406587,-8.416514
214,1715728769130,4.8333673,2.8406587,-8.416514,4.8333673,2.8406587,-8.416514
215,1715728769140,4.8333673,2.8406587,-8.416514,4.8333673,2.8406587,-8.416514
216,1715728769150,4.8333673,2.8406587,-8.416514,4.8333673,2.8406587,-8.416514
217,1715728769160,4.8333673,2.8406587,-8.416514,4.8333673,2.8406587,-8.416514
218,1715728769170,4.8333673,2.8406587,-8.416514,4.8333673,2.8406587,-8.416514
219,1715728769180,4.89089165,2.6207149750000003,-8.90770075,4.89089165,2.6207149750000003,-8.90770075
220,1715728769190,4.130459825,0.17070849999999999,-7.747662549999999,4.130459825,0.17070849999999999,-7.747662549999999
221,1715728769200,1.39449665,-0.9214530499999999,-3.4508549,1.39449665,-0.9214530499999999,-3.4508549
222,1715728769210,-1.3255874,-0.5332976,-1.7122781,-1.3255874,-0.5332976,-1.7122781
223,1715728769220,-2.1200078,-0.29680908,-1.2671311,-2.1200078,-0.29680908,-1.2671311
224,1715728769230,-2.40578695,-0.19367824166666667,-1.0406294183333333,-2.40578695,-0.19367824166666667,-1.0406294183333333
225,1715728769240,-3.9970023600000006,0.402483252,0.37452007200000004,-3.9970023600000006,0.402483252,0.37452007200000004
226,1715728769250,-4.7195178,0.767975212,2.03079196,-4.7195178,0.767975212,2.03079196
227,1715728769260,-4.1681768,0.5174962066666667,6.108243833333333,-4.1681768,0.5174962066666667,6.108243833333333
228,1715728769270,-3.9987333,0.45180494,6.583063,-3.9987333,0.45180494,6.583063
229,1715728769280,-3.7226702400000002,0.3689540606,7.222487599999999,-3.7226702400000002,0.3689540606,7.222487599999999
230,1715728769290,-2.1411266400000004,0.0401071754,10.792293,-2.1411266400000004,0.0401071754,10.792293
231,1715728769300,-1.48042348,0.11041457879999998,12.2057644,-1.48042348,0.11041457879999998,12.2057644
232,1715728769310,-0.9772462,0.26125592,13.290361999999998,-0.9772462,0.26125592,13.290361999999998
233,1715728769320,-0.9495494000000001,0.22823274,13.256274,-0.9495494000000001,0.22823274,13.256274
234,1715728769330,-1.00733995,0.14407691,13.09864825,-1.00733995,0.14407691,13.09864825
235,1715728769340,-1.5576818,-0.88789725,11.765305,-1.5576818,-0.88789725,11.765305
236,1715728769350,-1.6801871,-1.291565625,11.362169,-1.6801871,-1.291565625,11.362169
237,1715728769360,-1.8698039999999998,-2.7240124,9.534109,-1.8698039999999998,-2.7240124,9.534109
238,1715728769370,-1.6759593000000002,-2.9473181750000004,9.045320375,-1.6759593000000002,-2.9473181750000004,9.045320375
239,1715728769380,-1.1934948,-3.1830077,8.2848215,-1.1934948,-3.1830077,8.2848215
240,1715728769390,-0.652474,-2.8996477,8.362586,-0.652474,-2.8996477,8.362586
241,1715728769400,-0.48453961166666665,-2.6206596,8.687446833333334,-0.48453961166666665,-2.6206596,8.687446833333334
242,1715728769410,-0.10506162999999999,-1.6345139,9.813209,-0.10506162999999999,-1.6345139,9.813209
243,1715728769420,-0.18708692,-1.1957585,10.231724,-0.18708692,-1.1957585,10.231724
244,1715728769430,-0.18708691999999996,-1.1957585,10.231724,-0.18708691999999996,-1.1957585,10.231724
245,1715728769440,-1.6705996999999997,-0.8133288,9.707747,-1.6705996999999997,-0.8133288,9.707747
246,1715728769450,-1.9894596800000002,-1.02616848,9.2067272,-1.9894596800000002,-1.02616848,9.2067272
247,1715728769460,-2.7206833,-0.9390298999999999,7.002643600000001,-2.7206833,-0.9390298999999999,7.002643600000001
248,1715728769470,-2.9127636333333338,-0.32022269999999997,6.2934665,-2.9127636333333338,-0.32022269999999997,6.2934665
249,1715728769480,-3.5855443,1.6712655,4.313519,-3.5855443,1.6712655,4.313519
250,1715728769490,-4.053062,2.4551663,3.3103068,-4.053062,2.4551663,3.3103068
251,1715728769500,-4.0577491199999995,2.4411048600000003,3.16031768,-4.0577491199999995,2.4411048600000003,3.16031768
252,1715728769510,-3.1626346,1.3347753,2.263419,-3.1626346,1.3347753,2.263419
253,1715728769520,-1.4395707,0.10572742,1.499758,-1.4395707,0.10572742,1.499758
254,1715728769530,-0.27144250999999997,-0.07739806500000002,0.578238405,-0.27144250999999997,-0.07739806500000002,0.578238405
255,1715728769540,0.34434646,0.1909485,-0.23409168,0.34434646,0.1909485,-0.23409168
256,1715728769550,0.3733749,0.7103976750000001,-0.754872435,0.3733749,0.7103976750000001,-0.754872435
257,1715728769560,0.46046022,2.2687452,-2.3172147,0.46046022,2.2687452,-2.3172147
258,1715728769570,0.35989932399999996,2.65639464,-2.6239041399999996,0.35989932399999996,2.65639464,-2.6239041399999996
259,1715728769580,0.33475910000000003,2.753307,-2.7005765,0.33475910000000003,2.753307,-2.7005765
260,1715728769590,0.3347591,2.753307,-2.7005765,0.3347591,2.753307,-2.7005765
261,1715728769600,0.3347591,2.753307,-2.7005765,0.3347591,2.753307,-2.7005765
262,1715728769610,0.3347591,2.753307,-2.7005765,0.3347591,2.753307,-2.7005765
263,1715728769620,0.3347591,2.753307,-2.7005765,0.3347591,2.753307,-2.7005765
264,1715728769630,0.3347591,2.753307,-2.7005765,0.3347591,2.753307,-2.7005765
265,1715728769640,0.3347591,2.753307,-2.7005765,0.3347591,2.753307,-2.7005765
266,1715728769650,0.3347591,2.753307,-2.7005765,0.3347591,2.753307,-2.7005765
267,1715728769660,0.3347591,2.753307,-2.7005765,0.3347591,2.753307,-2.7005765
268,1715728769670,0.3347591,2.753307,-2.7005765,0.3347591,2.753307,-2.7005765
269,1715728769680,0.3347591,2.753307,-2.7005765,0.3347591,2.753307,-2.7005765
270,1715728769690,0.3347591,2.753307,-2.7005765,0.3347591,2.753307,-2.7005765
271,1715728769700,0.3347591,2.753307,-2.7005765,0.3347591,2.753307,-2.7005765
272,1715728769710,0.157459275,3.20491225,-3.5722951,0.157459275,3.20491225,-3.5722951
273,1715728769720,2.34867325,1.62709035,-6.201498725,2.34867325,1.62709035,-6.201498725
274,1715728769730,2.9759471000000004,1.9993666,-7.0617657,2.9759471000000004,1.9993666,-7.0617657
275,1715728769740,3.2533817166666665,1.9725575333333334,-7.0889298499999995,3.2533817166666665,1.9725575333333334,-7.0889298499999995
276,1715728769750,4.0942077,1.8818326166666666,-7.3023153333333335,4.0942077,1.8818326166666666,-7.3023153333333335
277,1715728769760,4.544681,1.7351813,-7.564437000000001,4.544681,1.7351813,-7.564437000000001
278,1715728769770,4.70908675,1.6025781666666667,-7.728998066666667,4.70908675,1.6025781666666667,-7.728998066666667
279,1715728769780,4.9516115,1.3401017,-7.993605,4.9516115,1.3401017,-7.993605
280,1715728769790,5.0164595,0.8587357000000001,-7.939276699999999,5.0164595,0.8587357000000001,-7.939276699999999
281,1715728769800,5.0164595,0.8587357,-7.9392767,5.0164595,0.8587357,-7.9392767
282,1715728769810,4.6450023,-0.06996118,-7.11966302,4.6450023,-0.06996118,-7.11966302
283,1715728769820,4.3822018,-0.554522976,-6.622744040000001,4.3822018,-0.554522976,-6.622744040000001
284,1715728769830,3.0079049999999996,-2.010419,-4.698478,3.0079049999999996,-2.010419,-4.698478
285,1715728769840,2.036651,-2.9752812,-3.3928647,2.036651,-2.9752812,-3.3928647
286,1715728769850,1.7515265,-3.3139353000000003,-2.947950675,1.7515265,-3.3139353000000003,-2.947950675
287,1715728769860,1.2251863,-3.7730307999999995,-2.1169453,1.2251863,-3.7730307999999995,-2.1169453
288,1715728769870,1.1410306,-3.7772917999999995,-2.018941,1.1410306,-3.7772917999999995,-2.018941
289,1715728769880,0.6255761,-3.4758222,-1.3938975000000002,0.6255761,-3.4758222,-1.3938975000000002
290,1715728769890,0.25379905,-3.0839381,-0.7250451,0.25379905,-3.0839381,-0.7250451
291,1715728769900,0.199503897,-2.989695575,-0.541054086875,0.199503897,-2.989695575,-0.541054086875
292,1715728769910,-0.027297381,-1.8474334,1.657417,-0.027297381,-1.8474334,1.657417
293,1715728769920,0.0140348474,-1.6766184,1.9730546,0.0140348474,-1.6766184,1.9730546
294,1715728769930,0.7074682,-0.021038957,5.23364,0.7074682,-0.021038957,5.23364
295,1715728769940,0.8331693399999999,0.21331905,5.746964,0.8331693399999999,0.21331905,5.746964
296,1715728769950,1.0945317639999999,0.86701809,7.4611862,1.0945317639999999,0.86701809,7.4611862
297,1715728769960,1.5510238,2.2889853,11.2115,1.5510238,2.2889853,11.2115
298,1715728769970,1.4080921060000002,2.7728811799999997,12.229386600000002,1.4080921060000002,2.7728811799999997,12.229386600000002
299,1715728769980,0.98017573,3.7629106,13.786642,0.98017573,3.7629106,13.786642
300,1715728769990,0.26232117,4.4456115,13.861211,0.26232117,4.4456115,13.861211
301,1715728770000,-0.7381943825,4.33462425,12.82680675,-0.7381943825,4.33462425,12.82680675
302,1715728770010,-2.1999025,3.6288207,10.929206,-2.1999025,3.6288207,10.929206
303,1715728770020,-2.8623633,2.9205534,9.65555,-2.8623633,2.9205534,9.65555
304,1715728770030,-4.159455,0.7937546,6.897182500000001,-4.159455,0.7937546,6.897182500000001
305,1715728770040,-4.3522677,-0.328767,6.2528315,-4.3522677,-0.328767,6.2528315
306,1715728770050,-4.31839236,-0.4209922,6.2434572,-4.31839236,-0.4209922,6.2434572
307,1715728770060,-3.4641042,-0.5663208,6.754437399999999,-3.4641042,-0.5663208,6.754437399999999
308,1715728770070,-3.38154625,-0.50613339,6.8572352,-3.38154625,-0.50613339,6.8572352
309,1715728770080,-3.11581624,-0.334546037,7.2590791999999995,-3.11581624,-0.334546037,7.2590791999999995
310,1715728770090,-2.383128,0.111053735,8.455264,-2.383128,0.111053735,8.455264
311,1715728770100,-2.383128,0.111053735,8.455264,-2.383128,0.111053735,8.455264
312,1715728770110,-2.383128,0.111053735,8.455264,-2.383128,0.111053735,8.455264
313,1715728770120,-2.383128,0.111053735,8.455264,-2.383128,0.111053735,8.455264
314,1715728770130,-2.383128,0.111053735,8.455264,-2.383128,0.111053735,8.455264
315,1715728770140,-2.383128,0.111053735,8.455264,-2.383128,0.111053735,8.455264
316,1715728770150,-2.383128,0.111053735,8.455264,-2.383128,0.111053735,8.455264
317,1715728770160,-2.383128,0.111053735,8.455264,-2.383128,0.111053735,8.455264
318,1715728770170,-2.383128,0.111053735,8.455264,-2.383128,0.111053735,8.455264
319,1715728770180,-2.383128,0.111053735,8.455264,-2.383128,0.111053735,8.455264
320,1715728770190,-2.383128,0.111053735,8.455264,-2.383128,0.111053735,8.455264
321,1715728770200,-2.383128,0.111053735,8.455264,-2.383128,0.111053735,8.455264
322,1715728770210,-1.9056235333333333,-0.2904618903333333,6.008264566666667,-1.9056235333333333,-0.2904618903333333,6.008264566666667
323,1715728770220,-0.54878831,1.6599027,-1.7634108,-0.54878831,1.6599027,-1.7634108
324,1715728770230,1.1110033666666665,0.697525775,-3.8232535,1.1110033666666665,0.697525775,-3.8232535
325,1715728770240,1.2697942,0.58389765,-4.202199,1.2697942,0.58389765,-4.202199
326,1715728770250,1.3022847499999999,0.5512517533333333,-4.273038966666667,1.3022847499999999,0.5512517533333333,-4.273038966666667
327,1715728770260,1.692704,0.20373167,-5.0340366,1.692704,0.20373167,-5.0340366
328,1715728770270,1.8976562000000001,0.25255625666666665,-5.2083403,1.8976562000000001,0.25255625666666665,-5.2083403
329,1715728770280,2.1271982,0.37097806,-5.461074,2.1271982,0.37097806,-5.461074
330,1715728770290,2.2784657,0.609464,-5.7305856,2.2784657,0.609464,-5.7305856
331,1715728770300,2.2784657,0.609464,-5.7305856,2.2784657,0.609464,-5.7305856
332,1715728770310,2.335857,0.957672,-6.294909,2.335857,0.957672,-6.294909
333,1715728770320,2.335857,0.957672,-6.294909,2.335857,0.957672,-6.294909
334,1715728770330,2.2901838,1.2495543,-6.864692,2.2901838,1.2495543,-6.864692
335,1715728770340,2.24757324,1.28279046,-7.0368388,2.24757324,1.28279046,-7.0368388
336,1715728770350,2.1934578,1.2898212,-7.1540178,2.1934578,1.2898212,-7.1540178
337,1715728770360,2.0623947666666664,1.3200391666666667,-7.397745583333333,2.0623947666666664,1.3200391666666667,-7.397745583333333
338,1715728770370,2.0112976799999998,1.3586372,-7.533757420000001,2.0112976799999998,1.3586372,-7.533757420000001
339,1715728770380,1.9993666,1.535977,-7.854189,1.9993666,1.535977,-7.854189
340,1715728770390,2.02408084,1.58540524,-7.926520200000001,2.02408084,1.58540524,-7.926520200000001
341,1715728770400,2.07010024,1.62673746,-7.9987184,2.07010024,1.62673746,-7.9987184
342,1715728770410,2.4562316,1.8044235,-8.329164,2.4562316,1.8044235,-8.329164
343,1715728770420,2.505500075,1.81054875,-8.33289225,2.505500075,1.81054875,-8.33289225
344,1715728770430,3.0483851,1.8353161,-8.246073,3.0483851,1.8353161,-8.246073
345,1715728770440,3.113898775,1.812945575,-8.19653825,3.113898775,1.812945575,-8.19653825
346,1715728770450,3.3762464800000003,1.6508391,-7.91757226,3.3762464800000003,1.6508391,-7.91757226
347,1715728770460,3.710846,0.44221756,-6.4025006,3.710846,0.44221756,-6.4025006
348,1715728770470,3.6869840799999998,0.27268085480000004,-6.21506756,3.6869840799999998,0.27268085480000004,-6.21506756
349,1715728770480,3.282743,-1.1382343,-4.6538706,3.282743,-1.1382343,-4.6538706
350,1715728770490,2.655436,-2.0114841,-3.3726246000000004,2.655436,-2.0114841,-3.3726246000000004
351,1715728770500,2.4230487199999997,-2.03960708,-3.0324593,2.4230487199999997,-2.03960708,-3.0324593
352,1715728770510,2.04903464,-2.21260596,-2.4402793,2.04903464,-2.21260596,-2.4402793
353,1715728770520,1.555284935,-2.0445073,-1.77719265,1.555284935,-2.0445073,-1.77719265
354,1715728770530,-0.18708692,-0.8889625,0.82451403,-0.18708692,-0.8889625,0.82451403
355,1715728770540,-0.18708692,-0.8889625000000001,0.8245140299999999,-0.18708692,-0.8889625000000001,0.8245140299999999
356,1715728770550,-0.44372668,-0.48176547333333336,1.7318966866666667,-0.44372668,-0.48176547333333336,1.7318966866666667
357,1715728770560,-1.0311485999999999,0.774819476,5.0266328,-1.0311485999999999,0.774819476,5.0266328
358,1715728770570,-1.0158087999999998,1.0342111800000002,6.2694758,-1.0158087999999998,1.0342111800000002,6.2694758
359,1715728770580,-0.8506129999999998,1.2314447,9.144357,-0.8506129999999998,1.2314447,9.144357
360,1715728770590,-0.8239813999999999,1.2357059,9.962213,-0.8239813999999999,1.2357059,9.962213
361,1715728770600,-0.8239813999999999,1.2357059,9.962213,-0.8239813999999999,1.2357059,9.962213
362,1715728770610,-0.8239813999999999,1.2357059,9.962213,-0.8239813999999999,1.2357059,9.962213
363,1715728770620,-0.8239813999999999,1.2357059,9.962213,-0.8239813999999999,1.2357059,9.962213
364,1715728770630,-0.8239814,1.2357059,9.962213,-0.8239814,1.2357059,9.962213
365,1715728770640,-0.8239813999999999,1.2357059,9.962213,-0.8239813999999999,1.2357059,9.962213
366,1715728770650,-0.8239814,1.2357059,9.962213,-0.8239814,1.2357059,9.962213
367,1715728770660,-0.8239814,1.2357059,9.962213,-0.8239814,1.2357059,9.962213
368,1715728770670,-0.8239813999999999,1.2357059,9.962213,-0.8239813999999999,1.2357059,9.962213
369,1715728770680,-0.8239814,1.2357059,9.962213,-0.8239814,1.2357059,9.962213
370,1715728770690,-0.8239813999999999,1.2357059,9.962213,-0.8239813999999999,1.2357059,9.962213
371,1715728770700,-0.8239814,1.2357059,9.962213,-0.8239814,1.2357059,9.962213
372,1715728770710,-0.8239814,1.2357059,9.962213,-0.8239814,1.2357059,9.962213
373,1715728770720,-0.8239813999999999,1.2357059,9.962213,-0.8239813999999999,1.2357059,9.962213
374,1715728770730,-1.146623135,1.0988194,12.015575,-1.146623135,1.0988194,12.015575
375,1715728770740,-2.5758962333333333,-0.14207954333333336,9.446447,-2.5758962333333333,-0.14207954333333336,9.446447
376,1715728770750,-0.6616618780000001,-1.57672338,4.92519322,-0.6616618780000001,-1.57672338,4.92519322
377,1715728770760,-0.22650169,-1.1233205,2.1334567,-0.22650169,-1.1233205,2.1334567
378,1715728770770,-0.4245519549999999,-0.58511825,1.57856536,-0.4245519549999999,-0.58511825,1.57856536
379,1715728770780,-1.0017473,0.7298386999999998,0.36338805999999996,-1.0017473,0.7298386999999998,0.36338805999999996
380,1715728770790,-1.08015074,0.8321040359999999,0.27901918800000003,-1.08015074,0.8321040359999999,0.27901918800000003
381,1715728770800,-1.0997516,0.85767037,0.25792697,-1.0997516,0.85767037,0.25792697
382,1715728770810,-1.6122099333333333,1.1521047783333334,-0.17658963333333333,-1.6122099333333333,1.1521047783333334,-0.17658963333333333
383,1715728770820,-1.7471211166666667,1.1868811666666665,-0.33526952499999996,-1.7471211166666667,1.1868811666666665,-0.33526952499999996
384,1715728770830,-1.5981618,0.9301083,-1.1957585,-1.5981618,0.9301083,-1.1957585
385,1715728770840,-1.5768565166666668,0.92868795,-1.2582317666666667,-1.5768565166666668,0.92868795,-1.2582317666666667
386,1715728770850,-1.1572758,0.95873725,-2.1691432,-1.1572758,0.95873725,-2.1691432
387,1715728770860,-1.083985664,0.96385051,-2.2628863200000002,-1.083985664,0.96385051,-2.2628863200000002
388,1715728770870,-0.58560206,0.9607346440000001,-2.7671022,-0.58560206,0.9607346440000001,-2.7671022
389,1715728770880,0.5275718,0.9013462000000001,-3.5973954,0.5275718,0.9013462000000001,-3.5973954
390,1715728770890,0.9601487439999999,0.8640619700000001,-3.86296556,0.9601487439999999,0.8640619700000001,-3.86296556
391,1715728770900,2.1243132,0.7312590999999999,-4.6516957,2.1243132,0.7312590999999999,-4.6516957
392,1715728770910,2.4913852,0.670184,-4.9818387,2.4913852,0.670184,-4.9818387
393,1715728770920,2.572611625,0.659797675,-5.079277025,2.572611625,0.659797675,-5.079277025
394,1715728770930,3.1153412333333335,0.6020071166666666,-5.843747833333333,3.1153412333333335,0.6020071166666666,-5.843747833333333
395,1715728770940,3.2039135,0.601154916,-5.9963424,3.2039135,0.601154916,-5.9963424
396,1715728770950,3.3690295,0.7319693,-6.5548334,3.3690295,0.7319693,-6.5548334
397,1715728770960,3.33920198,0.7967373240000001,-6.75254668,3.33920198,0.7967373240000001,-6.75254668
398,1715728770970,3.2965914599999997,0.823155832,-6.896490180000001,3.2965914599999997,0.823155832,-6.896490180000001
399,1715728770980,3.1293452,0.8182556599999999,-7.1938586,3.1293452,0.8182556599999999,-7.1938586
400,1715728770990,3.09866552,0.8233688920000001,-7.22198132,3.09866552,0.8233688920000001,-7.22198132
401,1715728771000,3.0909956,0.8246472,-7.229012,3.0909956,0.8246472,-7.229012
402,1715728771010,2.81306165,0.90693885,-7.373522,2.81306165,0.90693885,-7.373522
403,1715728771020,2.5334099599999997,0.9790572000000001,-7.387230560000001,2.5334099599999997,0.9790572000000001,-7.387230560000001
404,1715728771030,2.0713786,1.0648374600000001,-7.2128204799999995,2.0713786,1.0648374600000001,-7.2128204799999995
405,1715728771040,1.94759488,1.0814556400000002,-7.119077,1.94759488,1.0814556400000002,-7.119077
406,1715728771050,1.74513485,1.161936275,-6.96988675,1.74513485,1.161936275,-6.96988675
407,1715728771060,1.6458323,1.2112048,-6.893454,1.6458323,1.2112048,-6.893454
408,1715728771070,1.50266086,1.4407957200000001,-6.6894295999999995,1.50266086,1.4407957200000001,-6.6894295999999995
409,1715728771080,1.3646027,1.7735308,-6.403566,1.3646027,1.7735308,-6.403566
410,1715728771090,1.3685975,1.89576985,-6.298204800000001,1.3685975,1.89576985,-6.298204800000001
411,1715728771100,1.5052176,2.384859,-5.6975627,1.5052176,2.384859,-5.6975627
412,1715728771110,1.6405059999999998,2.5616927,-5.197022,1.6405059999999998,2.5616927,-5.197022
413,1715728771120,1.6664274333333333,2.5624028666666665,-5.037232433333333,1.6664274333333333,2.5624028666666665,-5.037232433333333
414,1715728771130,1.7161397,2.2261348,-3.7187022999999995,1.7161397,2.2261348,-3.7187022999999995
415,1715728771140,1.67949466,2.0310849600000003,-3.35321022,1.67949466,2.0310849600000003,-3.35321022
416,1715728771150,1.4068138,1.19607802,-1.7966204000000001,1.4068138,1.19607802,-1.7966204000000001
417,1715728771160,1.1452916,0.5977461,-0.5684513,1.1452916,0.5977461,-0.5684513
418,1715728771170,1.1452916,0.5977461,-0.5684513,1.1452916,0.5977461,-0.5684513
419,1715728771180,1.1452916,0.5977461,-0.5684513,1.1452916,0.5977461,-0.5684513
420,1715728771190,1.1452916,0.5977461,-0.5684513,1.1452916,0.5977461,-0.5684513
421,1715728771200,1.1452916,0.5977461,-0.5684513,1.1452916,0.5977461,-0.5684513
422,1715728771210,1.1452916,0.5977461,-0.5684513,1.1452916,0.5977461,-0.5684513
423,1715728771220,1.1452916,0.5977461,-0.5684513,1.1452916,0.5977461,-0.5684513
424,1715728771230,1.093093675,0.5141561825,-0.341883045,1.093093675,0.5141561825,-0.341883045
425,1715728771240,-0.09334373,0.92052096,8.706666,-0.09334373,0.92052096,8.706666
426,1715728771250,-0.03235738275,0.9465866350000001,9.826458,-0.03235738275,0.9465866350000001,9.826458
427,1715728771260,0.08881636,0.66592294,10.158221,0.08881636,0.66592294,10.158221
428,1715728771270,0.15349784,0.34564476499999996,9.980887749999999,0.15349784,0.34564476499999996,9.980887749999999
429,1715728771280,0.27830014,-0.28296065,9.588438,0.27830014,-0.28296065,9.588438
430,1715728771290,0.43936798800000004,-0.5615803500000001,9.164995600000001,0.43936798800000004,-0.5615803500000001,9.164995600000001
431,1715728771300,0.601075,-0.77604455,8.719449,0.601075,-0.77604455,8.719449
432,1715728771310,0.5478118,-0.73236877,8.078294,0.5478118,-0.73236877,8.078294
433,1715728771320,0.4386223,-0.641355305,7.8669055,0.4386223,-0.641355305,7.8669055
434,1715728771330,-0.26911223,0.122771636,7.2698917,-0.26911223,0.122771636,7.2698917
435,1715728771340,-0.35404037,0.2275935704,7.24176868,-0.35404037,0.2275935704,7.24176868
436,1715728771350,-1.1807116,1.3124048,6.8598986,-1.1807116,1.3124048,6.8598986
437,1715728771360,-1.3511537,1.4604764,6.3998375,-1.3511537,1.4604764,6.3998375
438,1715728771370,-1.3511537,1.4604764,6.3998375,-1.3511537,1.4604764,6.3998375
439,1715728771380,-1.571563475,1.0435255775,5.3047799,-1.571563475,1.0435255775,5.3047799
440,1715728771390,-1.666604975,0.8022766725,4.763193375,-1.666604975,0.8022766725,4.763193375
441,1715728771400,-1.5246585999999998,-0.17217322999999998,3.064231,-1.5246585999999998,-0.17217322999999998,3.064231
442,1715728771410,-1.117861,-0.6131924,2.0855198,-1.117861,-0.6131924,2.0855198
443,1715728771420,-1.117861,-0.6131924,2.0855198,-1.117861,-0.6131924,2.0855198
444,1715728771430,-0.4032023,-0.5748429,0.75633717,-0.4032023,-0.5748429,0.75633717
445,1715728771440,-0.370778325,-0.5029376,0.599810005,-0.370778325,-0.5029376,0.599810005
446,1715728771450,-0.38722333,-0.07004108,-0.4342281,-0.38722333,-0.07004108,-0.4342281
447,1715728771460,-0.4969455,0.032224227,-0.9582046,-0.4969455,0.032224227,-0.9582046
448,1715728771470,-0.5260627,0.012339304466666668,-1.2813346,-0.5260627,0.012339304466666668,-1.2813346
449,1715728771480,-0.44155177,-0.1615206,-1.913613,-0.44155177,-0.1615206,-1.913613
450,1715728771490,-0.33302805,-0.24567642999999997,-2.144642,-0.33302805,-0.24567642999999997,-2.144642
451,1715728771500,0.15060164,-0.39481333,-2.8379955,0.15060164,-0.39481333,-2.8379955
452,1715728771510,0.427463688,-0.325784266,-3.2537678999999997,0.427463688,-0.325784266,-3.2537678999999997
453,1715728771520,0.637214104,-0.191001778,-3.6171292800000003,0.637214104,-0.191001778,-3.6171292800000003
454,1715728771530,1.0345042,0.46991444,-4.502603,1.0345042,0.46991444,-4.502603
455,1715728771540,1.0962894666666667,0.6467481866666667,-4.665144333333333,1.0962894666666667,0.6467481866666667,-4.665144333333333
456,1715728771550,1.3273185,1.462607,-5.3428297,1.3273185,1.462607,-5.3428297
457,1715728771560,1.3848428,1.7937708,-5.642169,1.3848428,1.7937708,-5.642169
458,1715728771570,1.3848428,1.7937708,-5.642169,1.3848428,1.7937708,-5.642169
459,1715728771580,1.349689,1.923733,-6.1981034,1.349689,1.923733,-6.1981034
460,1715728771590,1.3475585,1.9056236,-6.370543,1.3475585,1.9056236,-6.370543
461,1715728771600,1.3592764,1.9098846000000003,-6.833799400000001,1.3592764,1.9098846000000003,-6.833799400000001
462,1715728771610,1.4050827000000001,2.0025625,-7.0191555,1.4050827000000001,2.0025625,-7.0191555
463,1715728771620,1.4050827,2.0025625,-7.019155499999999,1.4050827,2.0025625,-7.019155499999999
464,1715728771630,1.4050827,2.0025625,-7.019155499999999,1.4050827,2.0025625,-7.019155499999999
465,1715728771640,1.4050827,2.0025625,-7.0191555,1.4050827,2.0025625,-7.0191555
466,1715728771650,1.4050827,2.0025625,-7.0191555,1.4050827,2.0025625,-7.0191555
467,1715728771660,1.4050827,2.0025625,-7.0191555,1.4050827,2.0025625,-7.0191555
468,1715728771670,1.4050827,2.0025625,-7.019155499999999,1.4050827,2.0025625,-7.019155499999999
469,1715728771680,1.4050827000000001,2.0025625,-7.0191555,1.4050827000000001,2.0025625,-7.0191555
470,1715728771690,1.4050827,2.0025625,-7.0191555,1.4050827,2.0025625,-7.0191555
471,1715728771700,1.4050827,2.0025625,-7.019155499999999,1.4050827,2.0025625,-7.019155499999999
472,1715728771710,1.4050827,2.0025625,-7.019155499999999,1.4050827,2.0025625,-7.019155499999999
473,1715728771720,1.4050827,2.0025625,-7.0191555,1.4050827,2.0025625,-7.0191555
474,1715728771730,1.4050827,2.0025625,-7.019155499999999,1.4050827,2.0025625,-7.019155499999999
475,1715728771740,1.4050827,2.0025625,-7.0191555,1.4050827,2.0025625,-7.0191555
476,1715728771750,1.4050827000000001,2.0025625,-7.0191555,1.4050827000000001,2.0025625,-7.0191555
477,1715728771760,1.7636327666666667,2.588945733333333,-7.915219833333333,1.7636327666666667,2.588945733333333,-7.915219833333333
478,1715728771770,2.631645033333333,2.479267966666667,-7.805142666666668,2.631645033333333,2.479267966666667,-7.805142666666668
479,1715728771780,2.531132925,-0.705004795,-3.3409331,2.531132925,-0.705004795,-3.3409331
480,1715728771790,1.8859604666666667,-0.9209426266666667,-2.3989958833333334,1.8859604666666667,-0.9209426266666667,-2.3989958833333334
481,1715728771800,1.0206558,-0.5290366,-1.3246553,1.0206558,-0.5290366,-1.3246553
482,1715728771810,0.8832367,-0.43316284,-0.7910914,0.8832367,-0.43316284,-0.7910914
483,1715728771820,0.8562500233333333,-0.321154805,-0.1527987333333333,0.8562500233333333,-0.321154805,-0.1527987333333333
484,1715728771830,0.5275274333333333,0.13377936333333332,1.8664306666666668,0.5275274333333333,0.13377936333333332,1.8664306666666668
485,1715728771840,0.8012558100000001,0.2353345,3.092238366666667,0.8012558100000001,0.2353345,3.092238366666667
486,1715728771850,2.05025964,0.76453968,7.219877600000001,2.05025964,0.76453968,7.219877600000001
487,1715728771860,2.445579,1.09083,8.60014,2.445579,1.09083,8.60014
488,1715728771870,2.445579,1.09083,8.60014,2.445579,1.09083,8.60014
489,1715728771880,2.66331886,1.61778926,10.1829084,2.66331886,1.61778926,10.1829084
490,1715728771890,2.6735454,1.5572823,10.029324,2.6735454,1.5572823,10.029324
491,1715728771900,1.1218557,2.138783,11.424552999999998,1.1218557,2.138783,11.424552999999998
492,1715728771910,0.6127929,2.1185431,11.374486,0.6127929,2.1185431,11.374486
493,1715728771920,0.11989542,2.1078905,11.3318756,0.11989542,2.1078905,11.3318756
494,1715728771930,-1.44076904,1.9923093600000001,10.8666752,-1.44076904,1.9923093600000001,10.8666752
495,1715728771940,-2.0461051400000003,1.8677001400000002,10.3987048,-2.0461051400000003,1.8677001400000002,10.3987048
496,1715728771950,-3.2382684,1.5572823,9.262601,-3.2382684,1.5572823,9.262601
497,1715728771960,-3.31560654,1.53107676,9.162252800000001,-3.31560654,1.53107676,9.162252800000001
498,1715728771970,-3.38048105,1.3597424,8.95210925,-3.38048105,1.3597424,8.95210925
499,1715728771980,-2.68518326,0.2190448344,8.0435394,-2.68518326,0.2190448344,8.0435394
500,1715728771990,-1.8897111,-0.31704909425,7.584377625,-1.8897111,-0.31704909425,7.584377625
501,1715728772000,-1.0454232,-0.7579351,7.155908600000001,-1.0454232,-0.7579351,7.155908600000001
502,1715728772010,-0.9186567,-0.7462172,7.012231,-0.9186567,-0.7462172,7.012231
503,1715728772020,-1.0351699,-0.684245486,6.85758134,-1.0351699,-0.684245486,6.85758134
504,1715728772030,-1.9720693,-0.5002744,5.381712,-1.9720693,-0.5002744,5.381712
505,1715728772040,-1.784882525,-0.6155559125,4.8981821750000005,-1.784882525,-0.6155559125,4.8981821750000005
506,1715728772050,-1.2233222,-0.96140045,3.4475927,-1.2233222,-0.96140045,3.4475927
507,1715728772060,-0.9940773999999999,-0.8906669700000001,3.05738654,-0.9940773999999999,-0.8906669700000001,3.05738654
508,1715728772070,-0.9367661999999999,-0.8729835999999999,2.959835,-0.9367661999999999,-0.8729835999999999,2.959835
509,1715728772080,-0.7970501999999999,-0.21964405855,1.967042525,-0.7970501999999999,-0.21964405855,1.967042525
510,1715728772090,-1.234685,0.6041376666666666,0.23418044666666668,-1.234685,0.6041376666666666,0.23418044666666668
511,1715728772100,-1.2638022,0.5764408,-0.25646222,-1.2638022,0.5764408,-0.25646222
512,1715728772110,-1.22065905,0.5908218249999999,-0.46169193500000005,-1.22065905,0.5908218249999999,-0.46169193500000005
513,1715728772120,-1.0017473,0.924782,-1.359809,-1.0017473,0.924782,-1.359809
514,1715728772130,-0.89428884,1.2112048,-1.9519625,-0.89428884,1.2112048,-1.9519625
515,1715728772140,-0.7906919425,1.329948375,-2.399772675,-0.7906919425,1.329948375,-2.399772675
516,1715728772150,-0.57364446,1.5231938,-3.2682288,-0.57364446,1.5231938,-3.2682288
517,1715728772160,-0.478196844,1.55643004,-3.53326656,-0.478196844,1.55643004,-3.53326656
518,1715728772170,-0.3491734455,1.6030886,-3.7967995,-0.3491734455,1.6030886,-3.7967995
519,1715728772180,0.25379905,1.8576866,-4.7719817,0.25379905,1.8576866,-4.7719817
520,1715728772190,0.351270675,1.9152108,-4.8769102,0.351270675,1.9152108,-4.8769102
521,1715728772200,0.73942614,2.2623537,-5.3130026,0.73942614,2.2623537,-5.3130026
522,1715728772210,0.8456861849999999,2.38619055,-5.4879719,0.8456861849999999,2.38619055,-5.4879719
523,1715728772220,1.0504831,2.558497,-5.90196,1.0504831,2.558497,-5.90196
524,1715728772230,1.2751206,2.6350627,-6.3034315,1.2751206,2.6350627,-6.3034315
525,1715728772240,1.2982901,2.651308025,-6.33911775,1.2982901,2.651308025,-6.33911775
526,1715728772250,1.5488933,2.955707,-6.7082314,1.5488933,2.955707,-6.7082314
527,1715728772260,1.57680324,3.1109959599999994,-6.8040784,1.57680324,3.1109959599999994,-6.8040784
528,1715728772270,1.5652984399999998,3.3331034199999996,-6.9778232000000004,1.5652984399999998,3.3331034199999996,-6.9778232000000004
529,1715728772280,1.5499586,3.4072459,-7.093723999999999,1.5499586,3.4072459,-7.093723999999999
530,1715728772290,1.609879675,3.400587925,-7.215663125,1.609879675,3.400587925,-7.215663125
531,1715728772300,1.7662070999999997,3.3625047,-7.444062,1.7662070999999997,3.3625047,-7.444062
532,1715728772310,1.8981667,3.3007195,-7.507978,1.8981667,3.3007195,-7.507978
533,1715728772320,2.481798,3.0142965,-7.6379404,2.481798,3.0142965,-7.6379404
534,1715728772330,2.9706209,2.737328,-7.688007999999999,2.9706209,2.737328,-7.688007999999999
535,1715728772340,3.061967225,2.67770655,-7.6896058499999995,3.061967225,2.67770655,-7.6896058499999995
536,1715728772350,3.8717008000000006,2.1153474,-7.560176000000001,3.8717008000000006,2.1153474,-7.560176000000001
537,1715728772360,3.98984545,2.020372425,-7.47229175,3.98984545,2.020372425,-7.47229175
538,1715728772370,4.029227,1.9887141,-7.442997000000001,4.029227,1.9887141,-7.442997000000001
539,1715728772380,4.015378,1.4903039,-6.358825,4.015378,1.4903039,-6.358825
540,1715728772390,3.7120975200000004,1.43064912,-6.0235864800000005,3.7120975200000004,1.43064912,-6.0235864800000005
541,1715728772400,2.833335,1.3017522,-5.133106,2.833335,1.3017522,-5.133106
542,1715728772410,2.4200127,1.3081437,-4.8327017,2.4200127,1.3081437,-4.8327017
543,1715728772420,2.4200127,1.3081437,-4.8327017,2.4200127,1.3081437,-4.8327017
544,1715728772430,0.777043255,1.27299005,-3.852426075,0.777043255,1.27299005,-3.852426075
545,1715728772440,0.707122012,1.26915512,-3.7767058,0.707122012,1.26915512,-3.7767058
546,1715728772450,-1.1359705,0.92691255,-1.6494275000000003,-1.1359705,0.92691255,-1.6494275000000003
547,1715728772460,-1.2520843,0.7074682,-0.94116044,-1.2520843,0.7074682,-0.94116044
548,1715728772470,-1.1199915,-0.41185755,1.9651451000000002,-1.1199915,-0.41185755,1.9651451000000002
549,1715728772480,-0.69401926,-1.3873727,4.365717,-0.69401926,-1.3873727,4.365717
550,1715728772490,-0.5648116566666667,-1.5719740333333334,4.9503691,-0.5648116566666667,-1.5719740333333334,4.9503691
551,1715728772500,0.17496955,-2.3170817,8.556464,0.17496955,-2.3170817,8.556464
552,1715728772510,0.202666405,-2.32027745,8.760928,0.202666405,-2.32027745,8.760928
553,1715728772520,0.23036326,-2.3234732,8.965392,0.23036326,-2.3234732,8.965392
554,1715728772530,0.25948045999999997,-2.203542333333333,10.621166666666667,0.25948045999999997,-2.203542333333333,10.621166666666667
555,1715728772540,0.2168144315,-2.1422452749999996,11.4580755,0.2168144315,-2.1422452749999996,11.4580755
556,1715728772550,-0.402137,-2.1030967,11.406444,-0.402137,-2.1030967,11.406444
557,1715728772560,-0.6769751,-2.0615516,11.306309,-0.6769751,-2.0615516,11.306309
558,1715728772570,-1.5555513,-1.7696691999999998,10.657697,-1.5555513,-1.7696691999999998,10.657697
559,1715728772580,-2.112551,-1.388438,10.262617,-2.112551,-1.388438,10.262617
560,1715728772590,-2.242213575,-1.2808796500000001,10.1845865,-2.242213575,-1.2808796500000001,10.1845865
561,1715728772600,-3.1019146,-0.6291713,9.365798,-3.1019146,-0.6291713,9.365798
562,1715728772610,-3.3820456500000002,-0.6363285999999999,8.71432265,-3.3820456500000002,-0.6363285999999999,8.71432265
563,1715728772620,-3.766506,-0.8048067,7.584144599999999,-3.766506,-0.8048067,7.584144599999999
564,1715728772630,-3.5589128,-1.1883016,6.716088,-3.5589128,-1.1883016,6.716088
565,1715728772640,-3.36077368,-1.33525472,6.4494524,-3.36077368,-1.33525472,6.4494524
566,1715728772650,-2.654637,-1.8197366,5.786379,-2.654637,-1.8197366,5.786379
567,1715728772660,-2.549176,-1.8548903,5.7895746,-2.549176,-1.8548903,5.7895746
568,1715728772670,-1.93258795,-2.372575175,5.704087275,-1.93258795,-2.372575175,5.704087275
569,1715728772680,-1.3639369,-2.7080333,5.629785,-1.3639369,-2.7080333,5.629785
570,1715728772690,-1.19406065,-2.741023175,5.588805625,-1.19406065,-2.741023175,5.588805625
571,1715728772700,-0.031558435,-2.2085578,4.4338937,-0.031558435,-2.2085578,4.4338937
572,1715728772710,-0.101865835,-1.7250613,3.833218,-0.101865835,-1.7250613,3.833218
573,1715728772720,-1.2116042,0.054594763,2.0162778,-1.2116042,0.054594763,2.0162778
574,1715728772730,-1.99542524,0.7498923125999999,1.20689052,-1.99542524,0.7498923125999999,1.20689052
575,1715728772740,-2.1913805,0.9237167,1.0045437,-2.1913805,0.9237167,1.0045437
576,1715728772750,-2.3845039333333333,1.0536345,0.8043184933333333,-2.3845039333333333,1.0536345,0.8043184933333333
577,1715728772760,-3.3450077200000004,1.5898794,-0.410446084,-3.3450077200000004,1.5898794,-0.410446084
578,1715728772770,-3.5653042999999998,1.8246633999999997,-1.157409,-3.5653042999999998,1.8246633999999997,-1.157409
579,1715728772780,-3.3469253,1.9599520000000001,-1.5631411999999998,-3.3469253,1.9599520000000001,-1.5631411999999998
580,1715728772790,-3.3469253,1.959952,-1.5631412,-3.3469253,1.959952,-1.5631412
581,1715728772800,-2.71618256,2.15753168,-2.3176673400000003,-2.71618256,2.15753168,-2.3176673400000003
582,1715728772810,-2.58539475,2.2005683,-2.4875902500000002,-2.58539475,2.2005683,-2.4875902500000002
583,1715728772820,-2.26854545,2.322541,-3.0323395499999997,-2.26854545,2.322541,-3.0323395499999997
584,1715728772830,-1.6766917000000001,2.41868115,-3.8857156500000003,-1.6766917000000001,2.41868115,-3.8857156500000003
585,1715728772840,-1.42202044,2.40808182,-4.1285624,-1.42202044,2.40808182,-4.1285624
586,1715728772850,-0.5278381,2.36888,-4.7059355,-0.5278381,2.36888,-4.7059355
587,1715728772860,-0.5278381,2.36888,-4.7059355,-0.5278381,2.36888,-4.7059355
588,1715728772870,0.42104545,2.4359915,-5.2151313,0.42104545,2.4359915,-5.2151313
589,1715728772880,0.62238026,2.44984,-5.3417645,0.62238026,2.44984,-5.3417645
590,1715728772890,0.708000828,2.44046568,-5.4161199,0.708000828,2.44046568,-5.4161199
591,1715728772900,1.3475585,2.2133515,-6.0798593,1.3475585,2.2133515,-6.0798593
592,1715728772910,1.3475585,2.2133515,-6.0798593,1.3475585,2.2133515,-6.0798593
593,1715728772920,1.9492993000000003,1.7277244,-6.8264756,1.9492993000000003,1.7277244,-6.8264756
594,1715728772930,2.2283983,1.5370423,-7.143791,2.2283983,1.5370423,-7.143791
595,1715728772940,2.2936123999999998,1.475822925,-7.207939825,2.2936123999999998,1.475822925,-7.207939825
596,1715728772950,2.7459834,1.0120004,-7.5420666,2.7459834,1.0120004,-7.5420666
597,1715728772960,2.80876735,0.94122697,-7.558578300000001,2.80876735,0.94122697,-7.558578300000001
598,1715728772970,3.2326758,0.42623863,-7.5729594,3.2326758,0.42623863,-7.5729594
599,1715728772980,3.4796836,0.12383689999999999,-7.505847499999999,3.4796836,0.12383689999999999,-7.505847499999999
600,1715728772990,3.549280866666667,0.019130360000000003,-7.454049133333332,3.549280866666667,0.019130360000000003,-7.454049133333332
601,1715728773000,3.7843492,-0.5109271,-7.096919500000001,3.7843492,-0.5109271,-7.096919500000001
602,1715728773010,3.683149125,-0.703173885,-6.7949838499999995,3.683149125,-0.703173885,-6.7949838499999995
603,1715728773020,3.4072459,-0.98803204,-6.2194085,3.4072459,-0.98803204,-6.2194085
604,1715728773030,2.861964,-1.0231857,-5.6134067,2.861964,-1.0231857,-5.6134067
605,1715728773040,2.6809357499999997,-0.9909614849999999,-5.467765275,2.6809357499999997,-0.9909614849999999,-5.467765275
606,1715728773050,1.2145337,-0.7376951,-4.606999,1.2145337,-0.7376951,-4.606999
607,1715728773060,0.78879443,-0.6778739,-4.4919505,0.78879443,-0.6778739,-4.4919505
608,1715728773070,0.64688134,-0.6579335,-4.453601,0.64688134,-0.6579335,-4.453601
609,1715728773080,-1.8931954333333334,0.024101593333333327,-3.533080066666667,-1.8931954333333334,0.024101593333333327,-3.533080066666667
610,1715728773090,-2.2446437,0.14620744,-3.3364058,-2.2446437,0.14620744,-3.3364058
611,1715728773100,-2.2446437,0.14620744,-3.3364058,-2.2446437,0.14620744,-3.3364058
612,1715728773110,-2.2446437,0.14620744,-3.3364058,-2.2446437,0.14620744,-3.3364058
613,1715728773120,-2.2446437,0.14620744,-3.3364058,-2.2446437,0.14620744,-3.3364058
614,1715728773130,-2.2446437,0.14620744,-3.3364058,-2.2446437,0.14620744,-3.3364058
615,1715728773140,-2.2446437,0.14620744,-3.3364058,-2.2446437,0.14620744,-3.3364058
616,1715728773150,-2.2446437,0.14620744,-3.3364058,-2.2446437,0.14620744,-3.3364058
617,1715728773160,-2.2446437,0.14620744,-3.3364058,-2.2446437,0.14620744,-3.3364058
618,1715728773170,-2.2446437,0.14620744,-3.3364058,-2.2446437,0.14620744,-3.3364058
619,1715728773180,-3.2766178,0.5082639,-1.0231857,-3.2766178,0.5082639,-1.0231857
620,1715728773190,-2.0321902,-1.13976554,5.265598000000001,-2.0321902,-1.13976554,5.265598000000001
621,1715728773200,-0.7951527225,-3.154478675,11.473521875,-0.7951527225,-3.154478675,11.473521875
622,1715728773210,-1.121482896,-3.27691076,11.371929,-1.121482896,-3.27691076,11.371929
623,1715728773220,-1.3895032,-2.994456,11.195521,-1.3895032,-2.994456,11.195521
624,1715728773230,-1.4799175,-2.7900586,11.107104,-1.4799175,-2.7900586,11.107104
625,1715728773240,-1.7981650000000002,-2.33931894,10.7822788,-1.7981650000000002,-2.33931894,10.7822788
626,1715728773250,-2.6258748,-1.384177,9.899362,-2.6258748,-1.384177,9.899362
627,1715728773260,-2.7224587000000002,-1.3426317333333333,9.815960833333333,-2.7224587000000002,-1.3426317333333333,9.815960833333333
628,1715728773270,-3.3575778,-1.0551436,9.302947,-3.3575778,-1.0551436,9.302947
629,1715728773280,-3.37376988,-0.8991890399999999,8.825922199999999,-3.37376988,-0.8991890399999999,8.825922199999999
630,1715728773290,-3.3665261200000005,-0.777775624,8.51537132,-3.3665261200000005,-0.777775624,8.51537132
631,1715728773300,-3.5205630999999995,0.2761696,6.5564313,-3.5205630999999995,0.2761696,6.5564313
632,1715728773310,-3.594765325,0.40150453,6.1626501000000005,-3.594765325,0.40150453,6.1626501000000005
633,1715728773320,-3.4534515999999997,0.5082639,4.5456133,-3.4534515999999997,0.5082639,4.5456133
634,1715728773330,-2.907717,0.516786032,3.57393294,-2.907717,0.516786032,3.57393294
635,1715728773340,-2.3256037,0.55726606,2.6403892,-2.3256037,0.55726606,2.6403892
636,1715728773350,-1.8463682,0.85553986,1.7915071,-1.8463682,0.85553986,1.7915071
637,1715728773360,-1.68657866,1.035276464,1.33783798,-1.68657866,1.035276464,1.33783798
638,1715728773370,-1.4799175,1.2836426,0.6052029,-1.4799175,1.2836426,0.6052029
639,1715728773380,-1.4427664,1.3283838,0.30266804,-1.4427664,1.3283838,0.30266804
640,1715728773390,-1.45125525,1.358743825,0.09048083750000002,-1.45125525,1.358743825,0.09048083750000002
641,1715728773400,-1.6130755,1.5562171,-0.90720516,-1.6130755,1.5562171,-0.90720516
642,1715728773410,-1.692171325,1.608148675,-1.026148515,-1.692171325,1.608148675,-1.026148515
643,1715728773420,-2.18669322,1.8642912200000001,-1.5437534200000003,-2.18669322,1.8642912200000001,-1.5437534200000003
644,1715728773430,-2.4041935199999998,1.9594992000000002,-1.77744562,-2.4041935199999998,1.9594992000000002,-1.77744562
645,1715728773440,-2.7185528,2.0812588,-2.1872525,-2.7185528,2.0812588,-2.1872525
646,1715728773450,-2.8410579666666664,2.162928966666667,-2.603482083333333,-2.8410579666666664,2.162928966666667,-2.603482083333333
647,1715728773460,-2.72764075,2.2871209500000003,-3.10367885,-2.72764075,2.2871209500000003,-3.10367885
648,1715728773470,-2.4150858,2.4871242,-3.7964664,-2.4150858,2.4871242,-3.7964664
649,1715728773480,-2.1743362,2.5553012,-4.0553255,-2.1743362,2.5553012,-4.0553255
650,1715728773490,-1.2755201,2.6755428,-4.6709146,-1.2755201,2.6755428,-4.6709146
651,1715728773500,-1.1434273000000001,2.67980376,-4.738985319999999,-1.1434273000000001,2.67980376,-4.738985319999999
652,1715728773510,-0.10719215,2.6180186,-5.294893,-0.10719215,2.6180186,-5.294893
653,1715728773520,0.7001445,2.5563664,-5.7709327,0.7001445,2.5563664,-5.7709327
654,1715728773530,1.3763206,2.4988422,-6.2630844,1.3763206,2.4988422,-6.2630844
655,1715728773540,1.6948345,2.4722106,-6.540985,1.6948345,2.4722106,-6.540985
656,1715728773550,1.7714269000000002,2.45772292,-6.6833042,1.7714269000000002,2.45772292,-6.6833042
657,1715728773560,1.7905749999999998,2.454101,-6.718884,1.7905749999999998,2.454101,-6.718884
658,1715728773570,1.790575,2.454101,-6.718884,1.790575,2.454101,-6.718884
659,1715728773580,1.7905749999999998,2.454101,-6.718884,1.7905749999999998,2.454101,-6.718884
660,1715728773590,1.790575,2.454101,-6.718884,1.790575,2.454101,-6.718884
661,1715728773600,1.790575,2.454101,-6.718884,1.790575,2.454101,-6.718884
662,1715728773610,1.790575,2.454101,-6.718884,1.790575,2.454101,-6.718884
663,1715728773620,1.790575,2.454101,-6.718884,1.790575,2.454101,-6.718884
664,1715728773630,1.790575,2.454101,-6.718884,1.790575,2.454101,-6.718884
665,1715728773640,1.790575,2.454101,-6.718884,1.790575,2.454101,-6.718884
666,1715728773650,1.790575,2.454101,-6.718884,1.790575,2.454101,-6.718884
667,1715728773660,1.790575,2.454101,-6.718884,1.790575,2.454101,-6.718884
668,1715728773670,1.790575,2.454101,-6.718884,1.790575,2.454101,-6.718884
669,1715728773680,1.790575,2.454101,-6.718884,1.790575,2.454101,-6.718884
670,1715728773690,1.790575,2.454101,-6.718884,1.790575,2.454101,-6.718884
671,1715728773700,1.790575,2.454101,-6.718884,1.790575,2.454101,-6.718884
672,1715728773710,1.9705602000000002,2.4047438666666667,-6.860519666666666,1.9705602000000002,2.4047438666666667,-6.860519666666666
673,1715728773720,2.9051736000000004,2.1121515,-7.69067095,2.9051736000000004,2.1121515,-7.69067095
674,1715728773730,4.5382893499999994,1.1457576500000002,-8.2055925,4.5382893499999994,1.1457576500000002,-8.2055925
675,1715728773740,3.572661225,-0.8929905475,-4.574441825,3.572661225,-0.8929905475,-4.574441825
676,1715728773750,-3.3586429999999994,2.8342671,3.65958,-3.3586429999999994,2.8342671,3.65958
677,1715728773760,-3.4664122,2.677540216666667,4.752096600000001,-3.4664122,2.677540216666667,4.752096600000001
678,1715728773770,-3.5706306,2.400838,6.3433785,-3.5706306,2.400838,6.3433785
679,1715728773780,-3.4694304,2.1334567,7.006904600000001,-3.4694304,2.1334567,7.006904600000001
680,1715728773790,-2.8483596166666665,0.9674813433333335,8.690132,-2.8483596166666665,0.9674813433333335,8.690132
681,1715728773800,-2.3948457,0.23355906,9.230642,-2.3948457,0.23355906,9.230642
682,1715728773810,-2.2393173,0.0008655300000000032,9.349885500000001,-2.2393173,0.0008655300000000032,9.349885500000001
683,1715728773820,-1.1828421,-1.3777853,9.91321,-1.1828421,-1.3777853,9.91321
684,1715728773830,-0.892477864,-1.77187962,9.8785098,-0.892477864,-1.77187962,9.8785098
685,1715728773840,-0.46924862,-2.41189,9.678986,-0.46924862,-2.41189,9.678986
686,1715728773850,-0.38722333000000003,-2.6355953,9.568198,-0.38722333000000003,-2.6355953,9.568198
687,1715728773860,-0.42685115199999996,-2.54036072,9.7209568,-0.42685115199999996,-2.54036072,9.7209568
688,1715728773870,-0.75367403,-2.0136147,10.254095,-0.75367403,-2.0136147,10.254095
689,1715728773880,-0.894222265,-1.8496306000000002,10.3259335,-0.894222265,-1.8496306000000002,10.3259335
690,1715728773890,-2.2435784,-0.5013397,10.202962,-2.2435784,-0.5013397,10.202962
691,1715728773900,-3.07682752,0.20418440399999999,9.6167476,-3.07682752,0.20418440399999999,9.6167476
692,1715728773910,-3.35329008,0.44317630399999997,9.398208799999999,-3.35329008,0.44317630399999997,9.398208799999999
693,1715728773920,-4.09620488,1.2133619599999999,8.2113984,-4.09620488,1.2133619599999999,8.2113984
694,1715728773930,-4.2137833,1.3432975,7.986681,-4.2137833,1.3432975,7.986681
695,1715728773940,-4.2425456,1.9397119,5.953625,-4.2425456,1.9397119,5.953625
696,1715728773950,-4.174369,2.008954,5.198487,-4.174369,2.008954,5.198487
697,1715728773960,-4.174369,2.008954,5.198487,-4.174369,2.008954,5.198487
698,1715728773970,-3.5418684,0.8012114,3.930024,-3.5418684,0.8012114,3.930024
699,1715728773980,-2.3920052333333337,-0.07598881333333334,3.330857566666667,-2.3920052333333337,-0.07598881333333334,3.330857566666667
700,1715728773990,-1.1146653,-0.8016109,2.6989787,-1.1146653,-0.8016109,2.6989787
701,1715728774000,-0.5938512,-0.855939325,2.236487675,-0.5938512,-0.855939325,2.236487675
702,1715728774010,-0.32973238125000004,-0.761164145,1.8187378499999998,-0.32973238125000004,-0.761164145,1.8187378499999998
703,1715728774020,-0.27656907,0.38908756,-0.07962846,-0.27656907,0.38908756,-0.07962846
704,1715728774030,-0.7046719,1.0599374,-0.8092009000000001,-0.7046719,1.0599374,-0.8092009000000001
705,1715728774040,-1.7387766,2.2016337,-1.7921729,-1.7387766,2.2016337,-1.7921729
706,1715728774050,-2.2286646,2.542518,-2.0988357,-2.2286646,2.542518,-2.0988357
707,1715728774060,-2.2286646,2.542518,-2.0988357,-2.2286646,2.542518,-2.0988357
708,1715728774070,-2.17859735,2.123170275,-2.349705275,-2.17859735,2.123170275,-2.349705275
709,1715728774080,-1.9853185500000001,1.84916445,-2.44504645,-1.9853185500000001,1.84916445,-2.44504645
710,1715728774090,-0.6588656,0.8097335,-3.0222862,-0.6588656,0.8097335,-3.0222862
711,1715728774100,0.30812752,0.4050665,-3.4322793,0.30812752,0.4050665,-3.4322793
712,1715728774110,0.692181688,0.336037412,-3.6277819199999994,0.692181688,0.336037412,-3.6277819199999994
713,1715728774120,1.6415713,0.45606598,-4.389685,1.6415713,0.45606598,-4.389685
714,1715728774130,1.703889175,0.508796545,-4.48795555,1.703889175,0.508796545,-4.48795555
715,1715728774140,1.9290593,1.0460889,-5.299154,1.9290593,1.0460889,-5.299154
716,1715728774150,1.8619477,1.2463585,-5.64643,1.8619477,1.2463585,-5.64643
717,1715728774160,1.8619477,1.2463585,-5.64643,1.8619477,1.2463585,-5.64643
718,1715728774170,1.6181355,1.4881734,-6.414219,1.6181355,1.4881734,-6.414219
719,1715728774180,1.5861776,1.5178676,-6.496244,1.5861776,1.5178676,-6.496244
720,1715728774190,1.4992520599999999,1.64378168,-6.78314618,1.4992520599999999,1.64378168,-6.78314618
721,1715728774200,1.4764555,1.9386467,-7.3110375,1.4764555,1.9386467,-7.3110375
722,1715728774210,1.52652285,1.98285515,-7.37914775,1.52652285,1.98285515,-7.37914775
723,1715728774220,1.8225329,2.094042,-7.551654,1.8225329,2.094042,-7.551654
724,1715728774230,1.9769962,2.106825,-7.5825467,1.9769962,2.106825,-7.5825467
725,1715728774240,2.4764717,2.049301,-7.6304836,2.4764717,2.049301,-7.6304836
726,1715728774250,2.5442224799999997,2.03036592,-7.63304022,2.5442224799999997,2.03036592,-7.63304022
727,1715728774260,2.88252364,1.92351992,-7.63580982,2.88252364,1.92351992,-7.63580982
728,1715728774270,3.440269,1.6201328,-7.495195,3.440269,1.6201328,-7.495195
729,1715728774280,3.52975105,1.555418075,-7.4304805,3.52975105,1.555418075,-7.4304805
730,1715728774290,3.7907407,1.2729901,-7.062831,3.7907407,1.2729901,-7.062831
731,1715728774300,3.824829,1.1100047,-6.807301,3.824829,1.1100047,-6.807301
732,1715728774310,3.824829,1.1100047,-6.807301,3.824829,1.1100047,-6.807301
733,1715728774320,3.50525,0.45819652,-5.5921016,3.50525,0.45819652,-5.5921016
734,1715728774330,3.26886135,0.2588257785,-5.17405215,3.26886135,0.2588257785,-5.17405215
735,1715728774340,2.857703,-0.041278966,-4.554801,2.857703,-0.041278966,-4.554801
736,1715728774350,2.3379874,-0.32450593,-4.1384163,2.3379874,-0.32450593,-4.1384163
737,1715728774360,2.20935682,-0.375851636,-4.09687096,2.20935682,-0.375851636,-4.09687096
738,1715728774370,0.8448872,-0.6025397,-3.7996624,0.8448872,-0.6025397,-3.7996624
739,1715728774380,0.7573025624999999,-0.590821825,-3.7722318,0.7573025624999999,-0.590821825,-3.7722318
740,1715728774390,-0.47137916,-0.30426592,-2.8305387,-0.47137916,-0.30426592,-2.8305387
741,1715728774400,-0.8239813999999999,-0.15939008,-2.0988357,-0.8239813999999999,-0.15939008,-2.0988357
742,1715728774410,-0.8239813999999999,-0.15939008,-2.0988357,-0.8239813999999999,-0.15939008,-2.0988357
743,1715728774420,-1.1146653,-0.1998701,1.8820546,-1.1146653,-0.1998701,1.8820546
744,1715728774430,-1.0704568,-0.28349329,2.4869912000000003,-1.0704568,-0.28349329,2.4869912000000003
745,1715728774440,-0.4500739,-0.7621961,6.92701,-0.4500739,-0.7621961,6.92701
746,1715728774450,-0.092278466,-0.76752245,9.216794,-0.092278466,-0.76752245,9.216794
747,1715728774460,0.0230030345,-0.6067342099999999,10.2838885,0.0230030345,-0.6067342099999999,10.2838885
748,1715728774470,0.19734009,-0.28935224,12.06451,0.19734009,-0.28935224,12.06451
749,1715728774480,0.188391874,-0.22287978639999997,12.3294944,0.188391874,-0.22287978639999997,12.3294944
750,1715728774490,-0.103996366,-0.0519316,12.788756,-0.103996366,-0.0519316,12.788756
751,1715728774500,-0.5853624,-0.47257757,12.041075,-0.5853624,-0.47257757,12.041075
752,1715728774510,-0.5853624,-0.47257757,12.041075,-0.5853624,-0.47257757,12.041075
753,1715728774520,-1.4809828,-1.5024213,10.132654,-1.4809828,-1.5024213,10.132654
754,1715728774530,-1.5736607500000002,-1.55302125,9.7497585,-1.5736607500000002,-1.55302125,9.7497585
755,1715728774540,-1.8900440000000003,-1.1595395,8.551138,-1.8900440000000003,-1.1595395,8.551138
756,1715728774550,-2.0550268,-0.40333545,8.381761,-2.0550268,-0.40333545,8.381761
757,1715728774560,-2.104029,0.57750607,8.781101,-2.104029,0.57750607,8.781101
758,1715728774570,-2.0827236,1.5338465,9.488303,-2.0827236,1.5338465,9.488303
759,1715728774580,-2.1311930500000003,1.960184975,9.87462775,-2.1311930500000003,1.960184975,9.87462775
760,1715728774590,-2.306429,2.416817,10.31588,-2.306429,2.416817,10.31588
761,1715728774600,-2.3927152,2.3582275,10.239181,-2.3927152,2.3582275,10.239181
762,1715728774610,-2.3927152,2.3582275,10.239181,-2.3927152,2.3582275,10.239181
763,1715728774620,-3.6674364000000006,0.6712493,7.538338,-3.6674364000000006,0.6712493,7.538338
764,1715728774630,-3.4452401333333333,0.22610223333333337,6.634861333333333,-3.4452401333333333,0.22610223333333337,6.634861333333333
765,1715728774640,-3.0008476,-0.6641919,4.827908,-3.0008476,-0.6641919,4.827908
766,1715728774650,-2.0422435,-1.06047,3.7884769999999994,-2.0422435,-1.06047,3.7884769999999994
767,1715728774660,-2.0422435,-1.06047,3.7884769999999994,-2.0422435,-1.06047,3.7884769999999994
768,1715728774670,0.18172731474999998,-0.8887294975,2.2875539,0.18172731474999998,-0.8887294975,2.2875539
769,1715728774680,0.5861347092,-0.578624584,1.87057634,0.5861347092,-0.578624584,1.87057634
770,1715728774690,0.8203862,0.346477,0.84581935,0.8203862,0.346477,0.84581935
771,1715728774700,0.601075,0.59028924,0.649944,0.601075,0.59028924,0.649944
772,1715728774710,0.441951244,0.731303512,0.5481314239999999,0.441951244,0.731303512,0.5481314239999999
773,1715728774720,-1.03264,2.0100193,-0.46192494,-1.03264,2.0100193,-0.46192494
774,1715728774730,-1.18348126,2.1422452,-0.622992792,-1.18348126,2.1422452,-0.622992792
775,1715728774740,-1.5693997,2.477537,-1.4109417,-1.5693997,2.477537,-1.4109417
776,1715728774750,-1.4672409,2.33351324,-1.8956366599999999,-1.4672409,2.33351324,-1.8956366599999999
777,1715728774760,-1.4417012,2.2975073,-2.0168104,-1.4417012,2.2975073,-2.0168104
778,1715728774770,-1.2158653,2.0142803,-2.3640864,-1.2158653,2.0142803,-2.3640864
779,1715728774780,-0.9347244666666666,1.6926151,-2.6697282666666666,-0.9347244666666666,1.6926151,-2.6697282666666666
780,1715728774790,0.3507380500000001,0.4571312699999999,-4.0116496,0.3507380500000001,0.4571312699999999,-4.0116496
781,1715728774800,0.617054,0.38589177,-4.529235,0.617054,0.38589177,-4.529235
782,1715728774810,0.63809295,0.4002395375,-4.62960275,0.63809295,0.4002395375,-4.62960275
783,1715728774820,0.7458177,0.553005,-5.4546824,0.7458177,0.553005,-5.4546824
784,1715728774830,0.767389275,0.604936575,-5.7118436,0.767389275,0.604936575,-5.7118436
785,1715728774840,0.90454197,0.7287735,-6.3013005,0.90454197,0.7287735,-6.3013005
786,1715728774850,1.091176154,0.842117532,-6.705248900000001,1.091176154,0.842117532,-6.705248900000001
787,1715728774860,1.1970101,0.920254624,-6.92719652,1.1970101,0.920254624,-6.92719652
788,1715728774870,1.4413017,1.1728553,-7.495195,1.4413017,1.1728553,-7.495195
789,1715728774880,1.5016666333333333,1.2310897,-7.689783266666667,1.5016666333333333,1.2310897,-7.689783266666667
790,1715728774890,1.6937692,1.2942953,-8.281226,1.6937692,1.2942953,-8.281226
791,1715728774900,1.7715335,1.2389016,-8.538887,1.7715335,1.2389016,-8.538887
792,1715728774910,2.06882188,1.0931735200000001,-8.9984154,2.06882188,1.0931735200000001,-8.9984154
793,1715728774920,2.210289,1.0514152,-9.242893,2.210289,1.0514152,-9.242893
794,1715728774930,2.2932996,1.0578068200000001,-9.347715400000002,2.2932996,1.0578068200000001,-9.347715400000002
795,1715728774940,2.6043034,1.0886995,-9.518796,2.6043034,1.0886995,-9.518796
796,1715728774950,2.6607623,1.1014826,-9.520926,2.6607623,1.1014826,-9.520926
797,1715728774960,3.0451894,1.2048131,-9.305744,3.0451894,1.2048131,-9.305744
798,1715728774970,3.2060442,1.1845732,-8.892554,3.2060442,1.1845732,-8.892554
799,1715728774980,3.22074468,1.17179002,-8.7615266,3.22074468,1.17179002,-8.7615266
800,1715728774990,3.2166967,1.1185268,-8.142742,3.2166967,1.1185268,-8.142742
801,1715728775000,3.1687598,1.095091,-7.810513,3.1687598,1.095091,-7.810513
802,1715728775010,2.7225475,0.8715188000000001,-6.387587,2.7225475,0.8715188000000001,-6.387587
803,1715728775020,2.4146864,0.64568293,-5.795433499999999,2.4146864,0.64568293,-5.795433499999999
804,1715728775030,2.21821185,0.488623115,-5.5345106,2.21821185,0.488623115,-5.5345106
805,1715728775040,1.0792452,-0.24248064,-4.445079,1.0792452,-0.24248064,-4.445079
806,1715728775050,0.661195815,-0.471212725,-4.00602375,0.661195815,-0.471212725,-4.00602375
807,1715728775060,-0.11038794,-0.8889625,-3.062766,-0.11038794,-0.8889625,-3.062766
808,1715728775070,-0.11038794,-0.8889625000000001,-3.062766,-0.11038794,-0.8889625000000001,-3.062766
809,1715728775080,-0.1779988925,-0.833302475,-1.9796592249999998,-0.1779988925,-0.833302475,-1.9796592249999998
810,1715728775090,-0.38083175,-0.6663224,1.2696611,-0.38083175,-0.6663224,1.2696611
811,1715728775100,-0.201973982,-0.561607016,2.15404302,-0.201973982,-0.561607016,2.15404302
812,1715728775110,-0.15725954,-0.53542817,2.3751385,-0.15725954,-0.53542817,2.3751385
813,1715728775120,0.43116548,-0.13951626749999999,4.843587375,0.43116548,-0.13951626749999999,4.843587375
814,1715728775130,0.9883982250000001,0.2652173475,7.265963625,0.9883982250000001,0.2652173475,7.265963625
815,1715728775140,1.5084133,1.531716,11.559709,1.5084133,1.531716,11.559709
816,1715728775150,1.438904875,1.6787223,11.981452749999999,1.438904875,1.6787223,11.981452749999999
817,1715728775160,0.75007874,2.1185431,12.940023,0.75007874,2.1185431,12.940023
818,1715728775170,0.596814,2.1526315,12.954936999999997,0.596814,2.1526315,12.954936999999997
819,1715728775180,0.21234256666666662,2.0287501999999997,12.677302666666668,0.21234256666666662,2.0287501999999997,12.677302666666668
820,1715728775190,-1.6524903,0.7149250500000001,10.464884,-1.6524903,0.7149250500000001,10.464884
821,1715728775200,-1.91684205,0.3906521475,9.88904225,-1.91684205,0.3906521475,9.88904225
822,1715728775210,-2.6642244,-0.5886913,7.748062,-2.6642244,-0.5886913,7.748062
823,1715728775220,-2.776077,-0.67590976,7.099582700000001,-2.776077,-0.67590976,7.099582700000001
824,1715728775230,-2.76542435,-0.59022263,7.1150291,-2.76542435,-0.59022263,7.1150291
825,1715728775240,-2.9092350000000002,0.13235901,7.864176,-2.9092350000000002,0.13235901,7.864176
826,1715728775250,-2.985934,0.29214856,8.028226,-2.985934,0.29214856,8.028226
827,1715728775260,-2.985934,0.29214856,8.028226,-2.985934,0.29214856,8.028226
828,1715728775270,-2.738793,-0.5418197,7.6576476,-2.738793,-0.5418197,7.6576476
829,1715728775280,-2.47467415,-0.8581364,7.193259299999999,-2.47467415,-0.8581364,7.193259299999999
830,1715728775290,-1.5076144,-1.6132087,4.7501435,-1.5076144,-1.6132087,4.7501435
831,1715728775300,-1.5076144000000002,-1.6132087000000002,4.7501435,-1.5076144000000002,-1.6132087000000002,4.7501435
832,1715728775310,-1.4884662800000001,-1.60127772,4.663457800000001,-1.4884662800000001,-1.60127772,4.663457800000001
833,1715728775320,-1.2736938857142857,-0.27263140142857145,1.6148254857142859,-1.2736938857142857,-0.27263140142857145,1.6148254857142859
834,1715728775330,-1.3394358,0.18562219,1.0077394,-1.3394358,0.18562219,1.0077394
835,1715728775340,-1.39008914,1.09828678,-0.7948464639999999,-1.39008914,1.09828678,-0.7948464639999999
836,1715728775350,-1.2904337,1.03703415,-1.13131,-1.2904337,1.03703415,-1.13131
837,1715728775360,-1.1178610079999998,0.79942712,-1.4503032,-1.1178610079999998,0.79942712,-1.4503032
838,1715728775370,-0.7685877,0.27084327,-2.0423768,-0.7685877,0.27084327,-2.0423768
839,1715728775380,-0.7685877,0.27084327,-2.0423768,-0.7685877,0.27084327,-2.0423768
840,1715728775390,-0.6011283,0.19861841,-2.7427876400000004,-0.6011283,0.19861841,-2.7427876400000004
841,1715728775400,-0.4700476,0.5757084225,-3.49962395,-0.4700476,0.5757084225,-3.49962395
842,1715728775410,-0.37550545,0.8821714499999999,-4.022302,-0.37550545,0.8821714499999999,-4.022302
843,1715728775420,-0.20519641000000002,1.2996217,-4.595281,-0.20519641000000002,1.2996217,-4.595281
844,1715728775430,-0.20519641,1.2996217,-4.595281,-0.20519641,1.2996217,-4.595281
845,1715728775440,0.33902016,1.8161414,-5.485575,0.33902016,1.8161414,-5.485575
846,1715728775450,0.47026067200000005,1.8570474799999999,-5.60999796,0.47026067200000005,1.8570474799999999,-5.60999796
847,1715728775460,1.0472873,1.9418424,-5.9722676,1.0472873,1.9418424,-5.9722676
848,1715728775470,1.12142966,1.95675612,-6.01061696,1.12142966,1.95675612,-6.01061696
849,1715728775480,1.334875225,1.99480605,-6.139746675,1.334875225,1.99480605,-6.139746675
850,1715728775490,1.9503645999999997,2.1121514,-6.759364000000001,1.9503645999999997,2.1121514,-6.759364000000001
851,1715728775500,2.1154805000000003,2.1339894,-7.02714475,2.1154805000000003,2.1339894,-7.02714475
852,1715728775510,2.304032,2.106825,-7.345126,2.304032,2.106825,-7.345126
853,1715728775520,2.3997726,2.061019,-7.465368,2.3997726,2.061019,-7.465368
854,1715728775530,2.3997726,2.061019,-7.465368,2.3997726,2.061019,-7.465368
855,1715728775540,2.96148616,1.7270853,-7.84715798,2.96148616,1.7270853,-7.84715798
856,1715728775550,3.146389375,1.6092138999999999,-7.881353075,3.146389375,1.6092138999999999,-7.881353075
857,1715728775560,3.6320164,1.2836426,-7.644332,3.6320164,1.2836426,-7.644332
858,1715728775570,3.8802228,1.0759163,-7.313168,3.8802228,1.0759163,-7.313168
859,1715728775580,3.9515288999999996,0.98010913,-7.1480522,3.9515288999999996,0.98010913,-7.1480522
860,1715728775590,4.1261654,0.36139068,-6.3162146,4.1261654,0.36139068,-6.3162146
861,1715728775600,4.11423468,0.14833796000000002,-6.08792852,4.11423468,0.14833796000000002,-6.08792852
862,1715728775610,3.8648829200000003,-0.728533814,-5.1017874,3.8648829200000003,-0.728533814,-5.1017874
863,1715728775620,3.7609134,-0.89215827,-4.865725,3.7609134,-0.89215827,-4.865725
864,1715728775630,3.6373761,-0.9704218525,-4.6939845,3.6373761,-0.9704218525,-4.6939845
865,1715728775640,2.6686186800000002,-1.16696972,-3.7314587599999998,2.6686186800000002,-1.16696972,-3.7314587599999998
866,1715728775650,2.327934,-1.1100047499999999,-3.5403371999999997,2.327934,-1.1100047499999999,-3.5403371999999997
867,1715728775660,0.71705556,-0.5822997,-3.2916645999999994,0.71705556,-0.5822997,-3.2916645999999994
868,1715728775670,0.71705556,-0.5822997,-3.2916645999999994,0.71705556,-0.5822997,-3.2916645999999994
869,1715728775680,0.32834086800000006,-0.439154906,-3.25970668,0.32834086800000006,-0.439154906,-3.25970668
870,1715728775690,-2.123536425,0.27244118,-2.692553725,-2.123536425,0.27244118,-2.692553725
871,1715728775700,-2.66931765,0.2852243325,-2.2514014,-2.66931765,0.2852243325,-2.2514014
872,1715728775710,-3.079544,-0.07643267,-0.64301974,-3.079544,-0.07643267,-0.64301974
873,1715728775720,-2.9806077,-0.2904175,0.19188061,-2.9806077,-0.2904175,0.19188061
874,1715728775730,-2.7151573,-0.446179025,0.9824061325,-2.7151573,-0.446179025,0.9824061325
875,1715728775740,-0.8751141,-1.0167942,5.7682695,-0.8751141,-1.0167942,5.7682695
876,1715728775750,-0.49411588500000003,-0.9400951875,6.678870225,-0.49411588500000003,-0.9400951875,6.678870225
877,1715728775760,0.7383609,-0.23608905,10.351033,0.7383609,-0.23608905,10.351033
878,1715728775770,0.8502135000000001,-0.114782155,10.840921,0.8502135000000001,-0.114782155,10.840921
879,1715728775780,0.8502135,-0.114782155,10.840921,0.8502135,-0.114782155,10.840921
880,1715728775790,0.8630299749999999,0.49524774875,12.82657275,0.8630299749999999,0.49524774875,12.82657275
881,1715728775800,0.4132890025,0.870087375,13.662305625,0.4132890025,0.870087375,13.662305625
882,1715728775810,-1.3937643,0.57217973,12.597009,-1.3937643,0.57217973,12.597009
883,1715728775820,-2.3419555,0.0950481476,11.422981799999999,-2.3419555,0.0950481476,11.422981799999999
884,1715728775830,-2.832769075,-0.1331246685,10.7311665,-2.832769075,-0.1331246685,10.7311665
885,1715728775840,-4.449207,-0.7419561,8.035683,-4.449207,-0.7419561,8.035683
886,1715728775850,-4.819785,-0.74515194,7.3348727,-4.819785,-0.74515194,7.3348727
887,1715728775860,-5.3141478,0.1310540544,5.998579439999999,-5.3141478,0.1310540544,5.998579439999999
888,1715728775870,-5.263867,0.5050681,6.03352,-5.263867,0.5050681,6.03352
889,1715728775880,-5.196422500000001,0.48591555000000003,6.060306916666668,-5.196422500000001,0.48591555000000003,6.060306916666668
890,1715728775890,-4.1244345,-0.18176061,6.207025,-4.1244345,-0.18176061,6.207025
891,1715728775900,-3.828823725,-0.48935547749999997,6.099266725,-3.828823725,-0.48935547749999997,6.099266725
892,1715728775910,-2.9976518,-1.4310485,5.0972867,-2.9976518,-1.4310485,5.0972867
893,1715728775920,-2.93203156,-1.57848106,4.67725302,-2.93203156,-1.57848106,4.67725302
894,1715728775930,-2.9873099,-1.5272773666666666,4.026962800000001,-2.9873099,-1.5272773666666666,4.026962800000001
895,1715728775940,-3.0605025,-0.59721345,1.9108167,-3.0605025,-0.59721345,1.9108167
896,1715728775950,-2.8661984400000002,-0.26493107579999997,1.54529808,-2.8661984400000002,-0.26493107579999997,1.54529808
897,1715728775960,-1.8602166,0.5711145,0.59241974,-1.8602166,0.5711145,0.59241974
898,1715728775970,-1.4831133,0.65633553,0.3910849,-1.4831133,0.65633553,0.3910849
899,1715728775980,-1.1234203745,0.547179305,0.25183497,-1.1234203745,0.547179305,0.25183497
900,1715728775990,-0.044341598,0.21971063,-0.16591482,-0.044341598,0.21971063,-0.16591482
901,1715728776000,0.10394310439999999,0.0603471852,-0.217899676,0.10394310439999999,0.0603471852,-0.217899676
902,1715728776010,0.07709846,-0.18921745,-0.36724964,0.07709846,-0.18921745,-0.36724964
903,1715728776020,-0.13915007,-0.18069534,-0.52371025,-0.13915007,-0.18069534,-0.52371025
904,1715728776030,-0.13915007,-0.18069534,-0.52371025,-0.13915007,-0.18069534,-0.52371025
905,1715728776040,-0.7421691640000001,0.046285706,-0.87258408,-0.7421691640000001,0.046285706,-0.87258408
906,1715728776050,-0.854041825,0.1962415425,-1.08493773,-0.854041825,0.1962415425,-1.08493773
907,1715728776060,-1.0049431,0.5444829,-1.5705981,-1.0049431,0.5444829,-1.5705981
908,1715728776070,-0.901426094,0.75623068,-1.76700604,-0.901426094,0.75623068,-1.76700604
909,1715728776080,-0.54701287,1.300687,-2.241581,-0.54701287,1.300687,-2.241581
910,1715728776090,-0.092278466,1.7458339999999999,-2.686728,-0.092278466,1.7458339999999999,-2.686728
911,1715728776100,0.3797664935,2.0038608250000003,-3.113299575,0.3797664935,2.0038608250000003,-3.113299575
912,1715728776110,0.9950894,2.2666147,-3.7027233,0.9950894,2.2666147,-3.7027233
913,1715728776120,1.1271821,2.3049643,-3.8529255,1.1271821,2.3049643,-3.8529255
914,1715728776130,1.1271821,2.3049643,-3.8529255,1.1271821,2.3049643,-3.8529255
915,1715728776140,2.20496256,2.7371150999999996,-5.2572090000000005,2.20496256,2.7371150999999996,-5.2572090000000005
916,1715728776150,2.2742047,2.7778082,-5.3588085,2.2742047,2.7778082,-5.3588085
917,1715728776160,2.785398,3.076082,-6.3162146,2.785398,3.076082,-6.3162146
918,1715728776170,2.931206,3.0292103,-6.685861,2.931206,3.0292103,-6.685861
919,1715728776180,2.958636525,2.987398725,-6.758532,2.958636525,2.987398725,-6.758532
920,1715728776190,3.1581073,2.6414545,-7.2631006,3.1581073,2.6414545,-7.2631006
921,1715728776200,3.1832475000000002,2.60102766,-7.31332776,3.1832475000000002,2.60102766,-7.31332776
922,1715728776210,3.39927855,2.321120816666667,-7.643444249999999,3.39927855,2.321120816666667,-7.643444249999999
923,1715728776220,3.56703542,2.1306871000000003,-7.812004679999999,3.56703542,2.1306871000000003,-7.812004679999999
924,1715728776230,3.63862112,2.05081892,-7.8569322,3.63862112,2.05081892,-7.8569322
925,1715728776240,3.9919424,1.6520908,-7.9296894,3.9919424,1.6520908,-7.9296894
926,1715728776250,4.06544555,1.54959245,-7.88737845,4.06544555,1.54959245,-7.88737845
927,1715728776260,4.285955,1.2420974,-7.7604456,4.285955,1.2420974,-7.7604456
928,1715728776270,4.3010465,1.1764061499999998,-7.681438433333334,4.3010465,1.1764061499999998,-7.681438433333334
929,1715728776280,4.1575909,1.0530797,-7.5005877000000005,4.1575909,1.0530797,-7.5005877000000005
930,1715728776290,3.2997873,0.9555415000000002,-7.191728,3.2997873,0.9555415000000002,-7.191728
931,1715728776300,2.936976233333333,1.0414727666666668,-7.164741333333333,2.936976233333333,1.0414727666666668,-7.164741333333333
932,1715728776310,0.9897630999999999,1.8662088,-7.0085025,0.9897630999999999,1.8662088,-7.0085025
933,1715728776320,-0.58699355,2.826777025,-6.721214574999999,-0.58699355,2.826777025,-6.721214574999999
934,1715728776330,-1.8634124,3.6000585999999997,-6.2460403,-1.8634124,3.6000585999999997,-6.2460403
935,1715728776340,-2.808035,3.6446663999999998,-5.17039,-2.808035,3.6446663999999998,-5.17039
936,1715728776350,-3.0183579,3.26609835,-4.5601272,-3.0183579,3.26609835,-4.5601272
937,1715728776360,-3.2414641000000004,0.39441386,-1.14143,-3.2414641000000004,0.39441386,-1.14143
938,1715728776370,-2.9880645,-0.8101330000000001,0.15579481,-2.9880645,-0.8101330000000001,0.15579481
939,1715728776380,-1.756886,-3.439603,3.8950033000000004,-1.756886,-3.439603,3.8950033000000004
940,1715728776390,-1.0954905,-3.8868806,5.9909096,-1.0954905,-3.8868806,5.9909096
941,1715728776400,-1.01616165,-3.854423375,6.3061278000000005,-1.01616165,-3.854423375,6.3061278000000005
942,1715728776410,-0.5012065,-3.2096393000000005,8.914259,-0.5012065,-3.2096393000000005,8.914259
943,1715728776420,-0.474787996,-3.1252704200000005,9.123903,-0.474787996,-3.1252704200000005,9.123903
944,1715728776430,-0.3829623,-2.7538397,10.307358,-0.3829623,-2.7538397,10.307358
945,1715728776440,-0.45113915,-2.9081697,10.595911,-0.45113915,-2.9081697,10.595911
946,1715728776450,-0.5166528499999999,-2.9848687500000004,10.6949805,-0.5166528499999999,-2.9848687500000004,10.6949805
947,1715728776460,-0.8229161499999998,-3.1808772,11.080473,-0.8229161499999998,-3.1808772,11.080473
948,1715728776470,-0.84848251,-3.1774683999999995,11.117117799999999,-0.84848251,-3.1774683999999995,11.117117799999999
949,1715728776480,-0.8815056699999999,-2.977412,11.358507,-0.8815056699999999,-2.977412,11.358507
950,1715728776490,-0.813328805,-2.9161593000000003,11.2924605,-0.813328805,-2.9161593000000003,11.2924605
951,1715728776500,-0.710211284,-2.81234936,11.1220184,-0.710211284,-2.81234936,11.1220184
952,1715728776510,-0.6695182,-2.6643574,10.141177,-0.6695182,-2.6643574,10.141177
953,1715728776520,-0.6735129249999999,-2.6515744,9.978990249999999,-0.6735129249999999,-2.6515744,9.978990249999999
954,1715728776530,-0.6045371,-2.4827301,8.964892,-0.6045371,-2.4827301,8.964892
955,1715728776540,-0.40639809999999993,-2.043442,8.02503,-0.40639809999999993,-2.043442,8.02503
956,1715728776550,-0.4063981,-2.043442,8.02503,-0.4063981,-2.043442,8.02503
957,1715728776560,0.083916144,-0.93602054,7.61290652,0.083916144,-0.93602054,7.61290652
958,1715728776570,0.2143843,-0.5205144,7.737409000000001,0.2143843,-0.5205144,7.737409000000001
959,1715728776580,-0.16791219,0.49867654,8.725841,-0.16791219,0.49867654,8.725841
960,1715728776590,-0.5384908,0.93117356,9.170988,-0.5384908,0.93117356,9.170988
961,1715728776600,-0.8886296250000001,1.2197601200000001,9.418329,-0.8886296250000001,1.2197601200000001,9.418329
962,1715728776610,-3.38634,2.0908463,10.037847,-3.38634,2.0908463,10.037847
963,1715728776620,-3.8123124000000006,1.6755264999999997,9.529848,-3.8123124000000006,1.6755264999999997,9.529848
964,1715728776630,-4.291548,0.03328949,6.9941216,-4.291548,0.03328949,6.9941216
965,1715728776640,-4.0115166,-0.35859440000000004,4.9994154,-4.0115166,-0.35859440000000004,4.9994154
966,1715728776650,-4.0115166,-0.3585944,4.9994154,-4.0115166,-0.3585944,4.9994154
967,1715728776660,-2.861298,0.07590003,1.2675306,-2.861298,0.07590003,1.2675306
968,1715728776670,-2.7390591,0.10945583625,1.0830735,-2.7390591,0.10945583625,1.0830735
969,1715728776680,-1.6578164999999998,0.16751271,0.318647,-1.6578164999999998,0.16751271,0.318647
970,1715728776690,-1.1199915,0.18988325,0.3687144,-1.1199915,0.18988325,0.3687144
971,1715728776700,-1.0567858666666667,0.24314643333333333,0.38504843333333333,-1.0567858666666667,0.24314643333333333,0.38504843333333333
972,1715728776710,-0.9357009499999999,0.8981504,0.04820317999999999,-0.9357009499999999,0.8981504,0.04820317999999999
973,1715728776720,-0.963823902,1.1673425600000003,-0.21598221199999998,-0.963823902,1.1673425600000003,-0.21598221199999998
974,1715728776730,-0.91333044,2.384859,-1.7847161,-0.91333044,2.384859,-1.7847161
975,1715728776740,-0.63862556,2.938663,-2.8433218,-0.63862556,2.938663,-2.8433218
976,1715728776750,-0.4757068,3.0174924,-3.1612364,-0.4757068,3.0174924,-3.1612364
977,1715728776760,0.42104545,2.9695556,-4.248005,0.42104545,2.9695556,-4.248005
978,1715728776770,0.686828738,2.8741079199999997,-4.4312306,0.686828738,2.8741079199999997,-4.4312306
979,1715728776780,1.680986,2.373141,-5.068125,1.680986,2.373141,-5.068125
980,1715728776790,2.1698089,2.163284,-5.468531,2.1698089,2.163284,-5.468531
981,1715728776800,2.1698089,2.163284,-5.468531,2.1698089,2.163284,-5.468531
982,1715728776810,2.7417223000000006,2.3752716,-6.2598886,2.7417223000000006,2.3752716,-6.2598886
983,1715728776820,2.8253121500000002,2.671381575,-6.662391749999999,2.8253121500000002,2.671381575,-6.662391749999999
984,1715728776830,2.8971176,3.0739515,-7.195989,2.8971176,3.0739515,-7.195989
985,1715728776840,2.987665,3.3124373000000005,-7.6901383,2.987665,3.3124373000000005,-7.6901383
986,1715728776850,3.061967125,3.3404003749999998,-7.951294075000001,3.061967125,3.3404003749999998,-7.951294075000001
987,1715728776860,3.3040482999999994,3.2133677,-8.468579,3.3040482999999994,3.2133677,-8.468579
988,1715728776870,3.35990815,3.1696919,-8.513853000000001,3.35990815,3.1696919,-8.513853000000001
989,1715728776880,3.7406732999999996,2.9130967,-8.634761,3.7406732999999996,2.9130967,-8.634761
990,1715728776890,3.9322875,2.7714164,-8.645413,3.9322875,2.7714164,-8.645413
991,1715728776900,4.015910725,2.6542707,-8.640885749999999,4.015910725,2.6542707,-8.640885749999999
992,1715728776910,4.2667804,2.3028336,-8.627304,4.2667804,2.3028336,-8.627304
993,1715728776920,4.27370455,2.275669375,-8.635826,4.27370455,2.275669375,-8.635826
994,1715728776930,4.3402834,1.8853835,-8.79455,4.3402834,1.8853835,-8.79455
995,1715728776940,4.321109,1.6872444,-8.811595,4.321109,1.6872444,-8.811595
996,1715728776950,4.3108824,1.65400818,-8.7905028,4.3108824,1.65400818,-8.7905028
997,1715728776960,4.184755,1.4178659,-8.436755,4.184755,1.4178659,-8.436755
998,1715728776970,4.1272306,1.3997564,-8.242877,4.1272306,1.3997564,-8.242877
999,1715728776980,3.8503954,1.422127,-7.398256,3.8503954,1.422127,-7.398256
1000,1715728776990,3.4807490000000003,1.4210618,-6.7146230000000005,3.4807490000000003,1.4210618,-6.7146230000000005
1001,1715728777000,3.3961936799999997,1.39357796,-6.617284499999999,3.3961936799999997,1.39357796,-6.617284499999999
1002,1715728777010,2.34151615,0.7971833525,-5.6064491499999995,2.34151615,0.7971833525,-5.6064491499999995
1003,1715728777020,1.8286582666666664,0.41922562333333335,-5.145134433333333,1.8286582666666664,0.41922562333333335,-5.145134433333333
1004,1715728777030,0.5478118,-0.6908235,-3.6079147,0.5478118,-0.6908235,-3.6079147
1005,1715728777040,0.163571224,-1.0564219000000001,-2.82494598,0.163571224,-1.0564219000000001,-2.82494598
1006,1715728777050,-0.054162005,-1.2644346,-2.23222665,-0.054162005,-1.2644346,-2.23222665
1007,1715728777060,-0.7568698,-1.8943050999999997,1.4113412,-0.7568698,-1.8943050999999997,1.4113412
1008,1715728777070,-0.787762465,-1.8847177,1.9763304000000002,-0.787762465,-1.8847177,1.9763304000000002
1009,1715728777080,-0.8111982300000001,-1.514139,6.029259,-0.8111982300000001,-1.514139,6.029259
1010,1715728777090,-0.7707182,-1.1297121,8.136883,-0.7707182,-1.1297121,8.136883
1011,1715728777100,-0.7775359,-1.06941818,8.407167,-0.7775359,-1.06941818,8.407167
1012,1715728777110,-0.8452600799999999,-0.7909849,9.815046,-0.8452600799999999,-0.7909849,9.815046
1013,1715728777120,-1.1334849,-0.8289970333333333,11.325439000000001,-1.1334849,-0.8289970333333333,11.325439000000001
1014,1715728777130,-1.3863075,-1.2030821,11.732281,-1.3863075,-1.2030821,11.732281
1015,1715728777140,-1.6311849000000003,-1.784583,11.304178,-1.6311849000000003,-1.784583,11.304178
1016,1715728777150,-1.6311849,-1.7845830000000003,11.304178,-1.6311849,-1.7845830000000003,11.304178
1017,1715728777160,-1.9230672,-2.3650184,10.675806,-1.9230672,-2.3650184,10.675806
1018,1715728777170,-2.1375845499999997,-2.7184197,9.543397,-2.1375845499999997,-2.7184197,9.543397
1019,1715728777180,-2.0433087,-2.4406521,8.451003,-2.0433087,-2.4406521,8.451003
1020,1715728777190,-1.9837872,-2.2000358,8.14434,-1.9837872,-2.2000358,8.14434
1021,1715728777200,-1.9409636,-2.0396337200000003,7.9969342,-1.9409636,-2.0396337200000003,7.9969342
1022,1715728777210,-1.4448969,-1.0274467,7.3391337000000005,-1.4448969,-1.0274467,7.3391337000000005
1023,1715728777220,-0.87344955875,-1.051648225,7.450187375,-0.87344955875,-1.051648225,7.450187375
1024,1715728777230,-0.019840535,-1.2904338,7.542599,-0.019840535,-1.2904338,7.542599
1025,1715728777240,0.5595297,-1.6249266,7.4595084,0.5595297,-1.6249266,7.4595084
1026,1715728777250,0.5595297,-1.6249266,7.4595084,0.5595297,-1.6249266,7.4595084
1027,1715728777260,1.2559458,-1.9646125,6.101564,1.2559458,-1.9646125,6.101564
1028,1715728777270,1.19312855,-1.92200195,5.89443675,1.19312855,-1.92200195,5.89443675
1029,1715728777280,0.15912376,-1.0849711,3.8055212,0.15912376,-1.0849711,3.8055212
1030,1715728777290,-0.24567643,-0.71212876,3.2836752,-0.24567643,-0.71212876,3.2836752
1031,1715728777300,-0.5428184225,-0.414221125,2.9428574249999997,-0.5428184225,-0.414221125,2.9428574249999997
1032,1715728777310,-2.1338563,1.0514152,1.2325101,-2.1338563,1.0514152,1.2325101
1033,1715728777320,-2.46428775,1.217862625,0.79368802,-2.46428775,1.217862625,0.79368802
1034,1715728777330,-3.0146961,1.4721943,-0.05725792,-3.0146961,1.4721943,-0.05725792
1035,1715728777340,-3.0232182,1.531716,-0.7825693,-3.0232182,1.531716,-0.7825693
1036,1715728777350,-2.9593024000000003,1.543433875,-0.9745164749999999,-2.9593024000000003,1.543433875,-0.9745164749999999
1037,1715728777360,-2.33093,1.592436,-2.253299,-2.33093,1.592436,-2.253299
1038,1715728777370,-2.049234325,1.56846755,-2.5509736000000003,-2.049234325,1.56846755,-2.5509736000000003
1039,1715728777380,-1.2041473,1.4965622000000003,-3.4439974,-1.2041473,1.4965622000000003,-3.4439974
1040,1715728777390,-0.8016109,1.5029539,-3.9061887,-0.8016109,1.5029539,-3.9061887
1041,1715728777400,-0.581367644,1.5161631400000002,-4.21037466,-0.581367644,1.5161631400000002,-4.21037466
1042,1715728777410,0.09307741399999998,1.5636739000000002,-5.169325,0.09307741399999998,1.5636739000000002,-5.169325
1043,1715728777420,0.1327251955,1.562608625,-5.227881175,0.1327251955,1.562608625,-5.227881175
1044,1715728777430,0.76818824,1.5242591,-6.094773,0.76818824,1.5242591,-6.094773
1045,1715728777440,1.1602052,1.5231938,-6.626206399999999,1.1602052,1.5231938,-6.626206399999999
1046,1715728777450,1.1602052,1.5231938,-6.6262064,1.1602052,1.5231938,-6.6262064
1047,1715728777460,2.0057583,1.794836,-7.741271,2.0057583,1.794836,-7.741271
1048,1715728777470,2.138383725,1.825994975,-7.891373,2.138383725,1.825994975,-7.891373
1049,1715728777480,2.558497,1.8832530000000003,-8.386687,2.558497,1.8832530000000003,-8.386687
1050,1715728777490,2.630935,1.8715350999999998,-8.53143,2.630935,1.8715350999999998,-8.53143
1051,1715728777500,2.6650234250000002,1.856887725,-8.56871425,2.6650234250000002,1.856887725,-8.56871425
1052,1715728777510,2.8971176,1.6616781000000003,-8.809464,2.8971176,1.6616781000000003,-8.809464
1053,1715728777520,2.9553520666666664,1.5612326333333335,-8.838226,2.9553520666666664,1.5612326333333335,-8.838226
1054,1715728777530,3.071821,1.3603417,-8.89575,3.071821,1.3603417,-8.89575
1055,1715728777540,3.1389325,1.2463585,-8.845683,3.1389325,1.2463585,-8.845683
1056,1715728777550,3.16066386,1.22526628,-8.7943372,3.16066386,1.22526628,-8.7943372
1057,1715728777560,3.2552591400000006,1.1144788399999999,-8.2072708,3.2552591400000006,1.1144788399999999,-8.2072708
1058,1715728777570,3.2353388,1.09881945,-7.9920741,3.2353388,1.09881945,-7.9920741
1059,1715728777580,2.9919262,1.0641984,-7.205576400000001,2.9919262,1.0641984,-7.205576400000001
1060,1715728777590,2.938663,1.0695246,-7.0692225,2.938663,1.0695246,-7.0692225
1061,1715728777600,2.7618824799999997,1.1134135200000002,-6.6760339,2.7618824799999997,1.1134135200000002,-6.6760339
1062,1715728777610,2.3970029800000003,1.2116308999999998,-5.86552828,2.3970029800000003,1.2116308999999998,-5.86552828
1063,1715728777620,2.170042,1.31240485,-5.296024675,2.170042,1.31240485,-5.296024675
1064,1715728777630,1.9911997333333333,1.5370866333333335,-4.6602179,1.9911997333333333,1.5370866333333335,-4.6602179
1065,1715728777640,1.9130803,1.9226677,-3.8689044,1.9130803,1.9226677,-3.8689044
1066,1715728777650,1.9130803,1.9226677,-3.8689044,1.9130803,1.9226677,-3.8689044
1067,1715728777660,1.7204008,2.2037642,-2.734665,1.7204008,2.2037642,-2.734665
1068,1715728777670,1.6679365499999999,2.2112210500000002,-2.580235075,1.6679365499999999,2.2112210500000002,-2.580235075
1069,1715728777680,1.106942,2.2527664,-0.6675208,1.106942,2.2527664,-0.6675208
1070,1715728777690,1.0249168,2.2218735,-0.29055065,1.0249168,2.2218735,-0.29055065
1071,1715728777700,0.32517174,1.5444992,3.1441257,0.32517174,1.5444992,3.1441257
1072,1715728777710,0.08928241999999999,1.25854245,4.294344049999999,0.08928241999999999,1.25854245,4.294344049999999
1073,1715728777720,-0.22939786250000002,0.878609475,5.857252225,-0.22939786250000002,0.878609475,5.857252225
1074,1715728777730,-0.9985515,0.15366428,9.35408,-0.9985515,0.15366428,9.35408
1075,1715728777740,-1.0965557,0.09294425,9.712008,-1.0965557,0.09294425,9.712008
1076,1715728777750,-1.6737955,-0.12743217,11.18913,-1.6737955,-0.12743217,11.18913
1077,1715728777760,-2.1402478,-0.19134799,11.751456,-2.1402478,-0.19134799,11.751456
1078,1715728777770,-2.1999026,-0.2062616825,11.79806125,-2.1999026,-0.2062616825,11.79806125
1079,1715728777780,-2.6482453,-0.42037967,12.109251,-2.6482453,-0.42037967,12.109251
1080,1715728777790,-2.7664897,-0.6291713,12.08262,-2.7664897,-0.6291713,12.08262
1081,1715728777800,-2.7664897,-0.6291713,12.08262,-2.7664897,-0.6291713,12.08262
1082,1715728777810,-2.81911372,-0.8361254300000001,11.6981932,-2.81911372,-0.8361254300000001,11.6981932
1083,1715728777820,-2.8218834,-0.8538088,11.652387,-2.8218834,-0.8538088,11.652387
1084,1715728777830,-2.985934,-1.004011,10.010149,-2.985934,-1.004011,10.010149
1085,1715728777840,-3.1178934999999997,-0.8229161499999998,9.717335,-3.1178934999999997,-0.8229161499999998,9.717335
1086,1715728777850,-3.539738,0.17710008,8.973914,-3.539738,0.17710008,8.973914
1087,1715728777860,-3.7515922,1.0940257,8.276299,-3.7515922,1.0940257,8.276299
1088,1715728777870,-3.7767324799999997,1.21461358,8.14511196,-3.7767324799999997,1.21461358,8.14511196
1089,1715728777880,-4.0434747,1.9045581999999999,7.183605,-4.0434747,1.9045581999999999,7.183605
1090,1715728777890,-4.156259,1.9791267,6.8982477,-4.156259,1.9791267,6.8982477
1091,1715728777900,-4.226567,1.5626086,5.8215327,-4.226567,1.5626086,5.8215327
1092,1715728777910,-3.8453354999999996,0.8310388,4.8204513,-3.8453354999999996,0.8310388,4.8204513
1093,1715728777920,-3.8453355,0.8310388,4.8204513,-3.8453355,0.8310388,4.8204513
1094,1715728777930,-2.876212,0.45393547,2.3964436,-2.876212,0.45393547,2.3964436
1095,1715728777940,-2.7505107,0.73942614,1.7341161,-2.7505107,0.73942614,1.7341161
1096,1715728777950,-2.5098944,1.6904403,-0.042344230000000004,-2.5098944,1.6904403,-0.042344230000000004
1097,1715728777960,-2.355431,1.9631478,-0.8251798999999999,-2.355431,1.9631478,-0.8251798999999999
1098,1715728777970,-2.355431,1.9631478,-0.8251799,-2.355431,1.9631478,-0.8251799
1099,1715728777980,-1.865543,1.7042887,-1.6249266,-1.865543,1.7042887,-1.6249266
1100,1715728777990,-1.7986444,1.62545918,-1.67392872,-1.7986444,1.62545918,-1.67392872
1101,1715728778000,-1.6982965,1.5072149,-1.7474319,-1.6982965,1.5072149,-1.7474319
1102,1715728778010,-0.6684529,0.66379243,-2.6281385,-0.6684529,0.66379243,-2.6281385
1103,1715728778020,-0.3276573333333333,0.7319692766666667,-3.0605911999999997,-0.3276573333333333,0.7319692766666667,-3.0605911999999997
1104,1715728778030,0.054727920000000006,0.8779103999999999,-3.5856774,0.054727920000000006,0.8779103999999999,-3.5856774
1105,1715728778040,0.21909809599999996,1.0806300800000002,-3.88810588,0.21909809599999996,1.0806300800000002,-3.88810588
1106,1715728778050,0.6191845,1.6094803000000002,-4.5643883,0.6191845,1.6094803000000002,-4.5643883
1107,1715728778060,1.0163946,1.8747308,-5.0596027,1.0163946,1.8747308,-5.0596027
1108,1715728778070,1.0163946,1.8747308,-5.0596027,1.0163946,1.8747308,-5.0596027
1109,1715728778080,2.0068235,1.9748657,-5.8955684,2.0068235,1.9748657,-5.8955684
1110,1715728778090,2.3125541,1.9951056,-6.120339,2.3125541,1.9951056,-6.120339
1111,1715728778100,3.0611682,2.053562,-6.7529726,3.0611682,2.053562,-6.7529726
1112,1715728778110,3.1719556,2.06528,-6.860431000000001,3.1719556,2.06528,-6.860431000000001
1113,1715728778120,3.59372014,2.09532044,-7.3090402,3.59372014,2.09532044,-7.3090402
1114,1715728778130,3.8748965,2.1153474,-7.608113,3.8748965,2.1153474,-7.608113
1115,1715728778140,4.2017994,2.082324,-7.9691043,4.2017994,2.082324,-7.9691043
1116,1715728778150,4.2017994,2.082324,-7.969104300000001,4.2017994,2.082324,-7.969104300000001
1117,1715728778160,4.2017994,2.082324,-7.9691043,4.2017994,2.082324,-7.9691043
1118,1715728778170,4.2017994,2.082324,-7.969104300000001,4.2017994,2.082324,-7.969104300000001
1119,1715728778180,4.2017994,2.082324,-7.969104300000001,4.2017994,2.082324,-7.969104300000001
1120,1715728778190,4.2017994,2.082324,-7.9691043,4.2017994,2.082324,-7.9691043
1121,1715728778200,4.2017994,2.082324,-7.9691043,4.2017994,2.082324,-7.9691043
1122,1715728778210,5.2177944,1.3390364,-8.746081,5.2177944,1.3390364,-8.746081
1123,1715728778220,5.4222585,-0.33941962999999997,-7.426019500000001,5.4222585,-0.33941962999999997,-7.426019500000001
1124,1715728778230,4.278498,-0.19454378,-5.9190044,4.278498,-0.19454378,-5.9190044
1125,1715728778240,3.9440055000000003,-0.05619265999999999,-5.575057,3.9440055000000003,-0.05619265999999999,-5.575057
1126,1715728778250,2.8407917,0.45393547,-4.6357613,2.8407917,0.45393547,-4.6357613
1127,1715728778260,2.0228026,0.8672578,-4.2043295,2.0228026,0.8672578,-4.2043295
1128,1715728778270,1.857453675,0.942059275,-4.159887875,1.857453675,0.942059275,-4.159887875
1129,1715728778280,0.05046686500000001,1.5210633,-3.9051232,0.05046686500000001,1.5210633,-3.9051232
1130,1715728778290,-0.5640571,1.6190675,-3.8689044,-0.5640571,1.6190675,-3.8689044
1131,1715728778300,-2.5438495,1.8140109000000002,-3.3001869,-2.5438495,1.8140109000000002,-3.3001869
1132,1715728778310,-3.4151019999999996,1.713876,-2.5908544,-3.4151019999999996,1.713876,-2.5908544
1133,1715728778320,-3.60278825,1.604719775,-2.2215740999999998,-3.60278825,1.604719775,-2.2215740999999998
1134,1715728778330,-4.1988697,0.29747486,1.455017,-4.1988697,0.29747486,1.455017
1135,1715728778340,-4.1988697,0.29747486,1.455017,-4.1988697,0.29747486,1.455017
1136,1715728778350,-2.5395885,-1.1977558,6.20596,-2.5395885,-1.1977558,6.20596
1137,1715728778360,-1.522528,-1.3170654,8.3561945,-1.522528,-1.3170654,8.3561945
1138,1715728778370,-1.3992237500000002,-1.28066,8.630127,-1.3992237500000002,-1.28066,8.630127
1139,1715728778380,-0.2350238,-0.56099445,11.518163,-0.2350238,-0.56099445,11.518163
1140,1715728778390,-0.15832481333333334,-0.40546596333333335,11.881684333333332,-0.15832481333333334,-0.40546596333333335,11.881684333333332
1141,1715728778400,-0.11997532,-0.32770172,12.063445,-0.11997532,-0.32770172,12.063445
1142,1715728778410,-0.30916614400000003,0.17584840799999998,12.741698600000001,-0.30916614400000003,0.17584840799999998,12.741698600000001
1143,1715728778420,-0.9861344999999999,-0.08302398075,12.424536250000001,-0.9861344999999999,-0.08302398075,12.424536250000001
1144,1715728778430,-1.9592861,-0.9539436,11.488335999999999,-1.9592861,-0.9539436,11.488335999999999
1145,1715728778440,-2.055925525,-1.19542555,11.25590875,-2.055925525,-1.19542555,11.25590875
1146,1715728778450,-2.80164348,-3.3135825600000004,9.3653986,-2.80164348,-3.3135825600000004,9.3653986
1147,1715728778460,-3.0360014,-3.5589128,9.057005,-3.0360014,-3.5589128,9.057005
1148,1715728778470,-3.08050276,-3.4170463,8.994181000000001,-3.08050276,-3.4170463,8.994181000000001
1149,1715728778480,-3.2840745,-1.3223916,8.518114,-3.2840745,-1.3223916,8.518114
1150,1715728778490,-3.21568464,-0.565868025,8.4273538,-3.21568464,-0.565868025,8.4273538
1151,1715728778500,-2.58646,1.1962911,7.7139735,-2.58646,1.1962911,7.7139735
1152,1715728778510,-1.7611471,1.1845732,6.9621634,-1.7611471,1.1845732,6.9621634
1153,1715728778520,-1.5626352200000002,1.05889872,6.780695779999999,-1.5626352200000002,1.05889872,6.780695779999999
1154,1715728778530,-0.026232118,-0.20093535,4.7554703,-0.026232118,-0.20093535,4.7554703
1155,1715728778540,0.07347655880000001,-0.37095143999999997,4.31580914,0.07347655880000001,-0.37095143999999997,4.31580914
1156,1715728778550,-0.054994237,-0.563125,2.030126,-0.054994237,-0.563125,2.030126
1157,1715728778560,-0.3074617,-0.28615645,1.3431643,-0.3074617,-0.28615645,1.3431643
1158,1715728778570,-0.436591625,-0.132791775,1.1360371,-0.436591625,-0.132791775,1.1360371
1159,1715728778580,-1.2169305,0.8235819299999999,0.03968107,-1.2169305,0.8235819299999999,0.03968107
1160,1715728778590,-1.2169305,0.82358193,0.03968107,-1.2169305,0.82358193,0.03968107
1161,1715728778600,-1.2169305,0.82358193,0.03968107,-1.2169305,0.82358193,0.03968107
1162,1715728778610,-1.2169305,0.82358193,0.03968107,-1.2169305,0.82358193,0.03968107
1163,1715728778620,-1.2169305,0.82358193,0.03968107,-1.2169305,0.82358193,0.03968107
1164,1715728778630,-1.2169305,0.8235819299999999,0.03968107,-1.2169305,0.8235819299999999,0.03968107
1165,1715728778640,-1.2169305,0.82358193,0.03968107,-1.2169305,0.82358193,0.03968107
1166,1715728778650,-1.2169305,0.8235819299999999,0.03968107,-1.2169305,0.8235819299999999,0.03968107
1167,1715728778660,-1.2169305,0.8235819299999999,0.03968107,-1.2169305,0.8235819299999999,0.03968107
1168,1715728778670,-1.2169305,0.82358193,0.03968107,-1.2169305,0.82358193,0.03968107
1169,1715728778680,-1.2169305,0.8235819299999999,0.03968107,-1.2169305,0.8235819299999999,0.03968107
1170,1715728778690,-1.2169305,0.8235819299999999,0.03968107,-1.2169305,0.8235819299999999,0.03968107
1171,1715728778700,-1.2169305,0.8235819299999999,0.03968107,-1.2169305,0.8235819299999999,0.03968107
1172,1715728778710,-1.2169305,0.82358193,0.03968107,-1.2169305,0.82358193,0.03968107
1173,1715728778720,-1.3650022,1.0088047,-0.17550218,-1.3650022,1.0088047,-0.17550218
1174,1715728778730,-0.97884415,0.6755103,-1.65422128,-0.97884415,0.6755103,-1.65422128
1175,1715728778740,0.5052013,0.108923204,-4.445079,0.5052013,0.108923204,-4.445079
1176,1715728778750,0.7660577,1.2602069,-6.4408503,0.7660577,1.2602069,-6.4408503
1177,1715728778760,0.946087275,1.9172748999999998,-7.6656375,0.946087275,1.9172748999999998,-7.6656375
1178,1715728778770,1.0941589,2.1973727,-8.216246,1.0941589,2.1973727,-8.216246
1179,1715728778780,1.3219922,2.3273346,-8.387753,1.3219922,2.3273346,-8.387753
1180,1715728778790,1.5678683333333332,2.3907178833333336,-8.384379166666667,1.5678683333333332,2.3907178833333336,-8.384379166666667
1181,1715728778800,2.081392,2.4296,-8.297205,2.081392,2.4296,-8.297205
1182,1715728778810,2.5723455,2.3507705,-8.145938,2.5723455,2.3507705,-8.145938
1183,1715728778820,2.5723455,2.3507705,-8.145938,2.5723455,2.3507705,-8.145938
1184,1715728778830,2.92032045,2.2149826999999997,-7.94733295,2.92032045,2.2149826999999997,-7.94733295
1185,1715728778840,3.6504810000000005,1.7856037666666669,-7.429237533333333,3.6504810000000005,1.7856037666666669,-7.429237533333333
1186,1715728778850,3.9297575800000004,1.18795544,-6.81281348,3.9297575800000004,1.18795544,-6.81281348
1187,1715728778860,3.99002494,0.8018239359999999,-6.3922742800000005,3.99002494,0.8018239359999999,-6.3922742800000005
1188,1715728778870,3.9930077,0.73729557,-6.3204756,3.9930077,0.73729557,-6.3204756
1189,1715728778880,3.5609987333333333,-0.6070670866666666,-4.636071666666666,3.5609987333333333,-0.6070670866666666,-4.636071666666666
1190,1715728778890,3.1962170999999997,-0.90536756,-4.0657384,3.1962170999999997,-0.90536756,-4.0657384
1191,1715728778900,2.54973516,-0.8759663,-3.6999535000000003,2.54973516,-0.8759663,-3.6999535000000003
1192,1715728778910,1.9951056,-0.7163898,-3.5707638000000004,1.9951056,-0.7163898,-3.5707638000000004
1193,1715728778920,1.9951056,-0.7163898,-3.5707638,1.9951056,-0.7163898,-3.5707638
1194,1715728778930,-0.8580698400000001,0.25166854,-3.0807424,-0.8580698400000001,0.25166854,-3.0807424
1195,1715728778940,-1.4543512,0.366717,-2.7644923,-1.4543512,0.366717,-2.7644923
1196,1715728778950,-2.6631591,0.4709797,-1.4662023,-2.6631591,0.4709797,-1.4662023
1197,1715728778960,-2.90092598,0.45308325200000005,-0.88946854,-2.90092598,0.45308325200000005,-0.88946854
1198,1715728778970,-2.9861204399999997,0.3489270972,-0.07645932000000003,-2.9861204399999997,0.3489270972,-0.07645932000000003
1199,1715728778980,-2.86169756,-0.2934268548,3.9390519600000005,-2.86169756,-0.2934268548,3.9390519600000005
1200,1715728778990,-2.6759866,-0.42712632,4.835719833333333,-2.6759866,-0.42712632,4.835719833333333
1201,1715728779000,-1.6492943999999998,-0.63236713,8.95687,-1.6492943999999998,-0.63236713,8.95687
1202,1715728779010,-1.3266528,-0.48003444,10.193375,-1.3266528,-0.48003444,10.193375
1203,1715728779020,-1.227050625,-0.422243885,10.58928675,-1.227050625,-0.422243885,10.58928675
1204,1715728779030,-0.7994804,-0.1764343,12.505529,-0.7994804,-0.1764343,12.505529
1205,1715728779040,-0.8002793225,-0.15486271,12.6029015,-0.8002793225,-0.15486271,12.6029015
1206,1715728779050,-0.97937673,-0.21478379,12.3255,-0.97937673,-0.21478379,12.3255
1207,1715728779060,-1.2928749666666668,-0.7757338533333332,11.625754,-1.2928749666666668,-0.7757338533333332,11.625754
1208,1715728779070,-1.6324632000000001,-1.6445007400000002,10.7184426,-1.6324632000000001,-1.6445007400000002,10.7184426
1209,1715728779080,-1.6759259999999998,-2.2256021,10.198701,-1.6759259999999998,-2.2256021,10.198701
1210,1715728779090,-1.663409175,-2.318779375,10.12812725,-1.663409175,-2.318779375,10.12812725
1211,1715728779100,-1.628255475,-2.7053701,9.576953,-1.628255475,-2.7053701,9.576953
1212,1715728779110,-1.743537,-2.306229325,9.271555249999999,-1.743537,-2.306229325,9.271555249999999
1213,1715728779120,-2.0102856,-1.2254527,9.011198,-2.0102856,-1.2254527,9.011198
1214,1715728779130,-2.16709232,-0.404134404,9.0009716,-2.16709232,-0.404134404,9.0009716
1215,1715728779140,-2.206294,-0.19880482999999996,8.998415,-2.206294,-0.19880482999999996,8.998415
1216,1715728779150,-1.7014923,0.38376123,7.751258,-1.7014923,0.38376123,7.751258
1217,1715728779160,-1.53164935,0.342748585,7.48181275,-1.53164935,0.342748585,7.48181275
1218,1715728779170,-1.3618064,0.30173594,7.2123675,-1.3618064,0.30173594,7.2123675
1219,1715728779180,-1.3618064,0.30173594,7.2123675,-1.3618064,0.30173594,7.2123675
1220,1715728779190,-1.3618064,0.30173594,7.2123675,-1.3618064,0.30173594,7.2123675
1221,1715728779200,-1.3618064,0.30173594,7.2123675,-1.3618064,0.30173594,7.2123675
1222,1715728779210,-1.3618064,0.30173594,7.2123675,-1.3618064,0.30173594,7.2123675
1223,1715728779220,-0.67164873,0.495014685,4.66978285,-0.67164873,0.495014685,4.66978285
1224,1715728779230,-3.297923,2.3113558,1.5146717,-3.297923,2.3113558,1.5146717
1225,1715728779240,-2.95474844,1.8231720799999998,0.636228716,-2.95474844,1.8231720799999998,0.636228716
1226,1715728779250,-1.8389114,1.3283838,-0.5929524,-1.8389114,1.3283838,-0.5929524
1227,1715728779260,-1.7025576400000002,1.31133956,-0.740384848,-1.7025576400000002,1.31133956,-0.740384848
1228,1715728779270,-1.3281174400000002,1.3386103,-1.222416616,-1.3281174400000002,1.3386103,-1.222416616
1229,1715728779280,-0.56192654,1.438106,-2.3065622,-0.56192654,1.438106,-2.3065622
1230,1715728779290,-0.4833101,1.4189312,-2.4528494600000004,-0.4833101,1.4189312,-2.4528494600000004
1231,1715728779300,-0.252068,1.2357059,-2.9519787,-0.252068,1.2357059,-2.9519787
1232,1715728779310,-0.21478378999999997,1.1877689,-3.038265,-0.21478378999999997,1.1877689,-3.038265
1233,1715728779320,0.13568796,0.9141294,-3.7517254,0.13568796,0.9141294,-3.7517254
1234,1715728779330,0.39441385999999995,0.9034767,-4.158523,0.39441385999999995,0.9034767,-4.158523
1235,1715728779340,0.6187850133333334,1.0571410333333333,-4.460658433333333,0.6187850133333334,1.0571410333333333,-4.460658433333333
1236,1715728779350,0.9375651499999998,1.300687,-4.8667903,0.9375651499999998,1.300687,-4.8667903
1237,1715728779360,1.00233319,1.3390364399999999,-4.93155806,1.00233319,1.3390364399999999,-4.93155806
1238,1715728779370,1.0185252,1.3486238,-4.94775,1.0185252,1.3486238,-4.94775
1239,1715728779380,2.0377162,1.4976275,-5.8050213,2.0377162,1.4976275,-5.8050213
1240,1715728779390,2.1842432,1.47807994,-5.9234785,2.1842432,1.47807994,-5.9234785
1241,1715728779400,3.097387,1.3187964,-6.745516,3.097387,1.3187964,-6.745516
1242,1715728779410,3.1186923,1.31368312,-6.7699904,3.1186923,1.31368312,-6.7699904
1243,1715728779420,3.7481300000000006,1.1888342,-7.6379404,3.7481300000000006,1.1888342,-7.6379404
1244,1715728779430,4.006856,1.1590068,-8.1022625,4.006856,1.1590068,-8.1022625
1245,1715728779440,4.0963382,1.15005864,-8.2646084,4.0963382,1.15005864,-8.2646084
1246,1715728779450,4.3200436,1.1238531,-8.626239,4.3200436,1.1238531,-8.626239
1247,1715728779460,4.40611672,1.10169558,-8.704642199999999,4.40611672,1.10169558,-8.704642199999999
1248,1715728779470,4.579835,0.92691255,-8.71146,4.579835,0.92691255,-8.71146
1249,1715728779480,4.6160536,0.80014616,-8.6305,4.6160536,0.80014616,-8.6305
1250,1715728779490,4.6160536,0.80014616,-8.6305,4.6160536,0.80014616,-8.6305
1251,1715728779500,4.584095725,0.6406229099999999,-8.46674875,4.584095725,0.6406229099999999,-8.46674875
1252,1715728779510,4.4339935,0.35869424250000004,-8.1760315,4.4339935,0.35869424250000004,-8.1760315
1253,1715728779520,3.8972670000000003,-0.12849742,-7.530348999999999,3.8972670000000003,-0.12849742,-7.530348999999999
1254,1715728779530,3.3743558,-0.41718388,-6.892388999999999,3.3743558,-0.41718388,-6.892388999999999
1255,1715728779540,3.3743558,-0.41718388,-6.892389,3.3743558,-0.41718388,-6.892389
1256,1715728779550,2.1815267,-0.7057372,-5.439769,2.1815267,-0.7057372,-5.439769
1257,1715728779560,2.0323899,-0.6950845,-5.274653,2.0323899,-0.6950845,-5.274653
1258,1715728779570,1.0057421,-0.4693817800000001,-4.240548,1.0057421,-0.4693817800000001,-4.240548
1259,1715728779580,0.9452351,-0.451059252,-4.188190400000001,0.9452351,-0.451059252,-4.188190400000001
1260,1715728779590,0.608731595,-0.37350807,-3.92699455,0.608731595,-0.37350807,-3.92699455
1261,1715728779600,-1.0592716,-0.15512902,-2.7463827,-1.0592716,-0.15512902,-2.7463827
1262,1715728779610,-1.0592716,-0.15512902,-2.7463827,-1.0592716,-0.15512902,-2.7463827
1263,1715728779620,-1.0592716,-0.15512902,-2.7463827,-1.0592716,-0.15512902,-2.7463827
1264,1715728779630,-1.0592716,-0.15512902,-2.7463827,-1.0592716,-0.15512902,-2.7463827
1265,1715728779640,-1.0592716,-0.15512902,-2.7463827,-1.0592716,-0.15512902,-2.7463827
1266,1715728779650,-1.0592716,-0.15512902,-2.7463827,-1.0592716,-0.15512902,-2.7463827
1267,1715728779660,-1.0592716,-0.15512902,-2.7463827,-1.0592716,-0.15512902,-2.7463827
1268,1715728779670,-1.0592716,-0.15512902,-2.7463827,-1.0592716,-0.15512902,-2.7463827
1269,1715728779680,-1.0592716,-0.15512902,-2.7463827,-1.0592716,-0.15512902,-2.7463827
1270,1715728779690,-1.0592716,-0.15512902,-2.7463827,-1.0592716,-0.15512902,-2.7463827
1271,1715728779700,-1.0592716,-0.15512902,-2.7463827,-1.0592716,-0.15512902,-2.7463827
1272,1715728779710,-1.0592716,-0.15512902,-2.7463827,-1.0592716,-0.15512902,-2.7463827
1273,1715728779720,-1.0592716,-0.15512902,-2.7463827,-1.0592716,-0.15512902,-2.7463827
1274,1715728779730,-1.0592716,-0.15512902,-2.7463827,-1.0592716,-0.15512902,-2.7463827
1275,1715728779740,-1.0592716,-0.15512902,-2.7463827,-1.0592716,-0.15512902,-2.7463827
1276,1715728779750,-1.428918,-0.15299849,-2.4162843,-1.428918,-0.15299849,-2.4162843
1277,1715728779760,-2.6525064,-0.48536074,1.6797876,-2.6525064,-0.48536074,1.6797876
1278,1715728779770,-1.1391664,-0.8836362,9.664072,-1.1391664,-0.8836362,9.664072
1279,1715728779780,-1.2499537,-1.549292825,12.16304675,-1.2499537,-1.549292825,12.16304675
1280,1715728779790,-3.40491545,-0.55620072,5.2980885,-3.40491545,-0.55620072,5.2980885
1281,1715728779800,-5.369328,2.5286696,3.3497214,-5.369328,2.5286696,3.3497214
1282,1715728779810,-5.5339115,1.594100475,2.64411745,-5.5339115,1.594100475,2.64411745
1283,1715728779820,-5.698495,0.65953135,1.9385135000000002,-5.698495,0.65953135,1.9385135000000002
1284,1715728779830,-5.451708666666666,0.14742805,1.8142327500000002,-5.451708666666666,0.14742805,1.8142327500000002
