id,timestamp,acc_x,acc_y,acc_z,gyro_x,gyro_y,gyro_z
0,1715728801710,2.004826156,-1.7992569159999998,-1.78407686,2.004826156,-1.7992569159999998,-1.78407686
1,1715728801720,3.6248068000000004,-2.874708857142857,-3.1456854285714284,3.6248068000000004,-2.874708857142857,-3.1456854285714284
2,1715728801730,3.726958,-2.8537079999999997,-3.2141666,3.726958,-2.8537079999999997,-3.2141666
3,1715728801740,4.556037085714286,-2.7722915571428572,-3.6005719714285718,4.556037085714286,-2.7722915571428572,-3.6005719714285718
4,1715728801750,4.9101996,-2.8398597000000003,-3.7722318,4.9101996,-2.8398597000000003,-3.7722318
5,1715728801760,4.983246285714286,-2.8788179285714284,-3.821804542857143,4.983246285714286,-2.8788179285714284,-3.821804542857143
6,1715728801770,5.278781,-3.0730193,-4.161985,5.278781,-3.0730193,-4.161985
7,1715728801780,5.221694142857143,-3.078649942857143,-4.376654714285714,5.221694142857143,-3.078649942857143,-4.376654714285714
8,1715728801790,5.1023021,-3.060435833333333,-4.620447833333333,5.1023021,-3.060435833333333,-4.620447833333333
9,1715728801800,4.9016776,-2.965561,-4.708332,4.9016776,-2.965561,-4.708332
10,1715728801810,4.683831085714286,-2.7341133285714285,-4.690070385714286,4.683831085714286,-2.7341133285714285,-4.690070385714286
11,1715728801820,4.261149914285714,-2.1798336714285713,-4.596631528571429,4.261149914285714,-2.1798336714285713,-4.596631528571429
12,1715728801830,4.1243014,-1.9707377,-4.5400205,4.1243014,-1.9707377,-4.5400205
13,1715728801840,3.715601542857143,-1.3071926285714286,-4.35008,3.715601542857143,-1.3071926285714286,-4.35008
14,1715728801850,3.653588,-1.2402332,-4.3026,3.653588,-1.2402332,-4.3026
15,1715728801860,3.6236084571428573,-1.2137538142857143,-4.188312385714285,3.6236084571428573,-1.2137538142857143,-4.188312385714285
16,1715728801870,3.5736933,-1.1688606,-3.9734335,3.5736933,-1.1688606,-3.9734335
17,1715728801880,3.489233057142857,-1.2560599714285714,-3.668577828571429,3.489233057142857,-1.2560599714285714,-3.668577828571429
18,1715728801890,3.3696191714285715,-1.3510206,-3.310839442857143,3.3696191714285715,-1.3510206,-3.310839442857143
19,1715728801900,3.1933942,-1.3701954,-2.9201539,3.1933942,-1.3701954,-2.9201539
20,1715728801910,2.9953502142857147,-1.2781261857142856,-2.6023439571428573,2.9953502142857147,-1.2781261857142856,-2.6023439571428573
21,1715728801920,2.4714117,-0.9621993999999999,-1.8327861,2.4714117,-0.9621993999999999,-1.8327861
22,1715728801930,1.98535185,-0.55768216225,-1.28286040125,1.98535185,-0.55768216225,-1.28286040125
23,1715728801940,1.4181321999999998,-0.077231616,-0.66552347,1.4181321999999998,-0.077231616,-0.66552347
24,1715728801950,0.8632630000000001,0.41585229999999995,-0.13409007,0.8632630000000001,0.41585229999999995,-0.13409007
25,1715728801960,0.61782628,0.63116872,0.09145288199999999,0.61782628,0.63116872,0.09145288199999999
26,1715728801970,-0.18895113,1.2667316,0.8882967,-0.18895113,1.2667316,0.8882967
27,1715728801980,-0.327009294,1.33192574,1.0582329000000001,-0.327009294,1.33192574,1.0582329000000001
28,1715728801990,-0.9185235500000001,1.3785843,2.1065588,-0.9185235500000001,1.3785843,2.1065588
29,1715728802000,-0.944622525,1.3594096,2.1955084,-0.944622525,1.3594096,2.1955084
30,1715728802010,-1.015995225,1.2502534,2.5978452,-1.015995225,1.2502534,2.5978452
31,1715728802020,-0.9973531,0.57883763,4.747747,-0.9973531,0.57883763,4.747747
32,1715728802030,-0.7628086260000001,0.408395446,5.49143416,-0.7628086260000001,0.408395446,5.49143416
33,1715728802040,-0.38282913,0.27630275,6.5487084,-0.38282913,0.27630275,6.5487084
34,1715728802050,-0.26032381,0.291216445,6.9316042,-0.26032381,0.291216445,6.9316042
35,1715728802060,-0.059621477,0.298939605,7.6835135,-0.059621477,0.298939605,7.6835135
36,1715728802070,-0.028762118750000003,0.1712078375,8.1547595,-0.028762118750000003,0.1712078375,8.1547595
37,1715728802080,-0.180642088,-0.22804631200000003,8.5062367,-0.180642088,-0.22804631200000003,8.5062367
38,1715728802090,-0.49837694,-0.7377949500000001,8.580965125,-0.49837694,-0.7377949500000001,8.580965125
39,1715728802100,-0.6948182,-1.04529,8.549806,-0.6948182,-1.04529,8.549806
40,1715728802110,-0.8107188799999999,-1.23189756,8.5376886,-0.8107188799999999,-1.23189756,8.5376886
41,1715728802120,-1.0751173,-1.6502266000000003,8.567916,-1.0751173,-1.6502266000000003,8.567916
42,1715728802130,-1.1628417800000002,-1.62466028,8.8759368,-1.1628417800000002,-1.62466028,8.8759368
43,1715728802140,-1.277650575,-1.5080471750000002,9.321423124999999,-1.277650575,-1.5080471750000002,9.321423124999999
44,1715728802150,-1.3871064,-1.3627385,9.6616745,-1.3871064,-1.3627385,9.6616745
45,1715728802160,-1.61014598,-1.168248,9.8127289,-1.61014598,-1.168248,9.8127289
46,1715728802170,-2.210422,-0.7024082,10.081388,-2.210422,-0.7024082,10.081388
47,1715728802180,-2.8522433333333335,-0.40311350760000003,9.884004,-2.8522433333333335,-0.40311350760000003,9.884004
48,1715728802190,-3.7940695,-0.0037284228,9.544629,-3.7940695,-0.0037284228,9.544629
49,1715728802200,-4.1003327800000005,0.07249119032,9.3184202,-4.1003327800000005,0.07249119032,9.3184202
50,1715728802210,-4.63874362,0.19896461599999998,8.7854688,-4.63874362,0.19896461599999998,8.7854688
51,1715728802220,-4.9548073,0.24754064000000003,8.010916,-4.9548073,0.24754064000000003,8.010916
52,1715728802230,-4.75634866,0.192253456,7.7536544,-4.75634866,0.192253456,7.7536544
53,1715728802240,-3.8302886000000003,0.22410484,7.125947999999999,-3.8302886000000003,0.22410484,7.125947999999999
54,1715728802250,-3.2541142,0.40839543999999994,6.803306000000001,-3.2541142,0.40839543999999994,6.803306000000001
55,1715728802260,-2.869886825,0.2020671875,6.318178325,-2.869886825,0.2020671875,6.318178325
56,1715728802270,-2.1624851,-0.35939333,5.38038,-2.1624851,-0.35939333,5.38038
57,1715728802280,-1.8270069800000002,-0.715963712,5.06471598,-1.8270069800000002,-0.715963712,5.06471598
58,1715728802290,0.74182296,-2.5469122,3.539072,0.74182296,-2.5469122,3.539072
59,1715728802300,1.1315763,-2.7056365,3.3569121,1.1315763,-2.7056365,3.3569121
60,1715728802310,1.606584025,-2.5219118000000003,2.93516755,1.606584025,-2.5219118000000003,2.93516755
61,1715728802320,3.0316072,-1.9707377000000001,1.6699338999999997,3.0316072,-1.9707377000000001,1.6699338999999997
62,1715728802330,2.67522326,-1.252110886,1.20880791,2.67522326,-1.252110886,1.20880791
63,1715728802340,1.3190627566666666,0.3842938466666666,0.051887213333333314,1.3190627566666666,0.3842938466666666,0.051887213333333314
64,1715728802350,0.43942127,1.013332,-0.53249866,0.43942127,1.013332,-0.53249866
65,1715728802360,0.289458776,1.0757298199999998,-0.6345242680000001,0.289458776,1.0757298199999998,-0.6345242680000001
66,1715728802370,-1.2209253,1.470197,-1.8349166,-1.2209253,1.470197,-1.8349166
67,1715728802380,-1.3226580000000001,1.45155485,-1.9792598,-1.3226580000000001,1.45155485,-1.9792598
68,1715728802390,-1.42012964,1.15349416,-2.77533144,-1.42012964,1.15349416,-2.77533144
69,1715728802400,-1.2432958,0.9206541,-3.14599,-1.2432958,0.9206541,-3.14599
70,1715728802410,-0.938497248,0.790319086,-3.3021043,-0.938497248,0.790319086,-3.3021043
71,1715728802420,-0.20066904000000002,0.52131337,-3.6550527,-0.20066904000000002,0.52131337,-3.6550527
72,1715728802430,0.106020368,0.489781586,-3.81697286,0.106020368,0.489781586,-3.81697286
73,1715728802440,0.685364,0.48083338,-4.338819,0.685364,0.48083338,-4.338819
74,1715728802450,0.9580715,0.57031554,-4.864926,0.9580715,0.57031554,-4.864926
75,1715728802460,0.994257175,0.6435191174999999,-4.991658999999999,0.994257175,0.6435191174999999,-4.991658999999999
76,1715728802470,1.0974878,1.2731233,-5.7573504,1.0974878,1.2731233,-5.7573504
77,1715728802480,1.036268475,1.5146385,-6.000463625,1.036268475,1.5146385,-6.000463625
78,1715728802490,0.9207873,1.9206704,-6.4741397,0.9207873,1.9206704,-6.4741397
79,1715728802500,0.9139695400000001,1.94197568,-6.55669778,0.9139695400000001,1.94197568,-6.55669778
80,1715728802510,0.9167924925000001,1.9760641,-6.99245715,0.9167924925000001,1.9760641,-6.99245715
81,1715728802520,0.9314399,2.0218704,-7.523158,0.9314399,2.0218704,-7.523158
82,1715728802530,0.9646760999999999,2.09771728,-7.7156511199999995,0.9646760999999999,2.09771728,-7.7156511199999995
83,1715728802540,1.04529,2.2572937,-7.9693704,1.04529,2.2572937,-7.9693704
84,1715728802550,1.1230541,2.2977736,-8.059917,1.1230541,2.2977736,-8.059917
85,1715728802560,1.22766304,2.25367174,-8.064817600000001,1.22766304,2.25367174,-8.064817600000001
86,1715728802570,1.5086796,2.1230705,-8.06844,1.5086796,2.1230705,-8.06844
87,1715728802580,1.6284219,2.063948375,-8.067641250000001,1.6284219,2.063948375,-8.067641250000001
88,1715728802590,2.2168136,1.7503613,-8.060983,2.2168136,1.7503613,-8.060983
89,1715728802600,2.5427842,1.5042855,-7.991741,2.5427842,1.5042855,-7.991741
90,1715728802610,2.60773205,1.468332825,-7.95365785,2.60773205,1.468332825,-7.95365785
91,1715728802620,2.998584,1.2604733,-7.5902696,2.998584,1.2604733,-7.5902696
92,1715728802630,3.01669348,1.24683792,-7.56001618,3.01669348,1.24683792,-7.56001618
93,1715728802640,3.3350741999999998,0.76512563,-6.8330007,3.3350741999999998,0.76512563,-6.8330007
94,1715728802650,3.3906809000000004,0.5245357848000001,-6.54585866,3.3906809000000004,0.5245357848000001,-6.54585866
95,1715728802660,3.5023205,-0.054861076,-5.8574853,3.5023205,-0.054861076,-5.8574853
96,1715728802670,3.5151038,-0.15925692,-5.739241,3.5151038,-0.15925692,-5.739241
97,1715728802680,3.4120395,-0.52773828,-5.146288825,3.4120395,-0.52773828,-5.146288825
98,1715728802690,3.1901982,-0.7556714,-4.5666523,3.1901982,-0.7556714,-4.5666523
99,1715728802700,2.8696870000000003,-0.6811029300000001,-4.219509,2.8696870000000003,-0.6811029300000001,-4.219509
100,1715728802710,2.1486368,-0.33182964,-3.6816843,2.1486368,-0.33182964,-3.6816843
101,1715728802720,1.320128,-0.0005326318,-3.3258862,1.320128,-0.0005326318,-3.3258862
102,1715728802730,0.938830185,0.16345138409999999,-3.1464558499999997,0.938830185,0.16345138409999999,-3.1464558499999997
103,1715728802740,-0.74701613,0.73210245,-2.111885,-0.74701613,0.73210245,-2.111885
104,1715728802750,-1.71198522,0.714019614,-0.7701856140000001,-1.71198522,0.714019614,-0.7701856140000001
105,1715728802760,-2.1124177,0.53942287,0.35366753,-2.1124177,0.53942287,0.35366753
106,1715728802770,-2.1997695,0.22730063,2.0927105,-2.1997695,0.22730063,2.0927105
107,1715728802780,-1.9547854399999998,0.051185918399999995,3.4506286599999996,-1.9547854399999998,0.051185918399999995,3.4506286599999996
108,1715728802790,-1.368997,-0.23382537,6.0066223,-1.368997,-0.23382537,6.0066223
109,1715728802800,-0.783714452,-0.244904116,7.803881799999999,-0.783714452,-0.244904116,7.803881799999999
110,1715728802810,-0.2710030668,-0.24128222,9.270404,-0.2710030668,-0.24128222,9.270404
111,1715728802820,-0.006924214,-0.31372014,9.912012,-0.006924214,-0.31372014,9.912012
112,1715728802830,0.090547409,-0.401504535,10.114845,0.090547409,-0.401504535,10.114845
113,1715728802840,0.09108004,-0.60600185,10.1776625,0.09108004,-0.60600185,10.1776625
114,1715728802850,-0.12088079,-0.9664870600000001,10.003384800000001,-0.12088079,-0.9664870600000001,10.003384800000001
115,1715728802860,-0.62221383,-1.256744725,9.694964500000001,-0.62221383,-1.256744725,9.694964500000001
116,1715728802870,-0.8865657,-1.2167974,9.711742,-0.8865657,-1.2167974,9.711742
117,1715728802880,-0.8865657,-1.2167974,9.711742,-0.8865657,-1.2167974,9.711742
118,1715728802890,-1.06638226,-1.05232068,9.808894,-1.06638226,-1.05232068,9.808894
119,1715728802900,-1.377519,-0.45526704,10.190978,-1.377519,-0.45526704,10.190978
120,1715728802910,-1.587376,0.21984379,10.886462,-1.587376,0.21984379,10.886462
121,1715728802920,-1.8269272,0.31145647,11.0846,-1.8269272,0.31145647,11.0846
122,1715728802930,-2.0367840999999998,0.25263394,10.719515,-2.0367840999999998,0.25263394,10.719515
123,1715728802940,-2.2445104,0.12303795,10.173934,-2.2445104,0.12303795,10.173934
124,1715728802950,-2.2763684499999997,0.015978953999999997,9.91757125,-2.2763684499999997,0.015978953999999997,9.91757125
125,1715728802960,-2.25399128,-0.0714791914,9.0468046,-2.25399128,-0.0714791914,9.0468046
126,1715728802970,-2.27527,-0.015446323,7.405047,-2.27527,-0.015446323,7.405047
127,1715728802980,-2.44656442,0.28232149879999996,7.1327658,-2.44656442,0.28232149879999996,7.1327658
128,1715728802990,-2.7673551999999995,0.75400689,6.7020398000000005,-2.7673551999999995,0.75400689,6.7020398000000005
129,1715728803000,-2.649943125,0.768121669,6.208522875,-2.649943125,0.768121669,6.208522875
130,1715728803010,-1.7034897,0.054861076,5.778789,-1.7034897,0.054861076,5.778789
131,1715728803020,-1.7034897,0.054861076,5.778789,-1.7034897,0.054861076,5.778789
132,1715728803030,-0.6312219624,-0.5006739016,5.17936532,-0.6312219624,-0.5006739016,5.17936532
133,1715728803040,0.22210747,-0.8993488600000001,4.3452106,0.22210747,-0.8993488600000001,4.3452106
134,1715728803050,0.180349134,-0.9163930520000001,4.03596428,0.180349134,-0.9163930520000001,4.03596428
135,1715728803060,0.08149267,-1.3456943,2.2674136,0.08149267,-1.3456943,2.2674136
136,1715728803070,0.10599373,-1.454218,1.5495591,0.10599373,-1.454218,1.5495591
137,1715728803080,-0.08340126933333335,-1.1377681333333334,0.7904256133333334,-0.08340126933333335,-1.1377681333333334,0.7904256133333334
138,1715728803090,-0.4275702,-0.5628587,-0.38336176,-0.4275702,-0.5628587,-0.38336176
139,1715728803100,-0.7044056,-0.095341094,-0.92331725,-0.7044056,-0.095341094,-0.92331725
140,1715728803110,-1.5671359,1.3764538,-2.5080302,-1.5671359,1.3764538,-2.5080302
141,1715728803120,-1.8588850000000001,1.9419756,-3.1395984,-1.8588850000000001,1.9419756,-3.1395984
142,1715728803130,-1.8910559799999997,2.1121514599999998,-3.4380054,-1.8910559799999997,2.1121514599999998,-3.4380054
143,1715728803140,-1.8578198000000001,2.3626215,-4.067177,-1.8578198000000001,2.3626215,-4.067177
144,1715728803150,-1.7056203000000003,2.2551632,-4.170507,-1.7056203000000003,2.2551632,-4.170507
145,1715728803160,-1.0367678,1.8322534999999998,-4.6092625,-1.0367678,1.8322534999999998,-4.6092625
146,1715728803170,-0.5181176,1.6630096,-4.958536,-0.5181176,1.6630096,-4.958536
147,1715728803180,-0.22170799249999998,1.6270570000000002,-5.151082225,-0.22170799249999998,1.6270570000000002,-5.151082225
148,1715728803190,0.45739758,1.6960329,-5.6327147,0.45739758,1.6960329,-5.6327147
149,1715728803200,0.6755769066666666,1.8210016166666667,-5.861724283333333,0.6755769066666666,1.8210016166666667,-5.861724283333333
150,1715728803210,1.0207889,2.0751336,-6.342047,1.0207889,2.0751336,-6.342047
151,1715728803220,1.14286814,2.13713196,-6.59635202,1.14286814,2.13713196,-6.59635202
152,1715728803230,1.37549504,2.2140439400000003,-7.08003514,1.37549504,2.2140439400000003,-7.08003514
153,1715728803240,1.6757928,2.2967083,-7.646595500000001,1.6757928,2.2967083,-7.646595500000001
154,1715728803250,1.7852487,2.3333602,-7.7680355,1.7852487,2.3333602,-7.7680355
155,1715728803260,2.3776351250000003,2.353333825,-8.03355225,2.3776351250000003,2.353333825,-8.03355225
156,1715728803270,2.6172197,2.2967083,-8.021568,2.6172197,2.2967083,-8.021568
157,1715728803280,2.81452645,2.165680925,-7.972566075,2.81452645,2.165680925,-7.972566075
158,1715728803290,3.1752846,1.8823209000000003,-7.878823299999999,3.1752846,1.8823209000000003,-7.878823299999999
159,1715728803300,3.32079956,1.53664284,-7.88308424,3.32079956,1.53664284,-7.88308424
160,1715728803310,3.52319964,0.8978841099999999,-7.89118024,3.52319964,0.8978841099999999,-7.89118024
161,1715728803320,3.576889,0.25286695,-7.889476,3.576889,0.25286695,-7.889476
162,1715728803330,3.56197528,0.06799045,-7.8707272,3.56197528,0.06799045,-7.8707272
163,1715728803340,3.3947289999999994,-0.79082507,-7.638073399999999,3.3947289999999994,-0.79082507,-7.638073399999999
164,1715728803350,3.31962775,-0.9920600675,-7.500754325,3.31962775,-0.9920600675,-7.500754325
165,1715728803360,2.9314723,-1.6086812,-6.483727,2.9314723,-1.6086812,-6.483727
166,1715728803370,2.6481123,-1.6598139,-5.5592113,2.6481123,-1.6598139,-5.5592113
167,1715728803380,2.58369715,-1.624926525,-5.318261975,2.58369715,-1.624926525,-5.318261975
168,1715728803390,2.1848557,-1.2807132,-3.7871454,2.1848557,-1.2807132,-3.7871454
169,1715728803400,1.94501164,-0.93966905,-3.38109356,1.94501164,-0.93966905,-3.38109356
170,1715728803410,1.4245238,-0.32543805,-2.8690214,1.4245238,-0.32543805,-2.8690214
171,1715728803420,0.62570924,0.19214693,-2.2152157,0.62570924,0.19214693,-2.2152157
172,1715728803430,0.27981813200000005,0.351936478,-1.81174714,0.27981813200000005,0.351936478,-1.81174714
173,1715728803440,-0.8064844820000001,0.741503408,-0.14671345200000002,-0.8064844820000001,0.741503408,-0.14671345200000002
174,1715728803450,-1.1515233679999999,0.8015576360000001,1.103613144,-1.1515233679999999,0.8015576360000001,1.103613144
175,1715728803460,-1.4680665,0.8364982600000002,3.4943311,-1.4680665,0.8364982600000002,3.4943311
176,1715728803470,-1.39584162,0.881239324,4.30390504,-1.39584162,0.881239324,4.30390504
177,1715728803480,-1.2494544125,0.95207935,5.3436623,-1.2494544125,0.95207935,5.3436623
178,1715728803490,-0.68384603,1.23778306,7.842258039999999,-0.68384603,1.23778306,7.842258039999999
179,1715728803500,-0.501925612,1.36793166,8.4812296,-0.501925612,1.36793166,8.4812296
180,1715728803510,-0.2041311375,1.6262581249999999,9.514269,-0.2041311375,1.6262581249999999,9.514269
181,1715728803520,-0.18895113,1.6342475,9.570195,-0.18895113,1.6342475,9.570195
182,1715728803530,-0.2613890566666666,1.4950531,9.657458333333333,-0.2613890566666666,1.4950531,9.657458333333333
183,1715728803540,-0.5554018,0.8982835399999999,9.4903,-0.5554018,0.8982835399999999,9.4903
184,1715728803550,-0.73148994,0.53771842,9.352881400000001,-0.73148994,0.53771842,9.352881400000001
185,1715728803560,-1.145391525,-0.21088891249999997,9.1198545,-1.145391525,-0.21088891249999997,9.1198545
186,1715728803570,-1.3274517,-0.42970073,9.063129,-1.3274517,-0.42970073,9.063129
187,1715728803580,-1.3568529599999999,-0.491272958,9.0094932,-1.3568529599999999,-0.491272958,9.0094932
188,1715728803590,-1.3860412,-0.6225134,8.866189,-1.3860412,-0.6225134,8.866189
189,1715728803600,-1.2321439,-0.5719134,8.713090874999999,-1.2321439,-0.5719134,8.713090874999999
190,1715728803610,-0.9962877999999998,-0.45420180000000004,8.5051985,-0.9962877999999998,-0.45420180000000004,8.5051985
191,1715728803620,-0.9270457,-0.41052598,8.407194,-0.9270457,-0.41052598,8.407194
192,1715728803630,-1.118460275,-0.368780955,8.30519475,-1.118460275,-0.368780955,8.30519475
193,1715728803640,-1.2752538,-0.32756856,8.335821,-1.2752538,-0.32756856,8.335821
194,1715728803650,-1.4670012166666666,-0.23879659333333333,8.646411833333334,-1.4670012166666666,-0.23879659333333333,8.646411833333334
195,1715728803660,-1.4425001,-0.45633233,8.927975,-1.4425001,-0.45633233,8.927975
196,1715728803670,-0.7704519,-1.1486205,8.570046,-0.7704519,-1.1486205,8.570046
197,1715728803680,-0.163411434,-1.4105955000000001,8.046735,-0.163411434,-1.4105955000000001,8.046735
198,1715728803690,0.9239830399999999,-1.3638037,6.1983695,0.9239830399999999,-1.3638037,6.1983695
199,1715728803700,0.5744434133333333,-0.6837882566666668,4.8159681333333335,0.5744434133333333,-0.6837882566666668,4.8159681333333335
200,1715728803710,-0.267647486,0.481232844,2.46656476,-0.267647486,0.481232844,2.46656476
201,1715728803720,-0.96539515,0.8535425,1.4144038,-0.96539515,0.8535425,1.4144038
202,1715728803730,-1.07253404,0.86632566,1.210778656,-1.07253404,0.86632566,1.210778656
203,1715728803740,-1.6550468999999999,0.8925311199999999,-0.09962878400000001,-1.6550468999999999,0.8925311199999999,-0.09962878400000001
204,1715728803750,-1.8263945333333333,1.05092695,-1.12125658,-1.8263945333333333,1.05092695,-1.12125658
205,1715728803760,-1.9142787,1.3668664,-2.2003021,-1.9142787,1.3668664,-2.2003021
206,1715728803770,-1.8865819,1.8503629,-3.1204236,-1.8865819,1.8503629,-3.1204236
207,1715728803780,-1.8443974600000002,1.9948126599999998,-3.3739030800000003,-1.8443974600000002,1.9948126599999998,-3.3739030800000003
208,1715728803790,-1.5852455,2.3031,-4.07996,-1.5852455,2.3031,-4.07996
209,1715728803800,-1.4787191,2.2647505600000004,-4.16347656,-1.4787191,2.2647505600000004,-4.16347656
210,1715728803810,-0.93663305,1.8588850000000001,-4.461191,-0.93663305,1.8588850000000001,-4.461191
211,1715728803820,-0.6479466,1.6353128,-4.688092,-0.6479466,1.6353128,-4.688092
212,1715728803830,-0.52840405,1.5964307,-4.8238799,-0.52840405,1.5964307,-4.8238799
213,1715728803840,0.04318755999999999,1.5529324666666666,-5.5478932,0.04318755999999999,1.5529324666666666,-5.5478932
214,1715728803850,0.235316738,1.66492716,-5.84811116,0.235316738,1.66492716,-5.84811116
215,1715728803860,0.71306086,2.3201442,-6.6071644,0.71306086,2.3201442,-6.6071644
216,1715728803870,0.8611325,2.5043015,-6.8266087,0.8611325,2.5043015,-6.8266087
217,1715728803880,0.9801424249999999,2.578870025,-6.99302295,0.9801424249999999,2.578870025,-6.99302295
218,1715728803890,1.7109466,2.775944,-8.031156,1.7109466,2.775944,-8.031156
219,1715728803900,1.8864753999999997,2.6389776599999997,-8.274595399999999,1.8864753999999997,2.6389776599999997,-8.274595399999999
220,1715728803910,2.4064305,2.1912472,-8.985366,2.4064305,2.1912472,-8.985366
221,1715728803920,2.7141585,1.8961693,-9.272854,2.7141585,1.8961693,-9.272854
222,1715728803930,2.972451675,1.6880101,-9.4297135,2.972451675,1.6880101,-9.4297135
223,1715728803940,3.3041816000000006,1.4467611,-9.610542,3.3041816000000006,1.4467611,-9.610542
224,1715728803950,3.4532918800000005,1.35155322,-9.641221400000001,3.4532918800000005,1.35155322,-9.641221400000001
225,1715728803960,3.774895,1.1454247,-9.663805,3.774895,1.1454247,-9.663805
226,1715728803970,3.9464023,0.98989624,-9.537039,3.9464023,0.98989624,-9.537039
227,1715728803980,3.98816058,0.9127711439999999,-9.442017400000001,3.98816058,0.9127711439999999,-9.442017400000001
228,1715728803990,4.08062544,0.455453468,-8.8317274,4.08062544,0.455453468,-8.8317274
229,1715728804000,3.99140965,-0.06444845299999999,-7.975994675000001,3.99140965,-0.06444845299999999,-7.975994675000001
230,1715728804010,3.7653074,-0.9739172999999999,-6.4134197,3.7653074,-0.9739172999999999,-6.4134197
231,1715728804020,3.7286625200000003,-1.10856666,-6.18076634,3.7286625200000003,-1.10856666,-6.18076634
232,1715728804030,3.6463975333333334,-1.3971377,-5.580871999999999,3.6463975333333334,-1.3971377,-5.580871999999999
233,1715728804040,3.3404005,-2.190182,-3.6412044000000003,3.3404005,-2.190182,-3.6412044000000003
234,1715728804050,3.0532852999999998,-2.19550834,-3.2365107199999996,3.0532852999999998,-2.19550834,-3.2365107199999996
235,1715728804060,1.95481196,-2.03233666,-1.99792864,1.95481196,-2.03233666,-1.99792864
236,1715728804070,1.1028142,-1.7034897,-1.3034832,1.1028142,-1.7034897,-1.3034832
237,1715728804080,1.1028142,-1.7034897,-1.3034832,1.1028142,-1.7034897,-1.3034832
238,1715728804090,0.04101265,-1.1454247,-0.25233433,0.04101265,-1.1454247,-0.25233433
239,1715728804100,-0.2731402625,-0.86452800125,0.2945454025,-0.2731402625,-0.86452800125,0.2945454025
240,1715728804110,-1.4755234,0.8290414,3.720034,-1.4755234,0.8290414,3.720034
241,1715728804120,-1.4382391,1.10601,4.4549327,-1.4382391,1.10601,4.4549327
242,1715728804130,-1.23004665,1.38770565,5.52152785,-1.23004665,1.38770565,5.52152785
243,1715728804140,-0.6564687,1.8439714000000003,7.796930999999999,-0.6564687,1.8439714000000003,7.796930999999999
244,1715728804150,-0.5957819675,1.8626135000000001,7.98967725,-0.5957819675,1.8626135000000001,7.98967725
245,1715728804160,-0.17190692,1.9270619,9.514802,-0.17190692,1.9270619,9.514802
246,1715728804170,-0.14101428,1.911083,9.765005,-0.14101428,1.911083,9.765005
247,1715728804180,-0.14101428,1.9110830000000003,9.765005,-0.14101428,1.9110830000000003,9.765005
248,1715728804190,-0.2033322,1.8493643,9.9189355,-0.2033322,1.8493643,9.9189355
249,1715728804200,-0.421977552,1.6619444399999999,10.0012808,-0.421977552,1.6619444399999999,10.0012808
250,1715728804210,-0.6564687,1.4733927,9.893903,-0.6564687,1.4733927,9.893903
251,1715728804220,-1.0648109,0.9553550279999999,9.3918438,-1.0648109,0.9553550279999999,9.3918438
252,1715728804230,-1.5458307,0.19747324,8.54874,-1.5458307,0.19747324,8.54874
253,1715728804240,-1.5884413,-0.021837905,8.225034,-1.5884413,-0.021837905,8.225034
254,1715728804250,-1.574060225,-0.038083175250000004,8.22316975,-1.574060225,-0.038083175250000004,8.22316975
255,1715728804260,-1.4510223,-0.12729901,8.616918,-1.4510223,-0.12729901,8.616918
256,1715728804270,-1.46124882,-0.12431627,8.7038432,-1.46124882,-0.12431627,8.7038432
257,1715728804280,-1.55818774,-0.079149092,9.145581199999999,-1.55818774,-0.079149092,9.145581199999999
258,1715728804290,-1.5863107,-0.08042741,9.056738,-1.5863107,-0.08042741,9.056738
259,1715728804300,-1.6372303000000001,-0.1570997576,8.35070808,-1.6372303000000001,-0.1570997576,8.35070808
260,1715728804310,-1.6385086999999998,-0.41052597999999996,6.687192399999999,-1.6385086999999998,-0.41052597999999996,6.687192399999999
261,1715728804320,-1.4627402,-0.61931765,5.828723,-1.4627402,-0.61931765,5.828723
262,1715728804330,-0.64901185,-1.0165278,3.3835436999999997,-0.64901185,-1.0165278,3.3835436999999997
263,1715728804340,-0.396011754,-0.6927942,2.26405802,-0.396011754,-0.6927942,2.26405802
264,1715728804350,-0.4344611275,-0.1310274225,1.1497190175,-0.4344611275,-0.1310274225,1.1497190175
265,1715728804360,-0.7171888,0.75234246,-0.39294913,-0.7171888,0.75234246,-0.39294913
266,1715728804370,-0.928084344,0.989017392,-1.040043586,-0.928084344,0.989017392,-1.040043586
267,1715728804380,-1.2603401,1.3508874000000002,-2.1683443,-1.2603401,1.3508874000000002,-2.1683443
268,1715728804390,-1.3010864,1.496295975,-2.6148560499999998,-1.3010864,1.496295975,-2.6148560499999998
269,1715728804400,-1.3146685,1.5447655,-2.7636933,-1.3146685,1.5447655,-2.7636933
270,1715728804410,-1.11852678,1.9032,-3.6047721600000004,-1.11852678,1.9032,-3.6047721600000004
271,1715728804420,-0.99927054,1.96498524,-3.8075452,-0.99927054,1.96498524,-3.8075452
272,1715728804430,-0.7662574799999999,1.8355158,-4.0810252,-0.7662574799999999,1.8355158,-4.0810252
273,1715728804440,-0.5411983433333333,1.6731297666666667,-4.3656279,-0.5411983433333333,1.6731297666666667,-4.3656279
274,1715728804450,-0.3620565,1.5634076000000001,-4.67903735,-0.3620565,1.5634076000000001,-4.67903735
275,1715728804460,0.05273055,1.4957633,-5.57306,0.05273055,1.4957633,-5.57306
276,1715728804470,0.08767119799999999,1.51110306,-5.6770296,0.08767119799999999,1.51110306,-5.6770296
277,1715728804480,0.43432797749999996,1.9355840500000001,-6.68599405,0.43432797749999996,1.9355840500000001,-6.68599405
278,1715728804490,0.5692503,2.0793946,-6.9576364,0.5692503,2.0793946,-6.9576364
279,1715728804500,0.71862021,2.114281975,-7.193792,0.71862021,2.114281975,-7.193792
280,1715728804510,1.0058752,2.1571589,-7.6264887,1.0058752,2.1571589,-7.6264887
281,1715728804520,1.2460588499999998,2.087117775,-7.875627425,1.2460588499999998,2.087117775,-7.875627425
282,1715728804530,1.7234633499999998,1.894571425,-8.297338750000002,1.7234633499999998,1.894571425,-8.297338750000002
283,1715728804540,1.8760624,1.8066871,-8.367646,1.8760624,1.8066871,-8.367646
284,1715728804550,1.9319554499999998,1.780621425,-8.3790975,1.9319554499999998,1.780621425,-8.3790975
285,1715728804560,2.3254704,1.6694013,-8.394278,2.3254704,1.6694013,-8.394278
286,1715728804570,2.46797618,1.6542745,-8.354863,2.46797618,1.6542745,-8.354863
287,1715728804580,2.8121629,1.6065507,-8.248337,2.8121629,1.6065507,-8.248337
288,1715728804590,3.1582403,1.4936328,-8.036482,3.1582403,1.4936328,-8.036482
289,1715728804600,3.2379221,1.437813,-7.94870424,3.2379221,1.437813,-7.94870424
290,1715728804610,3.6226954,1.0602037,-7.3633685,3.6226954,1.0602037,-7.3633685
291,1715728804620,3.71888852,0.88209154,-7.10440282,3.71888852,0.88209154,-7.10440282
292,1715728804630,3.7429368,0.8375635,-7.0396614,3.7429368,0.8375635,-7.0396614
293,1715728804640,3.9680625999999997,0.016156486666666654,-5.9775051333333336,3.9680625999999997,0.016156486666666654,-5.9775051333333336
294,1715728804650,4.1860867,-1.5575486,-3.903126,4.1860867,-1.5575486,-3.903126
295,1715728804660,4.109388,-2.291382,-2.8083012,4.109388,-2.291382,-2.8083012
296,1715728804670,3.76642602,-2.6204154799999997,-2.17702608,3.76642602,-2.6204154799999997,-2.17702608
297,1715728804680,2.9612997,-2.9485166,-1.1427616,2.9612997,-2.9485166,-1.1427616
298,1715728804690,1.9666098,-2.8142934,-0.10745847,1.9666098,-2.8142934,-0.10745847
299,1715728804700,1.760248275,-2.738393375,0.1108539975,1.760248275,-2.738393375,0.1108539975
300,1715728804710,-0.12290479000000001,-1.668336,2.3537,-0.12290479000000001,-1.668336,2.3537
301,1715728804720,-0.4241080975,-1.35524835,2.857736225,-0.4241080975,-1.35524835,2.857736225
302,1715728804730,-1.28058,0.16245271,5.119524,-1.28058,0.16245271,5.119524
303,1715728804740,-1.3881717,0.6267745,5.8223314,-1.3881717,0.6267745,5.8223314
304,1715728804750,-1.3971199,0.8112249,6.1652664,-1.3971199,0.8112249,6.1652664
305,1715728804760,-1.4329127,1.5490265,7.5370064,-1.4329127,1.5490265,7.5370064
306,1715728804770,-1.38731944,1.71813708,8.24652524,-1.38731944,1.71813708,8.24652524
307,1715728804780,-1.2326432,1.9196051,10.673409,-1.2326432,1.9196051,10.673409
308,1715728804790,-1.25757038,1.82572874,10.861960199999999,-1.25757038,1.82572874,10.861960199999999
309,1715728804800,-1.33831736,1.5669495599999999,10.8856357,-1.33831736,1.5669495599999999,10.8856357
310,1715728804810,-1.510677,1.0229194,10.502035,-1.510677,1.0229194,10.502035
311,1715728804820,-1.510677,1.0229194,10.502035,-1.510677,1.0229194,10.502035
312,1715728804830,-1.6086812,0.12516847,9.28364,-1.6086812,0.12516847,9.28364
313,1715728804840,-1.5831148800000001,-0.0009587379999999978,9.0527968,-1.5831148800000001,-0.0009587379999999978,9.0527968
314,1715728804850,-1.5767233,-0.03249054,8.995086,-1.5767233,-0.03249054,8.995086
315,1715728804860,-1.2944285,-0.71093035,8.695747,-1.2944285,-0.71093035,8.695747
316,1715728804870,-1.2569312199999998,-0.835353134,8.651431800000001,-1.2569312199999998,-0.835353134,8.651431800000001
317,1715728804880,-1.1166626,-1.1283805,8.862993,-1.1166626,-1.1283805,8.862993
318,1715728804890,-1.0126929199999999,-1.1684345,8.909012999999998,-1.0126929199999999,-1.1684345,8.909012999999998
319,1715728804900,-0.9867005,-1.178448,8.920518,-0.9867005,-1.178448,8.920518
320,1715728804910,-0.71399295,-0.6789724,7.497592,-0.71399295,-0.6789724,7.497592
321,1715728804920,-0.6985466375,-0.661129235,7.419594675,-0.6985466375,-0.661129235,7.419594675
322,1715728804930,-0.6522077,-0.60759974,7.1856027,-0.6522077,-0.60759974,7.1856027
323,1715728804940,-0.23529012349999995,-0.5585976075,6.0242322999999995,-0.23529012349999995,-0.5585976075,6.0242322999999995
324,1715728804950,0.4489553620000001,-0.44570628999999995,3.61870052,0.4489553620000001,-0.44570628999999995,3.61870052
325,1715728804960,0.48935547,-0.17310534,1.7263929,0.48935547,-0.17310534,1.7263929
326,1715728804970,0.033322779999999996,0.11288465710000001,0.9053076374999999,0.033322779999999996,0.11288465710000001,0.9053076374999999
327,1715728804980,-0.650183652,0.499555388,-0.38671732,-0.650183652,0.499555388,-0.38671732
328,1715728804990,-0.9270457,0.7363635,-1.20974,-0.9270457,0.7363635,-1.20974
329,1715728805000,-0.9664604666666667,0.8258456666666666,-1.5608332,-0.9664604666666667,0.8258456666666666,-1.5608332
330,1715728805010,-0.98563516,1.231711,-3.1619687,-0.98563516,1.231711,-3.1619687
331,1715728805020,-0.936899365,1.266764875,-3.411140525,-0.936899365,1.266764875,-3.411140525
332,1715728805030,-0.763421196,1.15772854,-3.84885072,-0.763421196,1.15772854,-3.84885072
333,1715728805040,-0.45846283000000004,0.75873405,-4.335623,-0.45846283000000004,0.75873405,-4.335623
334,1715728805050,-0.35619751499999996,0.5984784400000001,-4.486824,-0.35619751499999996,0.5984784400000001,-4.486824
335,1715728805060,-0.075101085,0.3050649,-4.9894285,-0.075101085,0.3050649,-4.9894285
336,1715728805070,-0.0500673905,0.3151849,-5.07837795,-0.0500673905,0.3151849,-5.07837795
337,1715728805080,-0.0047936863,0.588425,-5.6572156,-0.0047936863,0.588425,-5.6572156
338,1715728805090,-0.036751594,0.9345025400000001,-6.122603,-0.036751594,0.9345025400000001,-6.122603
339,1715728805100,-0.03648527875,1.048718755,-6.2733045,-0.03648527875,1.048718755,-6.2733045
340,1715728805110,0.0047936863,1.7130771,-7.1364675,0.0047936863,1.7130771,-7.1364675
341,1715728805120,0.019494324520000002,1.7909745000000001,-7.234258800000001,0.019494324520000002,1.7909745000000001,-7.234258800000001
342,1715728805130,0.15393059,2.1305273,-7.790406,0.15393059,2.1305273,-7.790406
343,1715728805140,0.15393059,2.1305273,-7.790406,0.15393059,2.1305273,-7.790406
344,1715728805150,0.32437277,2.2050958,-8.12916,0.32437277,2.2050958,-8.12916
345,1715728805160,0.32437277,2.2050958,-8.12916,0.32437277,2.2050958,-8.12916
346,1715728805170,0.32437277,2.2050958,-8.12916,0.32437277,2.2050958,-8.12916
347,1715728805180,0.32437277,2.2050958,-8.12916,0.32437277,2.2050958,-8.12916
348,1715728805190,0.32437277,2.2050958,-8.12916,0.32437277,2.2050958,-8.12916
349,1715728805200,0.32437277,2.2050958,-8.12916,0.32437277,2.2050958,-8.12916
350,1715728805210,0.32437277,2.2050958,-8.12916,0.32437277,2.2050958,-8.12916
351,1715728805220,0.32437277,2.2050958,-8.12916,0.32437277,2.2050958,-8.12916
352,1715728805230,1.04742045,2.23811885,-8.6051335,1.04742045,2.23811885,-8.6051335
353,1715728805240,2.9758140666666666,1.18377424,-6.880892800000001,2.9758140666666666,1.18377424,-6.880892800000001
354,1715728805250,3.3859938400000003,0.22485053600000002,-5.53260642,3.3859938400000003,0.22485053600000002,-5.53260642
355,1715728805260,3.5673015000000006,-0.9057404400000001,-4.0863514,3.5673015000000006,-0.9057404400000001,-4.0863514
356,1715728805270,3.60501192,-1.031015436,-3.91321948,3.60501192,-1.031015436,-3.91321948
357,1715728805280,3.4778194,-1.3148017,-3.7828844,3.4778194,-1.3148017,-3.7828844
358,1715728805290,2.8877966,-1.5096117,-3.6731622,2.8877966,-1.5096117,-3.6731622
359,1715728805300,2.68289312,-1.57587112,-3.5557968000000004,2.68289312,-1.57587112,-3.5557968000000004
360,1715728805310,0.65447134,-2.2082915,-2.0799272,0.65447134,-2.2082915,-2.0799272
361,1715728805320,0.052570762399999985,-2.35761484,-1.135917268,0.052570762399999985,-2.35761484,-1.135917268
362,1715728805330,-0.8173235,-2.5735438,0.75726926,-0.8173235,-2.5735438,0.75726926
363,1715728805340,-0.87484777,-2.44478,2.5953817,-0.87484777,-2.44478,2.5953817
364,1715728805350,-0.807336688,-2.3404108,2.99434956,-0.807336688,-2.3404108,2.99434956
365,1715728805360,-0.12077426,-1.3297154,6.118475,-0.12077426,-1.3297154,6.118475
366,1715728805370,0.153464545,-0.8674575250000001,7.098784,0.153464545,-0.8674575250000001,7.098784
367,1715728805380,0.8078692999999999,0.67258084,10.220805,0.8078692999999999,0.67258084,10.220805
368,1715728805390,0.8259788,1.3231906,11.537205,0.8259788,1.3231906,11.537205
369,1715728805400,0.77271562,1.50322015,11.870566,0.77271562,1.50322015,11.870566
370,1715728805410,0.3062633,1.9888473,12.539351000000002,0.3062633,1.9888473,12.539351000000002
371,1715728805420,0.22210747166666667,1.9529834,12.486088,0.22210747166666667,1.9529834,12.486088
372,1715728805430,-0.2976080175,1.51067705,11.840672,-0.2976080175,1.51067705,11.840672
373,1715728805440,-0.9238499,0.7629950600000001,10.736258999999999,-0.9238499,0.7629950600000001,10.736258999999999
374,1715728805450,-0.9238499,0.7629950600000001,10.736258999999999,-0.9238499,0.7629950600000001,10.736258999999999
375,1715728805460,-1.9351579600000002,-0.268552964,8.7699162,-1.9351579600000002,-0.268552964,8.7699162
376,1715728805470,-2.1322317600000003,-0.35497248,8.3801366,-2.1322317600000003,-0.35497248,8.3801366
377,1715728805480,-2.318946,-0.107058994,8.185619,-2.318946,-0.107058994,8.185619
378,1715728805490,-2.3413162,0.11238532,8.425303,-2.3413162,0.11238532,8.425303
379,1715728805500,-2.32405896,0.11728553,8.488127,-2.32405896,0.11728553,8.488127
380,1715728805510,-1.7608808,-0.17630114,9.138763,-1.7608808,-0.17630114,9.138763
381,1715728805520,-1.7608808,-0.17630114,9.138763,-1.7608808,-0.17630114,9.138763
382,1715728805530,-0.49894285,-0.8313051,8.211185,-0.49894285,-0.8313051,8.211185
383,1715728805540,-0.15273218,-0.95900357,7.5615077,-0.15273218,-0.95900357,7.5615077
384,1715728805550,0.73330086,-1.0303763,5.0524125,0.73330086,-1.0303763,5.0524125
385,1715728805560,1.0303763,-0.883503,3.4325457,1.0303763,-0.883503,3.4325457
386,1715728805570,0.98333825,-0.6438187125,2.6329988249999996,0.98333825,-0.6438187125,2.6329988249999996
387,1715728805580,0.41065913,0.26991117,1.0373005,0.41065913,0.26991117,1.0373005
388,1715728805590,0.1781653475,0.5048018175,0.753773905,0.1781653475,0.5048018175,0.753773905
389,1715728805600,-0.7086666,1.1166626,-0.1564606,-0.7086666,1.1166626,-0.1564606
390,1715728805610,-0.9611341400000001,1.231711,-0.6570014,-0.9611341400000001,1.231711,-0.6570014
391,1715728805620,-0.96113414,1.231711,-0.6570014,-0.96113414,1.231711,-0.6570014
392,1715728805630,-0.9611341400000001,1.231711,-0.6570014,-0.9611341400000001,1.231711,-0.6570014
393,1715728805640,-0.96113414,1.231711,-0.6570014,-0.96113414,1.231711,-0.6570014
394,1715728805650,-0.96113414,1.231711,-0.6570014,-0.96113414,1.231711,-0.6570014
395,1715728805660,-0.9611341400000001,1.231711,-0.6570014,-0.9611341400000001,1.231711,-0.6570014
396,1715728805670,-0.96113414,1.231711,-0.6570014,-0.96113414,1.231711,-0.6570014
397,1715728805680,-0.96113414,1.231711,-0.6570014,-0.96113414,1.231711,-0.6570014
398,1715728805690,-0.9611341400000001,1.231711,-0.6570014,-0.9611341400000001,1.231711,-0.6570014
399,1715728805700,-0.96113414,1.231711,-0.6570014,-0.96113414,1.231711,-0.6570014
400,1715728805710,-0.9611341400000001,1.231711,-0.6570014,-0.9611341400000001,1.231711,-0.6570014
401,1715728805720,-0.96113414,1.231711,-0.6570014,-0.96113414,1.231711,-0.6570014
402,1715728805730,-0.96113414,1.231711,-0.6570014,-0.96113414,1.231711,-0.6570014
403,1715728805740,-0.96113414,1.231711,-0.6570014,-0.96113414,1.231711,-0.6570014
404,1715728805750,-0.8237594833333333,1.2692616333333333,-1.9702051,-0.8237594833333333,1.2692616333333333,-1.9702051
405,1715728805760,-0.19685184,2.0992795666666666,-6.5011263999999995,-0.19685184,2.0992795666666666,-6.5011263999999995
406,1715728805770,0.46272388,3.4510548,-9.140894,0.46272388,3.4510548,-9.140894
407,1715728805780,1.02276408,3.658781133333333,-9.485041,1.02276408,3.658781133333333,-9.485041
408,1715728805790,1.2626038,3.7003264,-9.591368,1.2626038,3.7003264,-9.591368
409,1715728805800,1.6983632166666667,3.5645052333333336,-9.595806333333334,1.6983632166666667,3.5645052333333336,-9.595806333333334
410,1715728805810,2.1507673,3.3606405,-9.4518175,2.1507673,3.3606405,-9.4518175
411,1715728805820,2.2564415,3.2920375,-9.3751189,2.2564415,3.2920375,-9.3751189
412,1715728805830,2.7574349600000003,2.8815914,-8.8306622,2.7574349600000003,2.8815914,-8.8306622
413,1715728805840,2.8430555,2.804706,-8.72331,2.8430555,2.804706,-8.72331
414,1715728805850,3.45739308,1.91286726,-7.381212,3.45739308,1.91286726,-7.381212
415,1715728805860,3.6202098,1.6530673,-7.019732533333333,3.6202098,1.6530673,-7.019732533333333
416,1715728805870,3.8383447000000004,1.29129935,-6.672212350000001,3.8383447000000004,1.29129935,-6.672212350000001
417,1715728805880,4.9911594,-0.7386272000000002,-5.542167,4.9911594,-0.7386272000000002,-5.542167
418,1715728805890,5.1349701,-1.02215375,-5.603686275,5.1349701,-1.02215375,-5.603686275
419,1715728805900,5.0678587,-1.8877803,-5.863877,5.0678587,-1.8877803,-5.863877
420,1715728805910,4.899547,-2.0144136,-5.85642,4.899547,-2.0144136,-5.85642
421,1715728805920,4.03500556,-2.31857298,-5.5963626,4.03500556,-2.31857298,-5.5963626
422,1715728805930,0.75141037,-3.039064,-3.8276255,0.75141037,-3.039064,-3.8276255
423,1715728805940,0.380778496,-3.08692102,-3.4966214,0.380778496,-3.08692102,-3.4966214
424,1715728805950,-0.9707215000000001,-3.2807457,-1.1630015,-0.9707215000000001,-3.2807457,-1.1630015
425,1715728805960,-1.0197237,-3.1795455999999995,0.6986798,-1.0197237,-3.1795455999999995,0.6986798
426,1715728805970,-0.5965476933333332,-2.899114966666667,2.2393616666666665,-0.5965476933333332,-2.899114966666667,2.2393616666666665
427,1715728805980,0.24980432000000002,-2.3382537,5.3207254,0.24980432000000002,-2.3382537,5.3207254
428,1715728805990,0.7077345,-1.971803,6.5305986,0.7077345,-1.971803,6.5305986
429,1715728806000,1.11924586,-1.5406908,7.647154760000001,1.11924586,-1.5406908,7.647154760000001
430,1715728806010,2.3371885,0.14966954,11.660775,2.3371885,0.14966954,11.660775
431,1715728806020,2.4087742,0.470447066,12.340679399999999,2.4087742,0.470447066,12.340679399999999
432,1715728806030,2.352102,1.2498206,13.838707,2.352102,1.2498206,13.838707
433,1715728806040,1.933799652,1.4864423,13.988003799999998,1.933799652,1.4864423,13.988003799999998
434,1715728806050,0.89095986,1.7897761000000003,13.861077,0.89095986,1.7897761000000003,13.861077
435,1715728806060,0.18056218,1.4829801,13.159201999999999,0.18056218,1.4829801,13.159201999999999
436,1715728806070,-0.27310696,1.03730045,12.401466500000002,-0.27310696,1.03730045,12.401466500000002
437,1715728806080,-1.3998896,-0.23702116,10.014277,-1.3998896,-0.23702116,10.014277
438,1715728806090,-1.56600415,-0.40792939500000003,9.5530845,-1.56600415,-0.40792939500000003,9.5530845
439,1715728806100,-1.7321187,-0.57883763,9.091892,-1.7321187,-0.57883763,9.091892
440,1715728806110,-2.112417766666667,-0.04238860666666666,8.020947,-2.112417766666667,-0.04238860666666666,8.020947
441,1715728806120,-2.137984,0.16777903000000002,7.950329,-2.137984,0.16777903000000002,7.950329
442,1715728806130,-2.137984,0.16777903,7.950328999999999,-2.137984,0.16777903,7.950328999999999
443,1715728806140,-2.137984,0.16777903,7.950329,-2.137984,0.16777903,7.950329
444,1715728806150,-2.159822,0.951080715,8.473773,-2.159822,0.951080715,8.473773
445,1715728806160,-0.739559284,0.361284164,8.4472214,-0.739559284,0.361284164,8.4472214
446,1715728806170,-0.2780071846,-0.31411960800000005,7.371358260000001,-0.2780071846,-0.31411960800000005,7.371358260000001
447,1715728806180,0.5916208,-1.5277212,5.107806,0.5916208,-1.5277212,5.107806
448,1715728806190,0.8973514399999999,-1.821734,4.2322927,0.8973514399999999,-1.821734,4.2322927
449,1715728806200,1.3531511,-1.6417044,2.061818,1.3531511,-1.6417044,2.061818
450,1715728806210,1.0985532,-0.7407577,1.0426267,1.0985532,-0.7407577,1.0426267
451,1715728806220,0.6290914400000001,0.11464901999999999,0.473562924,0.6290914400000001,0.11464901999999999,0.473562924
452,1715728806230,-0.16764587,1.2530164,-0.11917637,-0.16764587,1.2530164,-0.11917637
453,1715728806240,-0.410525974,1.5145385599999999,-0.26234780999999996,-0.410525974,1.5145385599999999,-0.26234780999999996
454,1715728806250,-0.91599352,1.9275147000000001,-0.760784654,-0.91599352,1.9275147000000001,-0.760784654
455,1715728806260,-1.0729868,1.9963039999999999,-1.3311801,-1.0729868,1.9963039999999999,-1.3311801
456,1715728806270,-1.0455562600000001,1.94520465,-1.4238580250000001,-1.0455562600000001,1.94520465,-1.4238580250000001
457,1715728806280,-0.6022734,1.1571426,-2.3354573,-0.6022734,1.1571426,-2.3354573
458,1715728806290,-0.43396178,0.85886884,-2.584729,-0.43396178,0.85886884,-2.584729
459,1715728806300,-0.05805687,0.17097482,-3.3025837000000005,-0.05805687,0.17097482,-3.3025837000000005
460,1715728806310,0.05273055,0.05166528699999999,-3.7296211999999995,0.05273055,0.05166528699999999,-3.7296211999999995
461,1715728806320,0.058056867,0.10599372850000001,-3.8749630999999995,0.058056867,0.10599372850000001,-3.8749630999999995
462,1715728806330,-0.022903169,0.6672545,-4.529368,-0.022903169,0.6672545,-4.529368
463,1715728806340,-0.063383183,0.8617538800000001,-4.675664,-0.063383183,0.8617538800000001,-4.675664
464,1715728806350,-0.277368,1.8823209,-5.493165,-0.277368,1.8823209,-5.493165
465,1715728806360,-0.290151176,1.98288178,-5.614179,-0.290151176,1.98288178,-5.614179
466,1715728806370,-0.29334697,2.008022,-5.6444325,-0.29334697,2.008022,-5.6444325
467,1715728806380,-0.050600022,2.7897923,-7.344194,-0.050600022,2.7897923,-7.344194
468,1715728806390,0.018855166799999996,2.8400194599999997,-7.510747839999999,0.018855166799999996,2.8400194599999997,-7.510747839999999
469,1715728806400,0.47976813,3.0485182,-8.284555,0.47976813,3.0485182,-8.284555
470,1715728806410,0.6075997575000001,3.0956563,-8.409190749999999,0.6075997575000001,3.0956563,-8.409190749999999
471,1715728806420,0.6502103,3.111369,-8.450736,0.6502103,3.111369,-8.450736
472,1715728806430,1.66878876,3.2811718,-8.5919905,1.66878876,3.2811718,-8.5919905
473,1715728806440,2.1450082,3.24053195,-8.473906,2.1450082,3.24053195,-8.473906
474,1715728806450,2.561959,3.1582403,-8.332492,2.561959,3.1582403,-8.332492
475,1715728806460,2.9751482,3.0453224,-8.146204,2.9751482,3.0453224,-8.146204
476,1715728806470,3.1195446799999997,2.99376364,-8.06524412,3.1195446799999997,2.99376364,-8.06524412
477,1715728806480,3.6875431999999995,2.7706175,-7.7190337,3.6875431999999995,2.7706175,-7.7190337
478,1715728806490,3.8281581,2.69871225,-7.63494435,3.8281581,2.69871225,-7.63494435
479,1715728806500,4.5737095,1.9856514,-7.1535115,4.5737095,1.9856514,-7.1535115
480,1715728806510,4.65040854,1.8535586800000001,-7.0794759,4.65040854,1.8535586800000001,-7.0794759
481,1715728806520,4.785929975,1.5170352500000002,-6.903873825,4.785929975,1.5170352500000002,-6.903873825
482,1715728806530,5.13497,0.6065345,-6.432594300000001,5.13497,0.6065345,-6.432594300000001
483,1715728806540,5.13497,0.6065345,-6.4325943,5.13497,0.6065345,-6.4325943
484,1715728806550,5.13497,0.6065345,-6.4325943,5.13497,0.6065345,-6.4325943
485,1715728806560,5.13497,0.6065345,-6.4325943,5.13497,0.6065345,-6.4325943
486,1715728806570,5.13497,0.6065345,-6.4325943,5.13497,0.6065345,-6.4325943
487,1715728806580,5.13497,0.6065345,-6.4325943,5.13497,0.6065345,-6.4325943
488,1715728806590,5.13497,0.6065345,-6.4325943,5.13497,0.6065345,-6.4325943
489,1715728806600,5.13497,0.6065345,-6.4325943,5.13497,0.6065345,-6.4325943
490,1715728806610,5.13497,0.6065345,-6.4325943,5.13497,0.6065345,-6.4325943
491,1715728806620,5.13497,0.6065345,-6.4325943,5.13497,0.6065345,-6.4325943
492,1715728806630,5.13497,0.6065345,-6.4325943,5.13497,0.6065345,-6.4325943
493,1715728806640,5.13497,0.6065345,-6.4325943,5.13497,0.6065345,-6.4325943
494,1715728806650,5.13497,0.6065345,-6.4325943,5.13497,0.6065345,-6.4325943
495,1715728806660,5.13497,0.6065345,-6.4325943,5.13497,0.6065345,-6.4325943
496,1715728806670,5.13497,0.6065345,-6.4325943,5.13497,0.6065345,-6.4325943
497,1715728806680,5.13497,0.6065345,-6.4325943,5.13497,0.6065345,-6.4325943
498,1715728806690,5.13497,0.6065345,-6.4325943,5.13497,0.6065345,-6.4325943
499,1715728806700,5.13497,0.6065345,-6.432594300000001,5.13497,0.6065345,-6.432594300000001
500,1715728806710,5.13497,0.6065345,-6.4325943,5.13497,0.6065345,-6.4325943
501,1715728806720,5.181542,0.376204525,-6.349503725,5.181542,0.376204525,-6.349503725
502,1715728806730,3.2924635,-3.9144444,-4.8723826,3.2924635,-3.9144444,-4.8723826
503,1715728806740,1.2939625000000001,-2.8084345,2.2312612,1.2939625000000001,-2.8084345,2.2312612
504,1715728806750,-1.541037075,2.3961775000000003,13.7598105,-1.541037075,2.3961775000000003,13.7598105
505,1715728806760,-3.0512879600000002,0.09763141,8.390549199999999,-3.0512879600000002,0.09763141,8.390549199999999
506,1715728806770,-2.9522894333333336,0.65584732,8.522908333333334,-2.9522894333333336,0.65584732,8.522908333333334
507,1715728806780,-2.9494488000000003,1.8301229999999997,9.294292,-2.9494488000000003,1.8301229999999997,9.294292
508,1715728806790,-3.05810565,1.91401245,9.29109625,-3.05810565,1.91401245,9.29109625
509,1715728806800,-3.265832,1.3199948,8.517848,-3.265832,1.3199948,8.517848
510,1715728806810,-3.16210202,0.952425603,7.8397012,-3.16210202,0.952425603,7.8397012
511,1715728806820,-2.7038610666666667,0.06764424133333334,5.520240533333333,-2.7038610666666667,0.06764424133333334,5.520240533333333
512,1715728806830,-2.5469122,0.095341094,4.7988796,-2.5469122,0.095341094,4.7988796
513,1715728806840,-2.4737640666666665,0.4453689646666666,4.054082733333334,-2.4737640666666665,0.4453689646666666,4.054082733333334
514,1715728806850,-2.43719,0.6203829,3.6816843,-2.43719,0.6203829,3.6816843
515,1715728806860,-2.43719,0.6203829,3.6816843,-2.43719,0.6203829,3.6816843
516,1715728806870,-2.43719,0.6203829,3.6816843,-2.43719,0.6203829,3.6816843
517,1715728806880,-2.43719,0.6203829,3.6816843,-2.43719,0.6203829,3.6816843
518,1715728806890,-2.43719,0.6203829,3.6816842999999997,-2.43719,0.6203829,3.6816842999999997
519,1715728806900,-2.7098976500000003,1.70076,2.2327927,-2.7098976500000003,1.70076,2.2327927
520,1715728806910,-0.04420844,0.15180007,-0.9882983600000002,-0.04420844,0.15180007,-0.9882983600000002
521,1715728806920,0.8962862000000001,0.705604,-2.5048342,0.8962862000000001,0.705604,-2.5048342
522,1715728806930,1.0239847,1.2487553,-3.0565076,1.0239847,1.2487553,-3.0565076
523,1715728806940,0.9894302,1.43138145,-3.19758845,0.9894302,1.43138145,-3.19758845
524,1715728806950,0.62144816,2.048502,-3.7402737,0.62144816,2.048502,-3.7402737
525,1715728806960,0.39724346499999996,2.217579175,-4.0783285750000005,0.39724346499999996,2.217579175,-4.0783285750000005
526,1715728806970,0.1944106,2.3956447,-4.5879574,0.1944106,2.3956447,-4.5879574
527,1715728806980,0.28389275,2.5778048,-5.176915,0.28389275,2.5778048,-5.176915
528,1715728806990,0.32583751000000005,2.61253244,-5.26850106,0.32583751000000005,2.61253244,-5.26850106
529,1715728807000,0.49361655,2.751443,-5.634845299999999,0.49361655,2.751443,-5.634845299999999
530,1715728807010,0.49361654999999993,2.751443,-5.6348453,0.49361654999999993,2.751443,-5.6348453
531,1715728807020,0.49361654999999993,2.751443,-5.6348453,0.49361654999999993,2.751443,-5.6348453
532,1715728807030,1.679288225,3.225884625,-6.76858525,1.679288225,3.225884625,-6.76858525
533,1715728807040,2.6258304999999997,3.4057367,-7.482633833333334,2.6258304999999997,3.4057367,-7.482633833333334
534,1715728807050,3.3755539999999997,3.1635666,-8.0141115,3.3755539999999997,3.1635666,-8.0141115
535,1715728807060,3.5332131,2.9984508,-8.130225,3.5332131,2.9984508,-8.130225
536,1715728807070,3.8260276000000006,2.4542344,-8.2302265,3.8260276000000006,2.4542344,-8.2302265
537,1715728807080,3.8473328800000006,2.39031856,-8.2080693,3.8473328800000006,2.39031856,-8.2080693
538,1715728807090,4.00816106,2.1010728,-8.0538724,4.00816106,2.1010728,-8.0538724
539,1715728807100,4.4032674,1.5255906999999997,-7.680684,4.4032674,1.5255906999999997,-7.680684
540,1715728807110,4.527903225,1.4361085,-7.551354375,4.527903225,1.4361085,-7.551354375
541,1715728807120,5.1807766,0.96539515,-6.882003,5.1807766,0.96539515,-6.882003
542,1715728807130,5.662142800000001,0.5362271,-6.402767,5.662142800000001,0.5362271,-6.402767
543,1715728807140,5.6621428,0.5362271,-6.402767,5.6621428,0.5362271,-6.402767
544,1715728807150,5.921268266666666,0.2756813533333333,-6.164858133333333,5.921268266666666,0.2756813533333333,-6.164858133333333
545,1715728807160,6.050831,0.14540848,-6.0459037,6.050831,0.14540848,-6.0459037
546,1715728807170,6.050831,0.14540848,-6.0459037,6.050831,0.14540848,-6.0459037
547,1715728807180,6.050831,0.14540848,-6.0459037,6.050831,0.14540848,-6.0459037
548,1715728807190,6.050831,0.14540848,-6.0459037,6.050831,0.14540848,-6.0459037
549,1715728807200,6.050831,0.14540848,-6.0459037,6.050831,0.14540848,-6.0459037
550,1715728807210,6.050831,0.14540848,-6.0459037,6.050831,0.14540848,-6.0459037
551,1715728807220,6.366814533333333,-1.0903860733333335,-5.585177266666666,6.366814533333333,-1.0903860733333335,-5.585177266666666
552,1715728807230,4.7387586,-2.6347965,-5.14868575,4.7387586,-2.6347965,-5.14868575
553,1715728807240,-1.112568,-1.6864455250000001,-0.686895305,-1.112568,-1.6864455250000001,-0.686895305
554,1715728807250,-1.2603401,-0.3838943799999999,3.8531919,-1.2603401,-0.3838943799999999,3.8531919
555,1715728807260,-1.2237483,-0.315344668,4.0968709400000005,-1.2237483,-0.315344668,4.0968709400000005
556,1715728807270,-0.38602492,0.91852355,8.588156,-0.38602492,0.91852355,8.588156
557,1715728807280,-0.103730045,1.4808496,10.483925,-0.103730045,1.4808496,10.483925
558,1715728807290,-0.07891828000000001,1.5674910333333332,10.841765,-0.07891828000000001,1.5674910333333332,10.841765
559,1715728807300,-0.10586057600000001,1.8940388,12.461587,-0.10586057600000001,1.8940388,12.461587
560,1715728807310,-0.133557432,1.8819657333333335,12.477211333333335,-0.133557432,1.8819657333333335,12.477211333333335
561,1715728807320,-0.69375294,1.2178626,11.383807,-0.69375294,1.2178626,11.383807
562,1715728807330,-0.8240702266666666,0.9924262,11.056149666666665,-0.8240702266666666,0.9924262,11.056149666666665
563,1715728807340,-1.1455845999999998,0.36221626799999995,10.120511,-1.1455845999999998,0.36221626799999995,10.120511
564,1715728807350,-1.1900326,-0.40306914000000005,8.9088,-1.1900326,-0.40306914000000005,8.9088
565,1715728807360,-1.1900326,-0.40306914000000005,8.9088,-1.1900326,-0.40306914000000005,8.9088
566,1715728807370,-1.1900326,-0.40306914,8.9088,-1.1900326,-0.40306914,8.9088
567,1715728807380,-1.1900326,-0.40306914000000005,8.9088,-1.1900326,-0.40306914000000005,8.9088
568,1715728807390,-1.1900326,-0.40306914,8.9088,-1.1900326,-0.40306914,8.9088
569,1715728807400,-1.1900326,-0.40306914000000005,8.9088,-1.1900326,-0.40306914000000005,8.9088
570,1715728807410,-1.1900326,-0.40306914,8.9088,-1.1900326,-0.40306914,8.9088
571,1715728807420,-1.1900326,-0.40306914,8.9088,-1.1900326,-0.40306914,8.9088
572,1715728807430,-1.0104913333333334,0.3601478866666667,9.046884666666665,-1.0104913333333334,0.3601478866666667,9.046884666666665
573,1715728807440,-1.3615401,0.8386732,6.660915899999999,-1.3615401,0.8386732,6.660915899999999
574,1715728807450,-0.9506679200000001,-0.056139395999999994,3.72139194,-0.9506679200000001,-0.056139395999999994,3.72139194
575,1715728807460,-0.80267615,-0.04554002125,2.9527444000000003,-0.80267615,-0.04554002125,2.9527444000000003
576,1715728807470,-0.9483509700000001,0.5181176,1.7764603,-0.9483509700000001,0.5181176,1.7764603
577,1715728807480,-1.0069405,0.68429875,1.2482227,-1.0069405,0.68429875,1.2482227
578,1715728807490,-0.8878706279999999,0.6276267179999999,0.9775125659999999,-0.8878706279999999,0.6276267179999999,0.9775125659999999
579,1715728807500,-0.5202481,0.45526704,0.25672853,-0.5202481,0.45526704,0.25672853
580,1715728807510,-0.36152384,0.41265651999999997,-0.03834949,-0.36152384,0.41265651999999997,-0.03834949
581,1715728807520,-0.36152384,0.41265651999999997,-0.03834949,-0.36152384,0.41265651999999997,-0.03834949
582,1715728807530,-0.36152384,0.41265652,-0.03834949,-0.36152384,0.41265652,-0.03834949
583,1715728807540,-0.2702107743,0.45633231500000004,-0.4629902175,-0.2702107743,0.45633231500000004,-0.4629902175
584,1715728807550,0.0037284228,0.5873597,-1.7369124000000002,0.0037284228,0.5873597,-1.7369124000000002
585,1715728807560,0.147006388,0.310657505,-3.0459216500000004,0.147006388,0.310657505,-3.0459216500000004
586,1715728807570,0.38722333,-0.20719378,-3.8775597,0.38722333,-0.20719378,-3.8775597
587,1715728807580,0.5266397,-0.34141698,-4.1694417,0.5266397,-0.34141698,-4.1694417
588,1715728807590,0.5266397,-0.34141698,-4.1694417,0.5266397,-0.34141698,-4.1694417
589,1715728807600,0.633166075,-0.22184115,-4.44524525,0.633166075,-0.22184115,-4.44524525
590,1715728807610,0.80201035,0.23269352,-5.0938246,0.80201035,0.23269352,-5.0938246
591,1715728807620,0.7663240400000001,1.1092057,-6.0108833,0.7663240400000001,1.1092057,-6.0108833
592,1715728807630,0.7077345,1.7919066,-6.724343999999999,0.7077345,1.7919066,-6.724343999999999
593,1715728807640,0.7058703000000001,1.8600501999999999,-6.83083695,0.7058703000000001,1.8600501999999999,-6.83083695
594,1715728807650,0.77058506,2.3052306,-7.7563176,0.77058506,2.3052306,-7.7563176
595,1715728807660,0.8146869800000001,2.3212095600000002,-7.880314439999999,0.8146869800000001,2.3212095600000002,-7.880314439999999
596,1715728807670,0.84408826,2.3318622,-7.962979,0.84408826,2.3318622,-7.962979
597,1715728807680,0.84408826,2.3318622,-7.962979,0.84408826,2.3318622,-7.962979
598,1715728807690,0.84408826,2.3318622,-7.962979,0.84408826,2.3318622,-7.962979
599,1715728807700,0.84408826,2.3318622,-7.962979,0.84408826,2.3318622,-7.962979
600,1715728807710,0.84408826,2.3318622,-7.962979,0.84408826,2.3318622,-7.962979
601,1715728807720,1.29083323,2.2498368,-8.20153125,1.29083323,2.2498368,-8.20153125
602,1715728807730,2.5586746,2.140824766666667,-7.520273,2.5586746,2.140824766666667,-7.520273
603,1715728807740,2.81919364,2.17484214,-7.0025105,2.81919364,2.17484214,-7.0025105
604,1715728807750,3.0262809,2.129462,-6.0640135,3.0262809,2.129462,-6.0640135
605,1715728807760,3.03032892,2.117318,-5.9918152,3.03032892,2.117318,-5.9918152
606,1715728807770,2.982605,1.8056218999999998,-4.4622564,2.982605,1.8056218999999998,-4.4622564
607,1715728807780,2.9144282,1.648096,-3.7946022,2.9144282,1.648096,-3.7946022
608,1715728807790,2.8865183,1.5782147,-3.5926815,2.8865183,1.5782147,-3.5926815
609,1715728807800,2.6374595,1.2104058,-2.415352,2.6374595,1.2104058,-2.415352
610,1715728807810,2.556865775,1.251052275,-2.341049875,2.556865775,1.251052275,-2.341049875
611,1715728807820,2.5300012,1.2646011,-2.3162825,2.5300012,1.2646011,-2.3162825
612,1715728807830,2.5300012,1.2646011,-2.3162825,2.5300012,1.2646011,-2.3162825
613,1715728807840,2.5300012,1.2646011,-2.3162825,2.5300012,1.2646011,-2.3162825
614,1715728807850,0.6768419,1.4038399666666665,-1.5612326,0.6768419,1.4038399666666665,-1.5612326
615,1715728807860,-0.5735113,1.1251848,-0.8615320000000001,-0.5735113,1.1251848,-0.8615320000000001
616,1715728807870,-2.0063707600000003,0.029454535999999986,0.9653685339999999,-2.0063707600000003,0.029454535999999986,0.9653685339999999
617,1715728807880,-2.30216794,-0.279418648,1.4980536199999999,-2.30216794,-0.279418648,1.4980536199999999
618,1715728807890,-2.29212786,-0.9060599759999999,2.82928692,-2.29212786,-0.9060599759999999,2.82928692
619,1715728807900,-1.9941735,-2.0761988,5.424056,-1.9941735,-2.0761988,5.424056
620,1715728807910,-1.473179732,-2.38360734,6.408546080000001,-1.473179732,-2.38360734,6.408546080000001
621,1715728807920,-0.44567966,-2.8313377,8.107855,-0.44567966,-2.8313377,8.107855
622,1715728807930,-0.1372858488,-2.8884357,8.505731,-0.1372858488,-2.8884357,8.505731
623,1715728807940,0.30067066239999996,-2.9044146,9.0243808,0.30067066239999996,-2.9044146,9.0243808
624,1715728807950,1.1166626,-2.7812703,10.049431,1.1166626,-2.7812703,10.049431
625,1715728807960,1.138394,-2.73013764,10.1375548,1.138394,-2.73013764,10.1375548
626,1715728807970,0.9591366999999998,-2.6853964,10.189913,0.9591366999999998,-2.6853964,10.189913
627,1715728807980,0.9591367,-2.6853964,10.189913,0.9591367,-2.6853964,10.189913
628,1715728807990,0.9591366999999998,-2.6853964,10.189913,0.9591366999999998,-2.6853964,10.189913
629,1715728808000,0.9591367,-2.6853964,10.189913,0.9591367,-2.6853964,10.189913
630,1715728808010,0.9591366999999998,-2.6853964,10.189913,0.9591366999999998,-2.6853964,10.189913
631,1715728808020,0.9591366999999998,-2.6853964,10.189913,0.9591366999999998,-2.6853964,10.189913
632,1715728808030,0.54301815,-2.5547686,10.188936,0.54301815,-2.5547686,10.188936
633,1715728808040,0.036041423333333336,-0.9395625500000001,10.319164666666667,0.036041423333333336,-0.9395625500000001,10.319164666666667
634,1715728808050,-0.28485149,1.38798527,7.840526800000001,-0.28485149,1.38798527,7.840526800000001
635,1715728808060,-0.41649144,1.60761602,6.8351578,-0.41649144,1.60761602,6.8351578
636,1715728808070,-0.8016441599999999,1.665939125,4.093908175,-0.8016441599999999,1.665939125,4.093908175
637,1715728808080,-1.0783131,1.5266559,2.7690196,-1.0783131,1.5266559,2.7690196
638,1715728808090,-1.295294,1.529319075,2.496645025,-1.295294,1.529319075,2.496645025
639,1715728808100,-2.626807,2.016544,1.4996248,-2.626807,2.016544,1.4996248
640,1715728808110,-2.834289233333333,2.12236025,1.3025954666666666,-2.834289233333333,2.12236025,1.3025954666666666
641,1715728808120,-3.0506487,2.177399,0.9532778,-3.0506487,2.177399,0.9532778
642,1715728808130,-3.0506487,2.177399,0.9532778000000001,-3.0506487,2.177399,0.9532778000000001
643,1715728808140,-3.0506487,2.177399,0.9532778000000001,-3.0506487,2.177399,0.9532778000000001
644,1715728808150,-3.0506487,2.177399,0.9532778000000001,-3.0506487,2.177399,0.9532778000000001
645,1715728808160,-1.0180924442500001,0.5391565575,-0.65360584,-1.0180924442500001,0.5391565575,-0.65360584
646,1715728808170,0.65979767,-0.18375798,-2.2960427,0.65979767,-0.18375798,-2.2960427
647,1715728808180,0.67471135,-0.13795164,-2.411091,0.67471135,-0.13795164,-2.411091
648,1715728808190,0.67471135,-0.13795164,-2.411091,0.67471135,-0.13795164,-2.411091
649,1715728808200,0.17417060680000002,0.56925026,-3.28436764,0.17417060680000002,0.56925026,-3.28436764
650,1715728808210,0.03891541325,0.5735113125,-3.549558375,0.03891541325,0.5735113125,-3.549558375
651,1715728808220,-0.09840372999999998,0.42650494,-4.004326,-0.09840372999999998,0.42650494,-4.004326
652,1715728808230,-0.087431514,0.302934348,-4.190108159999999,-0.087431514,0.302934348,-4.190108159999999
653,1715728808240,0.17417059999999998,-0.007989477,-5.1641316,0.17417059999999998,-0.007989477,-5.1641316
654,1715728808250,0.27430537,0.13582112,-5.597561,0.27430537,0.13582112,-5.597561
655,1715728808260,0.297954232,0.32365372400000003,-5.82893612,0.297954232,0.32365372400000003,-5.82893612
656,1715728808270,0.25726116,1.1763173,-6.49438,0.25726116,1.1763173,-6.49438
657,1715728808280,0.25726116,1.1763173,-6.49438,0.25726116,1.1763173,-6.49438
658,1715728808290,0.25726116,1.1763173,-6.49438,0.25726116,1.1763173,-6.49438
659,1715728808300,0.25726116,1.1763173,-6.49438,0.25726116,1.1763173,-6.49438
660,1715728808310,0.25726116,1.1763173,-6.49438,0.25726116,1.1763173,-6.49438
661,1715728808320,0.25726116,1.1763173,-6.49438,0.25726116,1.1763173,-6.49438
662,1715728808330,0.25726116,1.1763173,-6.49438,0.25726116,1.1763173,-6.49438
663,1715728808340,0.19334534333333334,1.8550234666666665,-6.916090966666666,0.19334534333333334,1.8550234666666665,-6.916090966666666
664,1715728808350,0.51705235,2.574609,-8.056722,0.51705235,2.574609,-8.056722
665,1715728808360,1.74863028,1.98820816,-8.3763814,1.74863028,1.98820816,-8.3763814
666,1715728808370,2.1422453,1.8663420000000002,-8.337818,2.1422453,1.8663420000000002,-8.337818
667,1715728808380,2.3062959,1.8535588,-8.241945,2.3062959,1.8535588,-8.241945
668,1715728808390,2.3062959,1.8535588,-8.241945,2.3062959,1.8535588,-8.241945
669,1715728808400,2.5907211,1.8418409,-7.945935,2.5907211,1.8418409,-7.945935
670,1715728808410,2.76792774,1.7234368199999999,-7.618313000000001,2.76792774,1.7234368199999999,-7.618313000000001
671,1715728808420,3.2626362,0.9313067,-6.165213,3.2626362,0.9313067,-6.165213
672,1715728808430,3.3216518200000005,0.425413016,-5.47660012,3.3216518200000005,0.425413016,-5.47660012
673,1715728808440,3.3979247,-0.25832644,-4.5496078,3.3979247,-0.25832644,-4.5496078
674,1715728808450,3.4458615999999997,-0.64594924,-4.1300273,3.4458615999999997,-0.64594924,-4.1300273
675,1715728808460,3.42711296,-0.757109504,-4.12065278,3.42711296,-0.757109504,-4.12065278
676,1715728808470,3.3027168000000002,-0.99586172,-4.1298138,3.3027168000000002,-0.99586172,-4.1298138
677,1715728808480,2.2541643733333334,-1.422193466666667,-4.20637095,2.2541643733333334,-1.422193466666667,-4.20637095
678,1715728808490,0.82171774,-1.7141423,-3.8956692,0.82171774,-1.7141423,-3.8956692
679,1715728808500,-0.5245092,-2.0591545,-3.0160277,-0.5245092,-2.0591545,-3.0160277
680,1715728808510,-0.723913225,-2.129195625,-2.775611,-0.723913225,-2.129195625,-2.775611
681,1715728808520,-1.8578198000000001,-2.6683524,-0.40573230000000005,-1.8578198000000001,-2.6683524,-0.40573230000000005
682,1715728808530,-1.8610156,-2.775944,0.5825661,-1.8610156,-2.775944,0.5825661
683,1715728808540,-0.9440899,-2.7397249,4.0747666,-0.9440899,-2.7397249,4.0747666
684,1715728808550,0.12410320999999999,-2.214683,6.5732093,0.12410320999999999,-2.214683,6.5732093
685,1715728808560,0.3754388575,-2.002495825,7.169091225000001,0.3754388575,-2.002495825,7.169091225000001
686,1715728808570,1.7940371,-0.45633233,11.066491,1.7940371,-0.45633233,11.066491
687,1715728808580,1.9602183,-0.048469495,11.97596,1.9602183,-0.048469495,11.97596
688,1715728808590,1.8494308,0.96539515,13.900359,1.8494308,0.96539515,13.900359
689,1715728808600,1.324389,1.5692666,14.207155,1.324389,1.5692666,14.207155
690,1715728808610,1.324389,1.5692666,14.207155,1.324389,1.5692666,14.207155
691,1715728808620,-0.222453676,1.5922761600000002,13.408420000000001,-0.222453676,1.5922761600000002,13.408420000000001
692,1715728808630,-0.8407593099999999,1.3727919499999999,12.879104000000002,-0.8407593099999999,1.3727919499999999,12.879104000000002
693,1715728808640,-2.4092802,0.481472542,10.501101799999999,-2.4092802,0.481472542,10.501101799999999
694,1715728808650,-2.664091,0.36471963,9.845965,-2.664091,0.36471963,9.845965
695,1715728808660,-2.6785786000000003,0.369832898,9.7937938,-2.6785786000000003,0.369832898,9.7937938
696,1715728808670,-2.5639565,0.5554018,9.380578,-2.5639565,0.5554018,9.380578
697,1715728808680,-2.4629694200000003,0.6110085699999999,9.3697126,-2.4629694200000003,0.6110085699999999,9.3697126
698,1715728808690,-1.7311599000000002,0.7221422040000001,9.4517378,-1.7311599000000002,0.7221422040000001,9.4517378
699,1715728808700,-1.1496857,0.51066077,9.246355,-1.1496857,0.51066077,9.246355
700,1715728808710,-0.908083958,0.24485085199999998,8.9076814,-0.908083958,0.24485085199999998,8.9076814
701,1715728808720,0.13795164,-1.2061448,7.347522700000001,0.13795164,-1.2061448,7.347522700000001
702,1715728808730,0.6566019,-1.8089508000000003,6.688257699999999,0.6566019,-1.8089508000000003,6.688257699999999
703,1715728808740,2.4149528,-3.1635666,4.661594,2.4149528,-3.1635666,4.661594
704,1715728808750,2.6321332,-3.2104383,4.3835597,2.6321332,-3.2104383,4.3835597
705,1715728808760,2.71788695,-3.014762675,4.048634225,2.71788695,-3.014762675,4.048634225
706,1715728808770,2.1635504,-0.9494162000000002,2.078862,2.1635504,-0.9494162000000002,2.078862
707,1715728808780,1.91700845,-0.64275344,1.8999643,1.91700845,-0.64275344,1.8999643
708,1715728808790,0.03781686,1.1518164,0.7253114,0.03781686,1.1518164,0.7253114
709,1715728808800,-0.8460856700000001,1.5745928,0.05752423799999999,-0.8460856700000001,1.5745928,0.05752423799999999
710,1715728808810,-0.9485840025,1.57885385,-0.0763993765,-0.9485840025,1.57885385,-0.0763993765
711,1715728808820,-1.4691317,1.3093421,-1.5048181,-1.4691317,1.3093421,-1.5048181
712,1715728808830,-1.4435654,1.188001925,-1.8163078750000001,-1.4435654,1.188001925,-1.8163078750000001
713,1715728808840,-1.1230541,0.6555366,-2.875413,-1.1230541,0.6555366,-2.875413
714,1715728808850,-0.95687306,0.44567966,-3.1555772,-0.95687306,0.44567966,-3.1555772
715,1715728808860,-0.9118656700000001,0.39694385,-3.214666025,-0.9118656700000001,0.39694385,-3.214666025
716,1715728808870,-0.6511424,0.17097482,-3.6167033,-0.6511424,0.17097482,-3.6167033
717,1715728808880,-0.61415114,0.165861554,-3.7502873,-0.61415114,0.165861554,-3.7502873
718,1715728808890,-0.57883763,0.24754064000000003,-4.346276,-0.57883763,0.24754064000000003,-4.346276
719,1715728808900,-0.6054026450000001,0.342349105,-4.605601,-0.6054026450000001,0.342349105,-4.605601
720,1715728808910,-0.6418213450000001,0.5095622025,-5.0148285,-0.6418213450000001,0.5095622025,-5.0148285
721,1715728808920,-0.6660561,1.1028142,-6.0533605,-0.6660561,1.1028142,-6.0533605
722,1715728808930,-0.6412887,1.254514375,-6.254695375,-0.6412887,1.254514375,-6.254695375
723,1715728808940,-0.42330914999999997,1.822666,-7.0226173,-0.42330914999999997,1.822666,-7.0226173
724,1715728808950,-0.17297219,2.0463715,-7.4603076,-0.17297219,2.0463715,-7.4603076
725,1715728808960,-0.0835433052,2.0851471,-7.5885121600000005,-0.0835433052,2.0851471,-7.5885121600000005
726,1715728808970,0.45846282999999993,2.1305273,-8.220639,0.45846282999999993,2.1305273,-8.220639
727,1715728808980,0.595881835,2.096172425,-8.32450275,0.595881835,2.096172425,-8.32450275
728,1715728808990,1.1294458,1.9696723999999999,-8.62544,1.1294458,1.9696723999999999,-8.62544
729,1715728809000,1.3829786,1.895104,-8.749943,1.3829786,1.895104,-8.749943
730,1715728809010,1.3829786,1.895104,-8.749943,1.3829786,1.895104,-8.749943
731,1715728809020,1.6834627999999998,1.9076741,-8.987283399999999,1.6834627999999998,1.9076741,-8.987283399999999
732,1715728809030,1.753290775,1.9592861,-9.00800225,1.753290775,1.9592861,-9.00800225
733,1715728809040,1.9655446,2.2050958,-8.873513,1.9655446,2.2050958,-8.873513
734,1715728809050,2.1347883,2.364752,-8.610526,2.1347883,2.364752,-8.610526
735,1715728809060,2.1347883,2.364752,-8.610526,2.1347883,2.364752,-8.610526
736,1715728809070,2.4394538,2.3732743,-7.5657687,2.4394538,2.3732743,-7.5657687
737,1715728809080,2.480999075,2.2551297999999997,-7.256575799999999,2.480999075,2.2551297999999997,-7.256575799999999
738,1715728809090,2.691788,1.3508874,-5.646563,2.691788,1.3508874,-5.646563
739,1715728809100,2.7258766,0.9600688999999999,-5.0991507,2.7258766,0.9600688999999999,-5.0991507
740,1715728809110,2.761030275,0.80723685,-4.9040077,2.761030275,0.80723685,-4.9040077
741,1715728809120,3.1125672,-0.644884,-3.2258847000000004,3.1125672,-0.644884,-3.2258847000000004
742,1715728809130,3.1323634000000005,-0.8770226666666666,-3.0114115666666663,3.1323634000000005,-0.8770226666666666,-3.0114115666666663
743,1715728809140,2.6118932,-1.3020185,-2.3674152,2.6118932,-1.3020185,-2.3674152
744,1715728809150,2.46456728,-1.3071317,-2.30094272,2.46456728,-1.3071317,-2.30094272
745,1715728809160,2.4277358,-1.30841,-2.2843246,2.4277358,-1.30841,-2.2843246
746,1715728809170,-0.23937361999999998,-1.4507115666666666,-0.8914037333333334,-0.23937361999999998,-1.4507115666666666,-0.8914037333333334
747,1715728809180,-1.26699798,-1.44321918,-0.04937496400000001,-1.26699798,-1.44321918,-0.04937496400000001
748,1715728809190,-2.691788,-1.4680665,2.657167,-2.691788,-1.4680665,2.657167
749,1715728809200,-2.683266,-1.5458307,4.473042,-2.683266,-1.5458307,4.473042
750,1715728809210,-2.6081649000000002,-1.5444991,4.813293925,-2.6081649000000002,-1.5444991,4.813293925
751,1715728809220,-1.7619461,-1.3669996,7.573225500000001,-1.7619461,-1.3669996,7.573225500000001
752,1715728809230,-1.2603401,-1.1198584,8.740488,-1.2603401,-1.1198584,8.740488
753,1715728809240,-0.62570924,-0.5735113,10.32094,-0.62570924,-0.5735113,10.32094
754,1715728809250,-0.49787760000000003,-0.39514622499999996,10.7118255,-0.49787760000000003,-0.39514622499999996,10.7118255
755,1715728809260,-0.37004596,-0.21678115,11.102711,-0.37004596,-0.21678115,11.102711
756,1715728809270,-0.49681234,-0.1858885,11.1772785,-0.49681234,-0.1858885,11.1772785
757,1715728809280,-0.556433805,-0.241248925,11.106438625,-0.556433805,-0.241248925,11.106438625
758,1715728809290,-1.1539469,-0.75993246,10.302831,-1.1539469,-0.75993246,10.302831
759,1715728809300,-1.3783513250000001,-0.99312534,9.90105975,-1.3783513250000001,-0.99312534,9.90105975
760,1715728809310,-1.4531528,-1.0708563,9.767136,-1.4531528,-1.0708563,9.767136
761,1715728809320,-1.58375412,-1.6299865400000002,8.794364,-1.58375412,-1.6299865400000002,8.794364
762,1715728809330,-1.57587118,-1.6382955600000002,8.6239484,-1.57587118,-1.6382955600000002,8.6239484
763,1715728809340,-1.4616749,-1.0282457,8.692552,-1.4616749,-1.0282457,8.692552
764,1715728809350,-1.2954937,-0.35300174,8.913061,-1.2954937,-0.35300174,8.913061
765,1715728809360,-1.2954937,-0.35300174,8.913061,-1.2954937,-0.35300174,8.913061
766,1715728809370,-0.8127074,0.33067558,8.33045,-0.8127074,0.33067558,8.33045
767,1715728809380,-0.399234194,0.35004562274,7.4842225,-0.399234194,0.35004562274,7.4842225
768,1715728809390,0.16458324,-0.0047936863,6.2132835,0.16458324,-0.0047936863,6.2132835
769,1715728809400,0.6757766,-0.71945244,4.533762,0.6757766,-0.71945244,4.533762
770,1715728809410,0.6757766,-0.71945244,4.533762,0.6757766,-0.71945244,4.533762
771,1715728809420,0.4578414333333334,-0.9455102599999999,2.775100533333333,0.4578414333333334,-0.9455102599999999,2.775100533333333
772,1715728809430,0.282827495,-0.8855336899999999,2.37926635,0.282827495,-0.8855336899999999,2.37926635
773,1715728809440,-0.4968123400000001,-0.5596629,1.1480879,-0.4968123400000001,-0.5596629,1.1480879
774,1715728809450,-0.5511408,-0.5447492,0.9957552,-0.5511408,-0.5447492,0.9957552
775,1715728809460,-0.5511408,-0.5447492,0.9957552,-0.5511408,-0.5447492,0.9957552
776,1715728809470,-0.68949187,-0.3711112,-0.018109482,-0.68949187,-0.3711112,-0.018109482
777,1715728809480,-0.77755369,0.04984546666666667,-1.1385004939999999,-0.77755369,0.04984546666666667,-1.1385004939999999
778,1715728809490,-0.9909615,0.8237150999999999,-2.931872,-0.9909615,0.8237150999999999,-2.931872
779,1715728809500,-1.150751,1.1337068,-3.7839496000000006,-1.150751,1.1337068,-3.7839496000000006
780,1715728809510,-1.161377,1.13605038,-3.84719962,-1.161377,1.13605038,-3.84719962
781,1715728809520,-1.1614037,1.0143973,-4.424972,-1.1614037,1.0143973,-4.424972
782,1715728809530,-1.0685126999999999,0.918763252,-4.5600474,-1.0685126999999999,0.918763252,-4.5600474
783,1715728809540,-0.8013445999999999,0.68642926,-4.9149933,-0.8013445999999999,0.68642926,-4.9149933
784,1715728809550,-0.67564344,0.69282085,-5.067193,-0.67564344,0.69282085,-5.067193
785,1715728809560,-0.67564344,0.69282085,-5.067193,-0.67564344,0.69282085,-5.067193
786,1715728809570,-0.018342508,1.275287,-5.808483275,-0.018342508,1.275287,-5.808483275
787,1715728809580,0.17566197039999998,1.53624332,-6.08366738,0.17566197039999998,1.53624332,-6.08366738
788,1715728809590,0.5127913,2.077264,-6.8532405,0.5127913,2.077264,-6.8532405
789,1715728809600,0.588425,2.2072263,-7.118357999999999,0.588425,2.2072263,-7.118357999999999
790,1715728809610,0.588425,2.2072263,-7.118357999999999,0.588425,2.2072263,-7.118357999999999
791,1715728809620,0.8634627374999999,2.40127075,-7.9243295,0.8634627374999999,2.40127075,-7.9243295
792,1715728809630,1.068992025,2.4909859,-8.411055,1.068992025,2.4909859,-8.411055
793,1715728809640,1.5213296,2.5202806,-8.929972,1.5213296,2.5202806,-8.929972
794,1715728809650,1.7343824,2.5202806,-9.0220104,1.7343824,2.5202806,-9.0220104
795,1715728809660,1.8494308750000001,2.52613955,-9.0428895,1.8494308750000001,2.52613955,-9.0428895
796,1715728809670,2.28286,2.5522385,-8.978974,2.28286,2.5522385,-8.978974
797,1715728809680,2.3337263249999998,2.5455806,-8.96272875,2.3337263249999998,2.5455806,-8.96272875
798,1715728809690,2.7964234599999997,2.34078362,-8.7445098,2.7964234599999997,2.34078362,-8.7445098
799,1715728809700,2.93360288,2.21191332,-8.6484494,2.93360288,2.21191332,-8.6484494
800,1715728809710,3.049417025,1.8586852374999998,-8.4678139,3.049417025,1.8586852374999998,-8.4678139
801,1715728809720,3.5726280000000004,-0.25513065,-7.566834,3.5726280000000004,-0.25513065,-7.566834
802,1715728809730,3.66248292,-0.6172137500000001,-7.4794824,3.66248292,-0.6172137500000001,-7.4794824
803,1715728809740,4.301002,-2.5841963,-7.0758805,4.301002,-2.5841963,-7.0758805
804,1715728809750,4.419246,-2.8270764,-7.020487,4.419246,-2.8270764,-7.020487
805,1715728809760,4.419246,-2.8270764,-7.020487,4.419246,-2.8270764,-7.020487
806,1715728809770,4.7788259,-4.0715974,-6.39738768,4.7788259,-4.0715974,-6.39738768
807,1715728809780,4.6344295,-4.131625,-6.2440430000000005,4.6344295,-4.131625,-6.2440430000000005
808,1715728809790,0.81745666,-2.768487,-3.6731622,0.81745666,-2.768487,-3.6731622
809,1715728809800,-0.5362271,-1.8899107999999998,-2.3280005,-0.5362271,-1.8899107999999998,-2.3280005
810,1715728809810,-0.5362271,-1.8899108,-2.3280005,-0.5362271,-1.8899108,-2.3280005
811,1715728809820,-1.8322535,-0.82491356,-0.18735324,-1.8322535,-0.82491356,-0.18735324
812,1715728809830,-1.8322535,-0.82491356,-0.18735324,-1.8322535,-0.82491356,-0.18735324
813,1715728809840,-2.0453062,0.57244605,7.0875983,-2.0453062,0.57244605,7.0875983
814,1715728809850,-1.7984313250000001,0.6977809875000001,7.8679708250000004,-1.7984313250000001,0.6977809875000001,7.8679708250000004
815,1715728809860,-0.7576687999999999,1.1741868,10.654367,-0.7576687999999999,1.1741868,10.654367
816,1715728809870,-0.30826068,1.4201295,11.868368,-0.30826068,1.4201295,11.868368
817,1715728809880,-0.2477537,1.48361922,12.16318,-0.2477537,1.48361922,12.16318
818,1715728809890,-0.23156169,1.854624,13.496757499999998,-0.23156169,1.854624,13.496757499999998
819,1715728809900,-0.52527483,1.9174746,13.518894999999999,-0.52527483,1.9174746,13.518894999999999
820,1715728809910,-1.0165278,1.8631461000000002,13.144288,-1.0165278,1.8631461000000002,13.144288
821,1715728809920,-1.1708579,1.7887107999999998,12.968519,-1.1708579,1.7887107999999998,12.968519
822,1715728809930,-1.3583176599999998,1.6223432519999998,12.7029222,-1.3583176599999998,1.6223432519999998,12.7029222
823,1715728809940,-2.5937839,0.07297056,10.304961,-2.5937839,0.07297056,10.304961
824,1715728809950,-2.64864485,-0.2638857775,9.69739475,-2.64864485,-0.2638857775,9.69739475
825,1715728809960,-2.6214807,-0.69282085,8.833166,-2.6214807,-0.69282085,8.833166
826,1715728809970,-2.3509037,-0.7695198,8.597743,-2.3509037,-0.7695198,8.597743
827,1715728809980,-2.284091675,-0.7777756,8.5972105,-2.284091675,-0.7777756,8.5972105
828,1715728809990,-1.4648707,-1.0069405,8.764989,-1.4648707,-1.0069405,8.764989
829,1715728810000,-1.3008201,-1.0676605,8.802274,-1.3008201,-1.0676605,8.802274
830,1715728810010,-0.170016078,-1.6691615800000001,8.3990176,-0.170016078,-1.6691615800000001,8.3990176
831,1715728810020,0.18695377,-2.0474367,7.838476,0.18695377,-2.0474367,7.838476
832,1715728810030,0.255629985,-2.133723075,7.7205315,0.255629985,-2.133723075,7.7205315
833,1715728810040,1.4511554,-3.148653,5.956555,1.4511554,-3.148653,5.956555
834,1715728810050,1.755454625,-3.21656355,5.483677525,1.755454625,-3.21656355,5.483677525
835,1715728810060,2.314818,-2.0666115,2.9969862,2.314818,-2.0666115,2.9969862
836,1715728810070,1.8291908999999997,-0.7791072,1.7530244999999998,1.8291908999999997,-0.7791072,1.7530244999999998
837,1715728810080,1.6806199,-0.5493098574999999,1.551489935,1.6806199,-0.5493098574999999,1.551489935
838,1715728810090,0.075101085,1.22745,-0.16178691,0.075101085,1.22745,-0.16178691
839,1715728810100,-0.4169175575,1.46227405,-0.620316305,-0.4169175575,1.46227405,-0.620316305
840,1715728810110,-1.263269475,1.7274581,-1.6328827000000001,-1.263269475,1.7274581,-1.6328827000000001
841,1715728810120,-1.4925675,1.6811192000000001,-2.2088242,-1.4925675,1.6811192000000001,-2.2088242
842,1715728810130,-1.51120965,1.5799191499999998,-2.5788701,-1.51120965,1.5799191499999998,-2.5788701
843,1715728810140,-1.393498,1.1326416,-3.5378737,-1.393498,1.1326416,-3.5378737
844,1715728810150,-1.2776838499999998,0.9132305625,-3.77938885,-1.2776838499999998,0.9132305625,-3.77938885
845,1715728810160,-1.0271804,0.45739758,-4.280229,-1.0271804,0.45739758,-4.280229
846,1715728810170,-0.9451551400000001,0.39667755,-4.581566,-0.9451551400000001,0.39667755,-4.581566
847,1715728810180,-0.9451551400000001,0.39667755,-4.581566,-0.9451551400000001,0.39667755,-4.581566
848,1715728810190,-0.9526119999999999,0.993092,-5.306877,-0.9526119999999999,0.993092,-5.306877
849,1715728810200,-0.9585775200000001,1.178874,-5.5019266,-0.9585775200000001,1.178874,-5.5019266
850,1715728810210,-0.8855004300000001,1.9004303,-6.3484387,-0.8855004300000001,1.9004303,-6.3484387
851,1715728810220,-0.7097319,2.2349231,-6.8266086999999995,-0.7097319,2.2349231,-6.8266086999999995
852,1715728810230,-0.5548359,2.383427525,-7.0709869,-0.5548359,2.383427525,-7.0709869
853,1715728810240,-0.13515532400000002,2.62893756,-7.587819659999999,-0.13515532400000002,2.62893756,-7.587819659999999
854,1715728810250,0.11584741500000001,2.717887025,-7.84526725,0.11584741500000001,2.717887025,-7.84526725
855,1715728810260,0.81319565,2.7407901,-8.365516,0.81319565,2.7407901,-8.365516
856,1715728810270,1.2253195,2.7216156,-8.624374,1.2253195,2.7216156,-8.624374
857,1715728810280,1.3243446333333333,2.714158733333333,-8.672621666666666,1.3243446333333333,2.714158733333333,-8.672621666666666
858,1715728810290,2.0070899,2.6406555,-8.894818,2.0070899,2.6406555,-8.894818
859,1715728810300,2.206161,2.6012406,-8.922515,2.206161,2.6012406,-8.922515
860,1715728810310,2.8292072,2.3466427,-8.973648,2.8292072,2.3466427,-8.973648
861,1715728810320,3.221091,2.1007,-8.950212,3.221091,2.1007,-8.950212
862,1715728810330,3.3537162499999997,1.99683675,-8.9193195,3.3537162499999997,1.99683675,-8.9193195
863,1715728810340,3.7393684,1.6405859,-8.7613146,3.7393684,1.6405859,-8.7613146
864,1715728810350,4.0084007800000006,1.35408328,-8.5858122,4.0084007800000006,1.35408328,-8.5858122
865,1715728810360,4.4810314,0.3189133,-7.611575,4.4810314,0.3189133,-7.611575
866,1715728810370,4.5332294,-0.45526704,-6.7488446,4.5332294,-0.45526704,-6.7488446
867,1715728810380,4.5332294,-0.45526704,-6.748844600000001,4.5332294,-0.45526704,-6.748844600000001
868,1715728810390,4.377701,-1.6928370999999998,-5.3079424,4.377701,-1.6928370999999998,-5.3079424
869,1715728810400,4.2978062,-1.84112176,-5.18522398,4.2978062,-1.84112176,-5.18522398
870,1715728810410,3.2477226000000003,-2.34358,-4.7711825,3.2477226000000003,-2.34358,-4.7711825
871,1715728810420,2.0251994,-2.4277358,-4.5666523,2.0251994,-2.4277358,-4.5666523
872,1715728810430,1.7395089925,-2.4266705500000003,-4.479866475000001,1.7395089925,-2.4266705500000003,-4.479866475000001
873,1715728810440,-0.712461705,-2.342692216666667,-3.309818416666667,-0.712461705,-2.342692216666667,-3.309818416666667
874,1715728810450,-1.661078925,-2.2687451000000003,-2.226833715,-1.661078925,-2.2687451000000003,-2.226833715
875,1715728810460,-2.5820658,-2.1752684,-0.41212386000000006,-2.5820658,-2.1752684,-0.41212386000000006
876,1715728810470,-2.622546,-1.9856514,1.7530245,-2.622546,-1.9856514,1.7530245
877,1715728810480,-2.49155185,-1.88794675,2.346509525,-2.49155185,-1.88794675,2.346509525
878,1715728810490,-1.2827106,-0.952612,6.4815965,-1.2827106,-0.952612,6.4815965
879,1715728810500,-1.1221221,-0.79500624,6.92634402,-1.1221221,-0.79500624,6.92634402
880,1715728810510,-0.09733847,0.44248387000000006,10.037713,-0.09733847,0.44248387000000006,10.037713
881,1715728810520,0.055952970000000005,0.7312768540000001,10.7158602,0.055952970000000005,0.7312768540000001,10.7158602
882,1715728810530,0.09427583,0.8034751,10.885397,0.09427583,0.8034751,10.885397
883,1715728810540,0.14945649379999998,1.51280748,13.129773600000002,0.14945649379999998,1.51280748,13.129773600000002
884,1715728810550,-0.031771485999999995,1.5464698399999999,13.289510000000002,-0.031771485999999995,1.5464698399999999,13.289510000000002
885,1715728810560,-0.9579383,0.84502035,12.641617000000002,-0.9579383,0.84502035,12.641617000000002
886,1715728810570,-1.0177794800000002,0.76067811,12.5479004,-1.0177794800000002,0.76067811,12.5479004
887,1715728810580,-1.50891928,0.038216342000000014,11.5966196,-1.50891928,0.038216342000000014,11.5966196
888,1715728810590,-2.12520094,-0.957751934,9.7889204,-2.12520094,-0.957751934,9.7889204
889,1715728810600,-2.23654768,-1.1850525600000001,9.130108400000001,-2.23654768,-1.1850525600000001,9.130108400000001
890,1715728810610,-2.1869862,-1.0069405,8.160052,-2.1869862,-1.0069405,8.160052
891,1715728810620,-2.081525,-0.61079556,8.140878,-2.081525,-0.61079556,8.140878
892,1715728810630,-2.01308185,-0.46701825325,8.175499,-2.01308185,-0.46701825325,8.175499
893,1715728810640,-1.1400985,0.18788588,8.583895,-1.1400985,0.18788588,8.583895
894,1715728810650,-0.81199723,0.077231616,8.568981,-0.81199723,0.077231616,8.568981
895,1715728810660,0.19121483,-0.88882935,7.838476,0.19121483,-0.88882935,7.838476
896,1715728810670,0.7673893,-1.7429044,7.095055,0.7673893,-1.7429044,7.095055
897,1715728810680,1.0918508333333332,-2.1248902666666667,6.667662333333333,1.0918508333333332,-2.1248902666666667,6.667662333333333
898,1715728810690,2.7407901,-3.5140383000000006,4.0257645,2.7407901,-3.5140383000000006,4.0257645
899,1715728810700,2.81045844,-3.4264737000000003,3.6103915800000004,2.81045844,-3.4264737000000003,3.6103915800000004
900,1715728810710,2.1891167,-1.7727319,1.6049528,2.1891167,-1.7727319,1.6049528
901,1715728810720,1.5544327,-0.586773852,0.859481336,1.5544327,-0.586773852,0.859481336
902,1715728810730,0.8764456700000001,0.11147983600000003,0.4268777772,0.8764456700000001,0.11147983600000003,0.4268777772
903,1715728810740,-1.3966938,1.8130788,-0.9179909,-1.3966938,1.8130788,-0.9179909
904,1715728810750,-1.6144736499999999,1.9020283,-1.11872655,-1.6144736499999999,1.9020283,-1.11872655
905,1715728810760,-2.4702132,1.8684725,-2.503769,-2.4702132,1.8684725,-2.503769
906,1715728810770,-2.4702132,1.8684725,-2.503769,-2.4702132,1.8684725,-2.503769
907,1715728810780,-2.4552994999999997,1.75828425,-2.7412563,-2.4552994999999997,1.75828425,-2.7412563
908,1715728810790,-1.7900090999999998,0.9885313450000001,-3.60631695,-1.7900090999999998,0.9885313450000001,-3.60631695
909,1715728810800,-1.573261225,0.8338683875,-3.7223974,-1.573261225,0.8338683875,-3.7223974
910,1715728810810,-0.6809698,0.45633233000000006,-4.2844906,-0.6809698,0.45633233000000006,-4.2844906
911,1715728810820,-0.33808804,0.5383576,-4.687027,-0.33808804,0.5383576,-4.687027
912,1715728810830,-0.33808804,0.5383576,-4.687027,-0.33808804,0.5383576,-4.687027
913,1715728810840,-0.10106688800000001,1.12624994,-5.50000954,-0.10106688800000001,1.12624994,-5.50000954
914,1715728810850,-0.09001478,1.2029489,-5.5933,-0.09001478,1.2029489,-5.5933
915,1715728810860,-0.187530792,1.8855610333333335,-6.6892345,-0.187530792,1.8855610333333335,-6.6892345
916,1715728810870,-0.2549975,2.2093568,-7.283474000000001,-0.2549975,2.2093568,-7.283474000000001
917,1715728810880,-0.2590455,2.24959714,-7.366964,-0.2590455,2.24959714,-7.366964
918,1715728810890,-0.236035788,2.4872575400000003,-7.91653328,-0.236035788,2.4872575400000003,-7.91653328
919,1715728810900,-0.140162064,2.5601215,-8.17145072,-0.140162064,2.5601215,-8.17145072
920,1715728810910,0.26791382,2.6843312,-8.582829,0.26791382,2.6843312,-8.582829
921,1715728810920,0.60120815,2.743986,-8.681899,0.60120815,2.743986,-8.681899
922,1715728810930,0.67343303,2.75655612,-8.692950999999999,0.67343303,2.75655612,-8.692950999999999
923,1715728810940,1.2466248,2.8270764000000006,-8.768052,1.2466248,2.8270764000000006,-8.768052
924,1715728810950,1.56583765,2.7828679750000003,-8.75024225,1.56583765,2.7828679750000003,-8.75024225
925,1715728810960,2.218944,2.664091,-8.68616,2.218944,2.664091,-8.68616
926,1715728810970,2.3265357,2.6278722,-8.644614,2.3265357,2.6278722,-8.644614
927,1715728810980,2.49587935,2.54801075,-8.53302775,2.49587935,2.54801075,-8.53302775
928,1715728810990,3.5928679,1.7748624,-7.4730906,3.5928679,1.7748624,-7.4730906
929,1715728811000,3.7563858199999998,1.48766728,-7.146800520000001,3.7563858199999998,1.48766728,-7.146800520000001
930,1715728811010,4.162651,0.065513715,-5.5432324,4.162651,0.065513715,-5.5432324
931,1715728811020,4.2200418,-0.38389438,-4.991559,4.2200418,-0.38389438,-4.991559
932,1715728811030,4.2200418,-0.3838943799999999,-4.991559,4.2200418,-0.3838943799999999,-4.991559
933,1715728811040,4.262385975,-1.463072995,-3.4196294999999997,4.262385975,-1.463072995,-3.4196294999999997
934,1715728811050,4.19507485,-1.9447053500000002,-2.6720141,4.19507485,-1.9447053500000002,-2.6720141
935,1715728811060,2.9591691,-2.391517,-1.3972265,2.9591691,-2.391517,-1.3972265
936,1715728811070,1.983654,-2.4256053,-0.67404556,1.983654,-2.4256053,-0.67404556
937,1715728811080,0.5149218,-2.210422,0.49947547999999997,0.5149218,-2.210422,0.49947547999999997
938,1715728811090,-0.78749615,-1.6779234000000003,1.8648771,-0.78749615,-1.6779234000000003,1.8648771
939,1715728811100,-0.78749615,-1.6779234000000003,1.8648771,-0.78749615,-1.6779234000000003,1.8648771
940,1715728811110,-1.4840454,-1.1209236,3.000182,-1.4840454,-1.1209236,3.000182
941,1715728811120,-1.4840454,-1.1209236,3.000182,-1.4840454,-1.1209236,3.000182
942,1715728811130,-1.4840454,-1.1209236,3.000182,-1.4840454,-1.1209236,3.000182
943,1715728811140,-1.92816045,-0.29740827675000003,4.476237875,-1.92816045,-0.29740827675000003,4.476237875
944,1715728811150,-2.0761988,-0.022903169,4.9682565,-2.0761988,-0.022903169,4.9682565
945,1715728811160,-2.0761988,-0.022903169,4.9682565,-2.0761988,-0.022903169,4.9682565
946,1715728811170,-2.0761988,-0.022903169,4.9682565,-2.0761988,-0.022903169,4.9682565
947,1715728811180,-1.814144,1.740774,10.1537605,-1.814144,1.740774,10.1537605
948,1715728811190,-1.8269272,0.31465223,10.725607,-1.8269272,0.31465223,10.725607
949,1715728811200,-1.8269272,0.31465223,10.725607,-1.8269272,0.31465223,10.725607
950,1715728811210,-1.85696756,-0.8160984580000001,9.3649721,-1.85696756,-0.8160984580000001,9.3649721
951,1715728811220,-1.82266608,-1.0742651200000002,9.0148734,-1.82266608,-1.0742651200000002,9.0148734
952,1715728811230,-1.5884413,-1.5522223,8.072701,-1.5884413,-1.5522223,8.072701
953,1715728811240,-1.49810698,-1.5181338199999999,7.93560156,-1.49810698,-1.5181338199999999,7.93560156
954,1715728811250,-1.43632168,-1.5074811799999999,7.91176628,-1.43632168,-1.5074811799999999,7.91176628
955,1715728811260,-0.5852292,-1.5373086,8.310255,-0.5852292,-1.5373086,8.310255
956,1715728811270,-0.39880806,-1.542635,8.392281,-0.39880806,-1.542635,8.392281
957,1715728811280,0.50821949,-1.7121894166666667,8.429564333333333,0.50821949,-1.7121894166666667,8.429564333333333
958,1715728811290,1.3638037,-2.0911126,7.502918199999999,1.3638037,-2.0911126,7.502918199999999
959,1715728811300,1.3638037,-2.0911126,7.502918199999999,1.3638037,-2.0911126,7.502918199999999
960,1715728811310,1.6022897,-2.1912472,6.9342003,1.6022897,-2.1912472,6.9342003
961,1715728811320,1.89558344,-2.12093986,5.91250608,1.89558344,-2.12093986,5.91250608
962,1715728811330,2.1161462,-2.02453355,5.0422923,2.1161462,-2.02453355,5.0422923
963,1715728811340,0.7087998000000001,-0.023968432,0.68163556,0.7087998000000001,-0.023968432,0.68163556
964,1715728811350,0.7087998,-0.023968432,0.68163556,0.7087998,-0.023968432,0.68163556
965,1715728811360,-0.83649826,0.95474255,-1.0863026,-0.83649826,0.95474255,-1.0863026
966,1715728811370,-1.1787940840000002,1.13005832,-1.702238,-1.1787940840000002,1.13005832,-1.702238
967,1715728811380,-1.6257255000000002,1.4243907,-2.9073708,-1.6257255000000002,1.4243907,-2.9073708
968,1715728811390,-1.4797844,1.4275864,-3.4771538,-1.4797844,1.4275864,-3.4771538
969,1715728811400,-1.4797844,1.4275864,-3.4771538,-1.4797844,1.4275864,-3.4771538
970,1715728811410,-1.10567708,1.16879395,-3.8571199249999997,-1.10567708,1.16879395,-3.8571199249999997
971,1715728811420,-0.6564687,0.83649826,-4.233358,-0.6564687,0.83649826,-4.233358
972,1715728811430,-0.22943115,0.5298355,-4.7711825,-0.22943115,0.5298355,-4.7711825
973,1715728811440,-0.08042741,0.5245092,-5.2110033,-0.08042741,0.5245092,-5.2110033
974,1715728811450,-0.0542219204,0.594816582,-5.40650592,-0.0542219204,0.594816582,-5.40650592
975,1715728811460,-0.035686333,1.0271804,-6.0981016,-0.035686333,1.0271804,-6.0981016
976,1715728811470,-0.047404233,1.2082753,-6.322872,-0.047404233,1.2082753,-6.322872
977,1715728811480,-0.15379743,1.7546223,-6.897981599999999,-0.15379743,1.7546223,-6.897981599999999
978,1715728811490,-0.23262694,2.1028304,-7.2067746999999995,-0.23262694,2.1028304,-7.2067746999999995
979,1715728811500,-0.2502037975,2.275403225,-7.356976975,-0.2502037975,2.275403225,-7.356976975
980,1715728811510,-0.16018902,2.6385248,-7.700924,-0.16018902,2.6385248,-7.700924
981,1715728811520,-0.065513715,2.7205503000000006,-7.7967978,-0.065513715,2.7205503000000006,-7.7967978
982,1715728811530,0.3531349,2.8579693,-7.942739,0.3531349,2.8579693,-7.942739
983,1715728811540,0.6235787,2.8686218,-7.9789577,0.6235787,2.8686218,-7.9789577
984,1715728811550,0.7875760599999999,2.8583952800000003,-7.9977062199999995,0.7875760599999999,2.8583952800000003,-7.9977062199999995
985,1715728811560,1.0335721,2.8430555,-8.025829,1.0335721,2.8430555,-8.025829
986,1715728811570,1.0335721,2.8430555,-8.025829,1.0335721,2.8430555,-8.025829
987,1715728811580,1.0335721,2.8430555,-8.025829,1.0335721,2.8430555,-8.025829
988,1715728811590,1.0335721,2.8430555,-8.025829,1.0335721,2.8430555,-8.025829
989,1715728811600,1.0335721,2.8430555,-8.025829,1.0335721,2.8430555,-8.025829
990,1715728811610,1.0335721,2.8430555,-8.025829,1.0335721,2.8430555,-8.025829
991,1715728811620,1.0335721,2.8430555,-8.025829,1.0335721,2.8430555,-8.025829
992,1715728811630,1.0335721,2.8430555,-8.025829,1.0335721,2.8430555,-8.025829
993,1715728811640,1.0335721,2.8430555,-8.025829,1.0335721,2.8430555,-8.025829
994,1715728811650,1.0335721,2.8430555,-8.025829,1.0335721,2.8430555,-8.025829
995,1715728811660,1.0335721,2.8430555,-8.025829,1.0335721,2.8430555,-8.025829
996,1715728811670,1.0335721,2.8430555,-8.025829,1.0335721,2.8430555,-8.025829
997,1715728811680,1.0335721,2.8430555,-8.025829,1.0335721,2.8430555,-8.025829
998,1715728811690,1.0335721,2.8430555,-8.025829,1.0335721,2.8430555,-8.025829
999,1715728811700,2.1961076,2.6102954,-7.88734535,2.1961076,2.6102954,-7.88734535
1000,1715728811710,3.904857,1.2709926,-6.584794,3.904857,1.2709926,-6.584794
1001,1715728811720,4.143476,-1.9952388,-3.3695621,4.143476,-1.9952388,-3.3695621
1002,1715728811730,-1.0080057,-2.428801,1.0532794,-1.0080057,-2.428801,1.0532794
1003,1715728811740,-1.6695877200000002,-0.83316932,5.8424386,-1.6695877200000002,-0.83316932,5.8424386
1004,1715728811750,-1.56607074,-0.33009858,6.7887922000000005,-1.56607074,-0.33009858,6.7887922000000005
1005,1715728811760,-1.3572791,0.94835097,9.037697,-1.3572791,0.94835097,9.037697
1006,1715728811770,-1.37006222,1.182708914,9.486599,-1.37006222,1.182708914,9.486599
1007,1715728811780,-1.6033549,1.9217356,10.826807,-1.6033549,1.9217356,10.826807
1008,1715728811790,-1.9441061,2.2210746,11.237865,-1.9441061,2.2210746,11.237865
1009,1715728811800,-2.0876503800000004,2.25260636,11.277919,-2.0876503800000004,2.25260636,11.277919
1010,1715728811810,-2.691788,2.2327926,11.276216,-2.691788,2.2327926,11.276216
1011,1715728811820,-2.691788,2.2327926,11.276216,-2.691788,2.2327926,11.276216
1012,1715728811830,-3.7653073999999997,0.7502119,9.940774,-3.7653073999999997,0.7502119,9.940774
1013,1715728811840,-3.8014997800000003,0.5685311900000001,9.8016772,-3.8014997800000003,0.5685311900000001,9.8016772
1014,1715728811850,-3.809948825,-1.039197975,9.0027425,-3.809948825,-1.039197975,9.0027425
1015,1715728811860,-3.4265537,-2.8217502,8.665919,-3.4265537,-2.8217502,8.665919
1016,1715728811870,-2.86825565,-3.5789863,8.9338,-2.86825565,-3.5789863,8.9338
1017,1715728811880,-1.9046913000000003,-4.461857,9.428515,-1.9046913000000003,-4.461857,9.428515
1018,1715728811890,-1.4978938,-3.9666424,9.255942,-1.4978938,-3.9666424,9.255942
1019,1715728811900,-1.448625375,-3.8031577,9.106305749999999,-1.448625375,-3.8031577,9.106305749999999
1020,1715728811910,-0.59907764,-2.125201,6.826742,-0.59907764,-2.125201,6.826742
1021,1715728811920,-0.13675322,-1.6821845,5.8969,-0.13675322,-1.6821845,5.8969
1022,1715728811930,1.182709,-0.34461278,3.0427923,1.182709,-0.34461278,3.0427923
1023,1715728811940,1.30841,0.31145647,1.4442312,1.30841,0.31145647,1.4442312
1024,1715728811950,1.1963442800000001,0.41798284199999997,1.10680892,1.1963442800000001,0.41798284199999997,1.10680892
1025,1715728811960,0.5628587,0.59694713,-0.07882951,0.5628587,0.59694713,-0.07882951
1026,1715728811970,0.40506650000000005,0.47934201199999993,-0.25068316,0.40506650000000005,0.47934201199999993,-0.25068316
1027,1715728811980,0.086818986,0.034621067,-0.72517824,0.086818986,0.034621067,-0.72517824
1028,1715728811990,0.012250531833333333,0.16855577783333334,-1.26568854,0.012250531833333333,0.16855577783333334,-1.26568854
1029,1715728812000,-0.0319579095,0.37057858499999996,-1.64163785,-0.0319579095,0.37057858499999996,-1.64163785
1030,1715728812010,-0.25286695,1.069791,-2.7658238,-0.25286695,1.069791,-2.7658238
1031,1715728812020,-0.27896591249999997,1.096422575,-2.83636425,-0.27896591249999997,1.096422575,-2.83636425
1032,1715728812030,-0.6299703,1.2381027,-3.6412044,-0.6299703,1.2381027,-3.6412044
1033,1715728812040,-0.71399295,1.1944269,-3.8446696000000005,-0.71399295,1.1944269,-3.8446696000000005
1034,1715728812050,-0.71399295,1.1944269,-3.8446696,-0.71399295,1.1944269,-3.8446696
1035,1715728812060,-0.766403936,0.990109268,-4.6193028599999995,-0.766403936,0.990109268,-4.6193028599999995
1036,1715728812070,-0.70547086,1.0373004799999999,-4.8158572500000005,-0.70547086,1.0373004799999999,-4.8158572500000005
1037,1715728812080,-0.430766,1.4446306,-5.4899693,-0.430766,1.4446306,-5.4899693
1038,1715728812090,-0.3711112,1.5266559,-5.6092787,-0.3711112,1.5266559,-5.6092787
1039,1715728812100,-0.27047708,1.66244375,-5.821499275,-0.27047708,1.66244375,-5.821499275
1040,1715728812110,0.20754887333333336,2.2706983,-6.860741666666667,0.20754887333333336,2.2706983,-6.860741666666667
1041,1715728812120,0.32224226,2.39511215,-7.1232182,0.32224226,2.39511215,-7.1232182
1042,1715728812130,0.67258084,2.5447817,-7.8276905999999995,0.67258084,2.5447817,-7.8276905999999995
1043,1715728812140,0.9037430000000001,2.5245416,-8.145139,0.9037430000000001,2.5245416,-8.145139
1044,1715728812150,0.97399716,2.5036624400000003,-8.212410199999999,0.97399716,2.5036624400000003,-8.212410199999999
1045,1715728812160,1.3861743,2.3540995,-8.443279,1.3861743,2.3540995,-8.443279
1046,1715728812170,1.3861743,2.3540995,-8.443279,1.3861743,2.3540995,-8.443279
1047,1715728812180,1.79034205,2.29138215,-8.41105525,1.79034205,2.29138215,-8.41105525
1048,1715728812190,2.2839253,2.2168136,-8.280294,2.2839253,2.2168136,-8.280294
1049,1715728812200,2.34917265,2.202965175,-8.259255,2.34917265,2.202965175,-8.259255
1050,1715728812210,2.9836702,2.0602198,-7.970435599999999,2.9836702,2.0602198,-7.970435599999999
1051,1715728812220,3.0656290000000004,2.02932715,-7.8990631,3.0656290000000004,2.02932715,-7.8990631
1052,1715728812230,3.5470616999999995,1.506416,-7.0959873,3.5470616999999995,1.506416,-7.0959873
1053,1715728812240,3.6258912,1.2114711,-6.7349963,3.6258912,1.2114711,-6.7349963
1054,1715728812250,3.6577957999999997,0.85444798,-6.32391098,3.6577957999999997,0.85444798,-6.32391098
1055,1715728812260,3.6237606999999996,-0.29348013,-4.991559,3.6237606999999996,-0.29348013,-4.991559
1056,1715728812270,3.431347466666667,-0.43014456999999995,-4.7260421,3.431347466666667,-0.43014456999999995,-4.7260421
1057,1715728812280,3.046521,-0.7034734500000001,-4.1950083,3.046521,-0.7034734500000001,-4.1950083
1058,1715728812290,2.09517385,-0.6773745250000001,-3.9486992499999998,2.09517385,-0.6773745250000001,-3.9486992499999998
1059,1715728812300,1.340368,-0.7141261,-3.6444001,1.340368,-0.7141261,-3.6444001
1060,1715728812310,0.16564849,-0.8515451,-2.892457,0.16564849,-0.8515451,-2.892457
1061,1715728812320,-0.17129438600000002,-0.91412934,-2.5836371199999997,-0.17129438600000002,-0.91412934,-2.5836371199999997
1062,1715728812330,-1.6471639,-1.37264546,-0.379766492,-1.6471639,-1.37264546,-0.379766492
1063,1715728812340,-1.8897777000000002,-1.4638054,0.05539371,-1.8897777000000002,-1.4638054,0.05539371
1064,1715728812350,-2.0037608,-1.546896,0.49841022,-2.0037608,-1.546896,0.49841022
1065,1715728812360,-2.0250661,-1.8718014,4.6541367,-2.0250661,-1.8718014,4.6541367
1066,1715728812370,-1.502155,-1.4520875,7.23567,-1.502155,-1.4520875,7.23567
1067,1715728812380,-0.9579383,-0.6906903400000001,9.390166,-0.9579383,-0.6906903400000001,9.390166
1068,1715728812390,-0.78749615,-0.3924165,10.118673,-0.78749615,-0.3924165,10.118673
1069,1715728812400,-0.45207125,0.2017343,11.7938,-0.45207125,0.2017343,11.7938
1070,1715728812410,-0.45207125000000004,0.20173429999999998,11.7938,-0.45207125000000004,0.20173429999999998,11.7938
1071,1715728812420,-0.38602492,0.33808804,12.248668,-0.38602492,0.33808804,12.248668
1072,1715728812430,-0.654151768,-0.103250684,12.076068600000001,-0.654151768,-0.103250684,12.076068600000001
1073,1715728812440,-0.90304395,-0.615888835,11.6082445,-0.90304395,-0.615888835,11.6082445
1074,1715728812450,-1.2816453,-1.429717,10.834264,-1.2816453,-1.429717,10.834264
1075,1715728812460,-1.4382390999999999,-1.987782,10.264481,-1.4382390999999999,-1.987782,10.264481
1076,1715728812470,-1.4382391,-1.987782,10.264481,-1.4382391,-1.987782,10.264481
1077,1715728812480,-1.332778,-2.2509022,9.471126,-1.332778,-2.2509022,9.471126
1078,1715728812490,-0.97498256,-1.8494307999999997,9.120654,-0.97498256,-1.8494307999999997,9.120654
1079,1715728812500,-0.97498256,-1.8494308,9.120654,-0.97498256,-1.8494308,9.120654
1080,1715728812510,0.12836426,-0.6363619,8.709596,0.12836426,-0.6363619,8.709596
1081,1715728812520,0.20133482000000003,-0.601740825,8.670181,0.20133482000000003,-0.601740825,8.670181
1082,1715728812530,1.0186584,-0.2764359,7.655251,1.0186584,-0.2764359,7.655251
1083,1715728812540,1.0676605,-0.19654115,7.236735300000001,1.0676605,-0.19654115,7.236735300000001
1084,1715728812550,1.0676605,-0.19654115,7.236735300000001,1.0676605,-0.19654115,7.236735300000001
1085,1715728812560,0.786350988,0.0520647592,5.66738914,0.786350988,0.0520647592,5.66738914
1086,1715728812570,-0.006879831233333318,0.678217853,4.7563579,-0.006879831233333318,0.678217853,4.7563579
1087,1715728812580,-0.88763094,1.4350433,3.8063202000000005,-0.88763094,1.4350433,3.8063202000000005
1088,1715728812590,-1.2251863,1.7972329,3.4346763999999994,-1.2251863,1.7972329,3.4346763999999994
1089,1715728812600,-1.2251863,1.7972329,3.4346763999999994,-1.2251863,1.7972329,3.4346763999999994
1090,1715728812610,-1.8599503000000002,2.5622254,2.2592911,-1.8599503000000002,2.5622254,2.2592911
1091,1715728812620,-2.13954875,2.882703375,1.6574837500000001,-2.13954875,2.882703375,1.6574837500000001
1092,1715728812630,-1.9462367,2.4254723,-0.7550056,-1.9462367,2.4254723,-0.7550056
1093,1715728812640,-1.6899520333333333,2.1038513,-1.2619823333333333,-1.6899520333333333,2.1038513,-1.2619823333333333
1094,1715728812650,-1.5618097,1.9430408,-1.5154707,-1.5618097,1.9430408,-1.5154707
1095,1715728812660,-0.18575533999999996,0.45633233,-3.0490508,-0.18575533999999996,0.45633233,-3.0490508
1096,1715728812670,-0.0605336,0.315344678,-3.14236792,-0.0605336,0.315344678,-3.14236792
1097,1715728812680,0.27324012,-0.17630114,-3.5314822,0.27324012,-0.17630114,-3.5314822
1098,1715728812690,0.22210747,-0.15819165,-3.6422696,0.22210747,-0.15819165,-3.6422696
1099,1715728812700,0.084954778,0.015180010000000022,-3.83992936,0.084954778,0.015180010000000022,-3.83992936
1100,1715728812710,-0.31358698,0.7331677,-4.586892,-0.31358698,0.7331677,-4.586892
1101,1715728812720,-0.303466975,0.973351375,-4.8305045,-0.303466975,0.973351375,-4.8305045
1102,1715728812730,-0.27310696,1.6939024,-5.561342,-0.27310696,1.6939024,-5.561342
1103,1715728812740,-0.1924132375,1.858385725,-5.75548625,-0.1924132375,1.858385725,-5.75548625
1104,1715728812750,0.33182964,2.3062959,-6.589054999999999,0.33182964,2.3062959,-6.589054999999999
1105,1715728812760,0.75673664,2.351969,-7.030074000000001,0.75673664,2.351969,-7.030074000000001
1106,1715728812770,0.7567366400000001,2.351969,-7.030074,0.7567366400000001,2.351969,-7.030074
1107,1715728812780,1.15181628,2.286721566666667,-7.376151666666666,1.15181628,2.286721566666667,-7.376151666666666
1108,1715728812790,1.6438349199999998,2.1810207,-7.79701048,1.6438349199999998,2.1810207,-7.79701048
1109,1715728812800,2.09710468,2.0523368599999996,-8.153128079999998,2.09710468,2.0523368599999996,-8.153128079999998
1110,1715728812810,2.4309316,2.004826,-8.405995,2.4309316,2.004826,-8.405995
1111,1715728812820,2.4309316,2.004826,-8.405995,2.4309316,2.004826,-8.405995
1112,1715728812830,2.8835356,1.9547587999999998,-8.676573,2.8835356,1.9547587999999998,-8.676573
1113,1715728812840,2.9644955200000003,1.94282784,-8.6816858,2.9644955200000003,1.94282784,-8.6816858
1114,1715728812850,3.2839415,1.8556893000000003,-8.491217,3.2839415,1.8556893000000003,-8.491217
1115,1715728812860,3.2839414999999996,1.8556893,-8.491217,3.2839414999999996,1.8556893,-8.491217
1116,1715728812870,3.2839414999999996,1.8556893,-8.491217,3.2839414999999996,1.8556893,-8.491217
1117,1715728812880,3.2839415,1.8556893,-8.491217,3.2839415,1.8556893,-8.491217
1118,1715728812890,3.867572775,1.4076127,-7.69080385,3.867572775,1.4076127,-7.69080385
1119,1715728812900,4.1211057,0.6672545,-6.7754765,4.1211057,0.6672545,-6.7754765
1120,1715728812910,4.1424108,-0.09427583,-5.840441,4.1424108,-0.09427583,-5.840441
1121,1715728812920,4.123502350000001,-0.1893173225,-5.696397375,4.123502350000001,-0.1893173225,-5.696397375
1122,1715728812930,3.8196359,-0.86858934,-4.581566,3.8196359,-0.86858934,-4.581566
1123,1715728812940,3.3180299,-1.1230541,-4.132158,3.3180299,-1.1230541,-4.132158
1124,1715728812950,2.472477,-1.380848,-3.5900717000000006,2.472477,-1.380848,-3.5900717000000006
1125,1715728812960,1.344629,-1.6076159999999997,-2.7722154,1.344629,-1.6076159999999997,-2.7722154
1126,1715728812970,1.344629,-1.607616,-2.7722154,1.344629,-1.607616,-2.7722154
1127,1715728812980,-1.053812,-1.7897761,-0.3631217500000001,-1.053812,-1.7897761,-0.3631217500000001
1128,1715728812990,-1.414836575,-1.7474318500000001,0.20083546249999998,-1.414836575,-1.7474318500000001,0.20083546249999998
1129,1715728813000,-2.5437164,-1.1496857,3.0587714,-2.5437164,-1.1496857,3.0587714
1130,1715728813010,-2.72182848,-0.60949058,4.62044788,-2.72182848,-0.60949058,4.62044788
1131,1715728813020,-2.7463828,-0.08545412000000001,6.102729,-2.7463828,-0.08545412000000001,6.102729
1132,1715728813030,-2.5192153,0.7087998,8.7064,-2.5192153,0.7087998,8.7064
1133,1715728813040,-2.457696325,0.8365315875,9.287933500000001,-2.457696325,0.8365315875,9.287933500000001
1134,1715728813050,-2.3061626,1.0580732,11.243192,-2.3061626,1.0580732,11.243192
1135,1715728813060,-2.3711438,0.8077361599999999,11.879022,-2.3711438,0.8077361599999999,11.879022
1136,1715728813070,-2.38861412,0.743207814,11.9043752,-2.38861412,0.743207814,11.9043752
1137,1715728813080,-2.6438513,-0.21571588999999997,11.649057,-2.6438513,-0.21571588999999997,11.649057
1138,1715728813090,-2.668618625,-0.2942457925,11.5997885,-2.668618625,-0.2942457925,11.5997885
1139,1715728813100,-2.8589013,-1.627856,10.474338,-2.8589013,-1.627856,10.474338
1140,1715728813110,-2.651308,-2.379799,9.633978,-2.651308,-2.379799,9.633978
1141,1715728813120,-2.6048625000000003,-2.4720242000000003,9.537065600000002,-2.6048625000000003,-2.4720242000000003,9.537065600000002
1142,1715728813130,-2.4190805,-2.840925,9.149416,-2.4190805,-2.840925,9.149416
1143,1715728813140,-2.4190805,-2.840925,9.149416,-2.4190805,-2.840925,9.149416
1144,1715728813150,-2.4190805,-2.840925,9.149416,-2.4190805,-2.840925,9.149416
1145,1715728813160,-2.4190805,-2.840925,9.149416,-2.4190805,-2.840925,9.149416
1146,1715728813170,-2.4190805,-2.840925,9.149416,-2.4190805,-2.840925,9.149416
1147,1715728813180,-2.4190805,-2.840925,9.149416,-2.4190805,-2.840925,9.149416
1148,1715728813190,-2.4190805,-2.840925,9.149416,-2.4190805,-2.840925,9.149416
1149,1715728813200,-2.4190805,-2.840925,9.149416,-2.4190805,-2.840925,9.149416
1150,1715728813210,-2.4190805,-2.840925,9.149416,-2.4190805,-2.840925,9.149416
1151,1715728813220,-2.0511651,-3.0842712,8.837360499999999,-2.0511651,-3.0842712,8.837360499999999
1152,1715728813230,-0.103730045,-2.3648853,7.8661733,-0.103730045,-2.3648853,7.8661733
1153,1715728813240,0.38722333,-1.4733927,6.8800054,0.38722333,-1.4733927,6.8800054
1154,1715728813250,0.46279048999999994,-1.08204155,3.3079765,0.46279048999999994,-1.08204155,3.3079765
1155,1715728813260,-0.52344394,0.7002777,-0.15219954,-0.52344394,0.7002777,-0.15219954
1156,1715728813270,-0.620755764,0.841478388,-0.8065377439999999,-0.620755764,0.841478388,-0.8065377439999999
1157,1715728813280,-0.8088014,1.1454247,-2.373807,-0.8088014,1.1454247,-2.373807
1158,1715728813290,-0.8088014,1.1688606,-2.567685,-0.8088014,1.1688606,-2.567685
1159,1715728813300,-0.65859926,1.1539469,-3.4036505,-0.65859926,1.1539469,-3.4036505
1160,1715728813310,-0.53942287,0.9845699,-3.5570486000000003,-0.53942287,0.9845699,-3.5570486000000003
1161,1715728813320,-0.53942287,0.9845699,-3.5570486,-0.53942287,0.9845699,-3.5570486
1162,1715728813330,-0.332335632,0.6629934319999999,-3.7764661599999996,-0.332335632,0.6629934319999999,-3.7764661599999996
1163,1715728813340,-0.17680712999999998,0.45185819600000005,-4.30638152,-0.17680712999999998,0.45185819600000005,-4.30638152
1164,1715728813350,-0.10053425,0.49574706,-5.075715,-0.10053425,0.49574706,-5.075715
1165,1715728813360,-0.16338481,0.8226498399999999,-5.663607,-0.16338481,0.8226498399999999,-5.663607
1166,1715728813370,-0.16338481,0.82264984,-5.663607,-0.16338481,0.82264984,-5.663607
1167,1715728813380,-0.44887546,1.8088176,-6.87135,-0.44887546,1.8088176,-6.87135
1168,1715728813390,-0.49601336500000004,1.996570275,-7.067791274999999,-0.49601336500000004,1.996570275,-7.067791274999999
1169,1715728813400,-0.5000081,2.614024,-7.76697,-0.5000081,2.614024,-7.76697
1170,1715728813410,-0.47018075000000004,2.674744,-7.8564525000000005,-0.47018075000000004,2.674744,-7.8564525000000005
1171,1715728813420,-0.47018075,2.674744,-7.8564525,-0.47018075,2.674744,-7.8564525
1172,1715728813430,-0.16451665999999998,2.7987805999999997,-8.20312925,-0.16451665999999998,2.7987805999999997,-8.20312925
1173,1715728813440,0.27856645,2.9110993,-8.606797499999999,0.27856645,2.9110993,-8.606797499999999
1174,1715728813450,0.91333044,2.808967,-8.726506,0.91333044,2.808967,-8.726506
1175,1715728813460,1.4181322,2.7056365,-8.663789,1.4181322,2.7056365,-8.663789
1176,1715728813470,1.4181321999999998,2.7056365,-8.663789,1.4181321999999998,2.7056365,-8.663789
1177,1715728813480,2.1220052,2.5426512,-8.407061,2.1220052,2.5426512,-8.407061
1178,1715728813490,2.48416145,2.388487575,-8.2534295,2.48416145,2.388487575,-8.2534295
1179,1715728813500,2.9485166,2.1433105,-8.063113,2.9485166,2.1433105,-8.063113
1180,1715728813510,3.0485848,2.06927465,-8.011448,3.0485848,2.06927465,-8.011448
1181,1715728813520,3.2577094000000004,1.8787255999999999,-7.852644100000001,3.2577094000000004,1.8787255999999999,-7.852644100000001
1182,1715728813530,3.9453373999999997,0.922758,-6.9367305,3.9453373999999997,0.922758,-6.9367305
1183,1715728813540,4.1160455,0.5247422150000001,-6.5449465,4.1160455,0.5247422150000001,-6.5449465
1184,1715728813550,4.544947,-0.7141261,-5.3356395,4.544947,-0.7141261,-5.3356395
1185,1715728813560,4.623777,-1.06553,-4.971319,4.623777,-1.06553,-4.971319
1186,1715728813570,4.623777,-1.06553,-4.971319,4.623777,-1.06553,-4.971319
1187,1715728813580,4.322307,-1.9239993,-4.133223,4.322307,-1.9239993,-4.133223
1188,1715728813590,3.59089712,-2.0973710199999998,-3.78946244,3.59089712,-2.0973710199999998,-3.78946244
1189,1715728813600,0.52877027,-2.4671507,-2.159822,0.52877027,-2.4671507,-2.159822
1190,1715728813610,0.52877027,-2.4671507,-2.159822,0.52877027,-2.4671507,-2.159822
1191,1715728813620,0.52877027,-2.4671507,-2.159822,0.52877027,-2.4671507,-2.159822
1192,1715728813630,0.52877027,-2.4671507,-2.159822,0.52877027,-2.4671507,-2.159822
1193,1715728813640,0.52877027,-2.4671507,-2.159822,0.52877027,-2.4671507,-2.159822
1194,1715728813650,0.52877027,-2.4671507,-2.159822,0.52877027,-2.4671507,-2.159822
1195,1715728813660,0.52877027,-2.4671507,-2.159822,0.52877027,-2.4671507,-2.159822
1196,1715728813670,0.52877027,-2.4671507,-2.159822,0.52877027,-2.4671507,-2.159822
1197,1715728813680,0.52877027,-2.4671507,-2.159822,0.52877027,-2.4671507,-2.159822
1198,1715728813690,0.52877027,-2.4671507,-2.159822,0.52877027,-2.4671507,-2.159822
1199,1715728813700,0.52877027,-2.4671507,-2.159822,0.52877027,-2.4671507,-2.159822
1200,1715728813710,0.52877027,-2.4671507,-2.159822,0.52877027,-2.4671507,-2.159822
1201,1715728813720,0.52877027,-2.4671507,-2.159822,0.52877027,-2.4671507,-2.159822
1202,1715728813730,0.52877027,-2.4671507,-2.159822,0.52877027,-2.4671507,-2.159822
1203,1715728813740,0.145408505,-2.4682159500000003,-1.86321265,0.145408505,-2.4682159500000003,-1.86321265
1204,1715728813750,,,,,,
1205,1715728813760,-2.308293,-1.3701954,4.105659,-2.308293,-1.3701954,4.105659
1206,1715728813770,-0.860999345,1.34236533,12.200730499999999,-0.860999345,1.34236533,12.200730499999999
1207,1715728813780,-1.6768582,1.2359722,12.951475,-1.6768582,1.2359722,12.951475
1208,1715728813790,-1.4900375,-1.8323422333333335,8.089745333333333,-1.4900375,-1.8323422333333335,8.089745333333333
1209,1715728813800,-0.78962666,-0.48083338,8.104659,-0.78962666,-0.48083338,8.104659
1210,1715728813810,-0.7425775266666667,-0.4160298466666667,8.032754,-0.7425775266666667,-0.4160298466666667,8.032754
1211,1715728813820,-0.7331677,-0.40306914,8.018373,-0.7331677,-0.40306914,8.018373
1212,1715728813830,-0.20925772525,-0.817623135,7.241196,-0.20925772525,-0.817623135,7.241196
1213,1715728813840,-0.034621067,-0.9558078,6.982136999999999,-0.034621067,-0.9558078,6.982136999999999
1214,1715728813850,0.62407804975,-1.4923012,6.16048595,0.62407804975,-1.4923012,6.16048595
1215,1715728813860,2.6406555,-2.8398597,3.0736852,2.6406555,-2.8398597,3.0736852
1216,1715728813870,1.8121467000000002,-1.2572774,1.5495591,1.8121467000000002,-1.2572774,1.5495591
1217,1715728813880,0.9695231,-0.29449213199999996,0.94129358,0.9695231,-0.29449213199999996,0.94129358
1218,1715728813890,0.48726935333333327,0.18584412333333336,0.6259311666666667,0.48726935333333327,0.18584412333333336,0.6259311666666667
1219,1715728813900,-0.8721313480000001,1.1668631999999999,-0.36272225999999996,-0.8721313480000001,1.1668631999999999,-0.36272225999999996
1220,1715728813910,-1.2167174800000002,1.33895652,-0.74738898,-1.2167174800000002,1.33895652,-0.74738898
1221,1715728813920,-1.4414349,1.2816453,-2.1140156,-1.4414349,1.2816453,-2.1140156
1222,1715728813930,-1.1761842,1.0910963,-2.8125622,-1.1761842,1.0910963,-2.8125622
1223,1715728813940,-1.120817132,1.04805964,-2.8847870999999996,-1.120817132,1.04805964,-2.8847870999999996
1224,1715728813950,-0.41372177,0.4595281,-3.595398,-0.41372177,0.4595281,-3.595398
1225,1715728813960,-0.18833860740000002,0.27121613,-3.8589176000000003,-0.18833860740000002,0.27121613,-3.8589176000000003
1226,1715728813970,0.056991603,0.09321057,-4.299404,0.056991603,0.09321057,-4.299404
1227,1715728813980,0.08042741,0.19640799,-4.615654,0.08042741,0.19640799,-4.615654
1228,1715728813990,0.042610548150000004,0.383894395,-4.843554,0.042610548150000004,0.383894395,-4.843554
1229,1715728814000,-0.15379743,1.142229,-5.602887,-0.15379743,1.142229,-5.602887
1230,1715728814010,-0.243279582,1.50601652,-5.9250229999999995,-0.243279582,1.50601652,-5.9250229999999995
1231,1715728814020,-0.27907244200000003,1.7409603999999999,-6.1638019,-0.27907244200000003,1.7409603999999999,-6.1638019
1232,1715728814030,-0.19534272,2.5671523,-7.2898655,-0.19534272,2.5671523,-7.2898655
1233,1715728814040,-0.19534272,2.5671523,-7.2898655,-0.19534272,2.5671523,-7.2898655
1234,1715728814050,0.3850928,2.5724785,-8.02796,0.3850928,2.5724785,-8.02796
1235,1715728814060,0.45769718,2.549309125,-8.087082500000001,0.45769718,2.549309125,-8.087082500000001
1236,1715728814070,1.0889658,2.4020364,-8.505065,1.0889658,2.4020364,-8.505065
1237,1715728814080,1.4767218,2.3572953,-8.630766,1.4767218,2.3572953,-8.630766
1238,1715728814090,1.61941384,2.34073046,-8.636305199999999,1.61941384,2.34073046,-8.636305199999999
1239,1715728814100,2.1742032,2.238119,-8.620113,2.1742032,2.238119,-8.620113
1240,1715728814110,2.2732726800000003,2.2151093,-8.6009388,2.2732726800000003,2.2151093,-8.6009388
1241,1715728814120,2.8015103,2.044241,-8.411322,2.8015103,2.044241,-8.411322
1242,1715728814130,2.9779178600000002,1.95156302,-8.2745418,2.9779178600000002,1.95156302,-8.2745418
1243,1715728814140,3.0955229,1.8897777,-8.183355,3.0955229,1.8897777,-8.183355
1244,1715728814150,3.5587795,1.0591384,-7.025813,3.5587795,1.0591384,-7.025813
1245,1715728814160,3.58051084,0.85724428,-6.771428,3.58051084,0.85724428,-6.771428
1246,1715728814170,3.5949984,0.7226482,-6.601838,3.5949984,0.7226482,-6.601838
1247,1715728814180,3.5949984,0.7226482,-6.601838,3.5949984,0.7226482,-6.601838
1248,1715728814190,3.5949984,0.7226482,-6.601838,3.5949984,0.7226482,-6.601838
1249,1715728814200,3.5949984,0.7226482,-6.601838,3.5949984,0.7226482,-6.601838
1250,1715728814210,3.5949984,0.7226482,-6.601838,3.5949984,0.7226482,-6.601838
1251,1715728814220,3.5949984,0.7226482,-6.601837999999999,3.5949984,0.7226482,-6.601837999999999
1252,1715728814230,3.5949984,0.7226482,-6.601838,3.5949984,0.7226482,-6.601838
1253,1715728814240,3.2264173,-0.89295727,-4.554934,3.2264173,-0.89295727,-4.554934
1254,1715728814250,2.9272113,-1.1400985,-4.3292313,2.9272113,-1.1400985,-4.3292313
1255,1715728814260,-1.0040997,-2.1074908666666663,-0.9506590666666667,-1.0040997,-2.1074908666666663,-0.9506590666666667
1256,1715728814270,-0.835433,-1.4266543,5.6956983,-0.835433,-1.4266543,5.6956983
1257,1715728814280,-0.45633233000000006,-1.0793784,6.742586,-0.45633233000000006,-1.0793784,6.742586
1258,1715728814290,0.013349070000000018,-0.537325645,8.46944525,0.013349070000000018,-0.537325645,8.46944525
1259,1715728814300,0.6555366000000001,0.2752375,11.204843,0.6555366000000001,0.2752375,11.204843
1260,1715728814310,0.68323344,0.42650494,11.835344999999998,0.68323344,0.42650494,11.835344999999998
1261,1715728814320,0.43942127,0.9089362,12.830035,0.43942127,0.9089362,12.830035
1262,1715728814330,-0.033555806,1.1283805,12.773709000000002,-0.033555806,1.1283805,12.773709000000002
1263,1715728814340,-0.033555806,1.1283805,12.773709,-0.033555806,1.1283805,12.773709
1264,1715728814350,-1.2006853,0.7205177,11.6160345,-1.2006853,0.7205177,11.6160345
1265,1715728814360,-1.49789386,0.4865858,11.117571,-1.49789386,0.4865858,11.117571
1266,1715728814370,-2.0650136000000003,0.06438187000000001,10.005156,-2.0650136000000003,0.06438187000000001,10.005156
1267,1715728814380,-2.6672869999999995,-0.3382212,8.530631,-2.6672869999999995,-0.3382212,8.530631
1268,1715728814390,-2.6761642333333335,-0.3282787466666666,8.429475333333334,-2.6761642333333335,-0.3282787466666666,8.429475333333334
1269,1715728814400,-2.5714133,-0.15712638,8.087615,-2.5714133,-0.15712638,8.087615
1270,1715728814410,-2.3472085750000002,-0.27640262250000003,8.08148975,-2.3472085750000002,-0.27640262250000003,8.08148975
1271,1715728814420,-1.8365145,-0.6352966,8.043939,-1.8365145,-0.6352966,8.043939
1272,1715728814430,-0.9824394,-1.3179975,7.959916,-0.9824394,-1.3179975,7.959916
1273,1715728814440,-0.5679453139999999,-1.6084948999999997,7.81461424,-0.5679453139999999,-1.6084948999999997,7.81461424
1274,1715728814450,1.1496857,-2.878209,6.742586,1.1496857,-2.878209,6.742586
1275,1715728814460,1.78315145,-3.26879475,6.08675,1.78315145,-3.26879475,6.08675
1276,1715728814470,3.0220199,-3.4139037,4.3057957,3.0220199,-3.4139037,4.3057957
1277,1715728814480,2.9250808,-2.6662216,3.0459883,2.9250808,-2.6662216,3.0459883
1278,1715728814490,2.9250808,-2.6662216,3.0459883,2.9250808,-2.6662216,3.0459883
1279,1715728814500,0.5873597,-0.08149267,0.8968188,0.5873597,-0.08149267,0.8968188
1280,1715728814510,0.19600849000000004,0.23535668499999998,0.67151556,0.19600849000000004,0.23535668499999998,0.67151556
1281,1715728814520,-2.443768,1.95348048,-0.9379912600000001,-2.443768,1.95348048,-0.9379912600000001
1282,1715728814530,-3.0921940000000006,2.1912472,-1.5889739,-3.0921940000000006,2.1912472,-1.5889739
1283,1715728814540,-3.1995192799999996,2.1920994,-1.91483806,-3.1995192799999996,2.1920994,-1.91483806
1284,1715728814550,-3.19443264,2.04338858,-2.94468158,-3.19443264,2.04338858,-2.94468158
1285,1715728814560,-2.9771455000000002,1.905223975,-3.256510875,-2.9771455000000002,1.905223975,-3.256510875
1286,1715728814570,-1.992043,1.3849759,-3.6976633,-1.992043,1.3849759,-3.6976633
1287,1715728814580,-1.992043,1.3849759,-3.6976633,-1.992043,1.3849759,-3.6976633
1288,1715728814590,-1.276618565,0.99895105,-3.97343345,-1.276618565,0.99895105,-3.97343345
