id,timestamp,acc_x,acc_y,acc_z,gyro_x,gyro_y,gyro_z
0,1715729239070,-0.6801042675,-1.2794148875,-1.248755314,-0.6801042675,-1.2794148875,-1.248755314
1,1715729239080,-0.07576687857142858,0.45068261,0.574253168,-0.07576687857142858,0.45068261,0.574253168
2,1715729239090,0.12516847,0.31625015,1.2456926,0.12516847,0.31625015,1.2456926
3,1715729239100,0.23702116,0.37044543,1.8399767,0.23702116,0.37044543,1.8399767
4,1715729239110,0.28450148,0.4343612414285714,2.1631320142857144,0.28450148,0.4343612414285714,2.1631320142857144
5,1715729239120,0.39361492,0.6527403000000002,2.9369318,0.39361492,0.6527403000000002,2.9369318
6,1715729239130,0.46572946,0.8012494714285714,3.312855757142857,0.46572946,0.8012494714285714,3.312855757142857
7,1715729239140,0.61487905,1.1380123,4.065112583333334,0.61487905,1.1380123,4.065112583333334
8,1715729239150,0.6885598,1.3279843,4.450272,0.6885598,1.3279843,4.450272
9,1715729239160,0.7005820657142857,1.4466090142857144,4.709815999999999,0.7005820657142857,1.4466090142857144,4.709815999999999
10,1715729239170,0.65766716,1.6122766000000002,5.14256,0.65766716,1.6122766000000002,5.14256
11,1715729239180,0.5689649428571429,1.6611265285714285,5.256790571428572,0.5689649428571429,1.6611265285714285,5.256790571428572
12,1715729239190,0.21358536,1.8690051,5.650557999999999,0.21358536,1.8690051,5.650557999999999
13,1715729239200,-0.1079911,2.0329225,5.8794565,-0.1079911,2.0329225,5.8794565
14,1715729239210,-0.4521853842857143,2.2999612857142857,6.145125571428571,-0.4521853842857143,2.2999612857142857,6.145125571428571
15,1715729239220,-0.7821698,2.588857,6.4417824999999995,-0.7821698,2.588857,6.4417824999999995
16,1715729239230,-0.8503466749999999,2.66449075,6.53605825,-0.8503466749999999,2.66449075,6.53605825
17,1715729239240,-1.3621488428571429,3.126073257142857,7.3241060000000004,-1.3621488428571429,3.126073257142857,7.3241060000000004
18,1715729239250,-1.5500917,3.2896674000000004,7.572826,-1.5500917,3.2896674000000004,7.572826
19,1715729239260,-1.7761939,3.452963366666667,7.6715404666666664,-1.7761939,3.452963366666667,7.6715404666666664
20,1715729239270,-2.2283983,3.7795553,7.8689694,-2.2283983,3.7795553,7.8689694
21,1715729239280,-2.398079657142857,3.848036657142857,7.8765784000000005,-2.398079657142857,3.848036657142857,7.8765784000000005
22,1715729239290,-3.33068,3.874364,7.907318999999999,-3.33068,3.874364,7.907318999999999
23,1715729239300,-3.8410077499999997,3.560222,7.967573166666667,-3.8410077499999997,3.560222,7.967573166666667
24,1715729239310,-3.9430733,3.4973936,7.979624,-3.9430733,3.4973936,7.979624
25,1715729239320,-4.747569366666666,2.2321046166666663,8.073012333333333,-4.747569366666666,2.2321046166666663,8.073012333333333
26,1715729239330,-4.82473886,1.9703382599999997,8.0769892,-4.82473886,1.9703382599999997,8.0769892
27,1715729239340,-4.804183500000001,0.49960863333333333,8.1521965,-4.804183500000001,0.49960863333333333,8.1521965
28,1715729239350,-4.2935452,-0.12050795,8.245939,-4.2935452,-0.12050795,8.245939
29,1715729239360,-4.194120533333333,-0.014336673333333336,8.226764666666666,-4.194120533333333,-0.014336673333333336,8.226764666666666
30,1715729239370,-3.9824882,0.67404556,8.077628,-3.9824882,0.67404556,8.077628
31,1715729239380,-4.11511355,1.059837415,7.945901225,-4.11511355,1.059837415,7.945901225
32,1715729239390,-4.64921,1.5100112,7.411971,-4.64921,1.5100112,7.411971
33,1715729239400,-4.6311007,0.98709995,7.0392623,-4.6311007,0.98709995,7.0392623
34,1715729239410,-4.55972795,0.8223169699999999,6.962063925,-4.55972795,0.8223169699999999,6.962063925
35,1715729239420,-3.5298843,-0.6615287,6.2970395,-3.5298843,-0.6615287,6.2970395
36,1715729239430,-3.26153775,-0.8084352125,6.209155324999999,-3.26153775,-0.8084352125,6.209155324999999
37,1715729239440,-2.3796659,-0.90427566,5.972134,-2.3796659,-0.90427566,5.972134
38,1715729239450,-2.0975041,-0.9149283,5.8741302,-2.0975041,-0.9149283,5.8741302
39,1715729239460,-1.82939055,-0.9570062,5.8118454999999996,-1.82939055,-0.9570062,5.8118454999999996
40,1715729239470,-0.2049301,-1.0491515,5.4193954,-0.2049301,-1.0491515,5.4193954
41,1715729239480,-0.1388837525,-0.9617998999999999,5.3410985,-0.1388837525,-0.9617998999999999,5.3410985
42,1715729239490,-0.33702278,-0.3195791,4.6526723,-0.33702278,-0.3195791,4.6526723
43,1715729239500,-0.9845699,-0.24820642,3.685546,-0.9845699,-0.24820642,3.685546
44,1715729239510,-0.9712541,-0.351692345,3.4201843666666663,-0.9712541,-0.351692345,3.4201843666666663
45,1715729239520,-0.9046751000000001,-0.8691219699999999,2.0933762,-0.9046751000000001,-0.8691219699999999,2.0933762
46,1715729239530,-0.7082005499999999,-0.979909385,1.7744629,-0.7082005499999999,-0.979909385,1.7744629
47,1715729239540,0.09108004,-1.0928273,0.38842174,0.09108004,-1.0928273,0.38842174
48,1715729239550,0.230629574,-0.781370872,-0.638519016,0.230629574,-0.781370872,-0.638519016
49,1715729239560,0.17523587,-0.4857602,-1.3464932,0.17523587,-0.4857602,-1.3464932
50,1715729239570,0.16138744,-0.20453063,-2.3198779,0.16138744,-0.20453063,-2.3198779
51,1715729239580,0.3648195,-0.174769815,-3.14822025,0.3648195,-0.174769815,-3.14822025
52,1715729239590,0.7087998,-0.26418537,-4.1549277,0.7087998,-0.26418537,-4.1549277
53,1715729239600,0.907737795,-0.4183823025,-4.661360625,0.907737795,-0.4183823025,-4.661360625
54,1715729239610,1.0932268,-0.58269924,-5.3445606,1.0932268,-0.58269924,-5.3445606
55,1715729239620,1.0602037,-0.5006739,-5.7428365,1.0602037,-0.5006739,-5.7428365
56,1715729239630,1.03383842,-0.43633198,-5.847232180000001,1.03383842,-0.43633198,-5.847232180000001
57,1715729239640,0.9506146300000001,-0.08002793,-6.431928600000001,0.9506146300000001,-0.08002793,-6.431928600000001
58,1715729239650,1.0793784,0.076565824,-6.897316,1.0793784,0.076565824,-6.897316
59,1715729239660,1.231711,0.098936364,-7.1389976,1.231711,0.098936364,-7.1389976
60,1715729239670,1.4042838,0.08189214,-7.3616376,1.4042838,0.08189214,-7.3616376
61,1715729239680,1.4042838,0.08189214,-7.3616376,1.4042838,0.08189214,-7.3616376
62,1715729239690,1.8291908999999997,-0.20879167,-8.128494,1.8291908999999997,-0.20879167,-8.128494
63,1715729239700,1.9538267,-0.29827383,-8.336087,1.9538267,-0.29827383,-8.336087
64,1715729239710,2.2572937,-0.5432845,-8.805736,2.2572937,-0.5432845,-8.805736
65,1715729239720,2.2892516,-0.6530066,-9.010266,2.2892516,-0.6530066,-9.010266
66,1715729239730,2.25409784,-0.69894608,-9.0805734,2.25409784,-0.69894608,-9.0805734
67,1715729239740,2.051831,-0.8744482999999998,-9.233972,2.051831,-0.8744482999999998,-9.233972
68,1715729239750,1.9644793,-0.9223851599999999,-9.251016,1.9644793,-0.9223851599999999,-9.251016
69,1715729239760,1.895769775,-0.946353595,-9.23770025,1.895769775,-0.946353595,-9.23770025
70,1715729239770,1.61813548,-1.0240112799999999,-9.149816,1.61813548,-1.0240112799999999,-9.149816
71,1715729239780,1.4849775250000001,-1.025449425,-9.026778,1.4849775250000001,-1.025449425,-9.026778
72,1715729239790,1.3542165,-1.0384989,-8.783365,1.3542165,-1.0384989,-8.783365
73,1715729239800,1.3254542,-1.1375684,-8.532096,1.3254542,-1.1375684,-8.532096
74,1715729239810,1.4034316,-1.27208456,-8.378271699999999,1.4034316,-1.27208456,-8.378271699999999
75,1715729239820,1.493766,-1.2908332,-8.2743025,1.493766,-1.2908332,-8.2743025
76,1715729239830,1.558380825,-1.2724573750000001,-8.193707875,1.558380825,-1.2724573750000001,-8.193707875
77,1715729239840,1.6459654999999997,-1.2302463,-7.916507,1.6459654999999997,-1.2302463,-7.916507
78,1715729239850,1.6331823,-1.2302463,-7.773761300000001,1.6331823,-1.2302463,-7.773761300000001
79,1715729239860,1.4064143,-1.2780501,-7.254046,1.4064143,-1.2780501,-7.254046
80,1715729239870,1.17205638,-1.2814589,-6.95587856,1.17205638,-1.2814589,-6.95587856
81,1715729239880,0.7678154399999999,-1.09980482,-6.6152872,0.7678154399999999,-1.09980482,-6.6152872
82,1715729239890,0.3829623,-0.8605999,-6.340316,0.3829623,-0.8605999,-6.340316
83,1715729239900,0.2727075,-0.704904925,-6.258024275,0.2727075,-0.704904925,-6.258024275
84,1715729239910,-0.04833634,0.076565824,-5.766272,-0.04833634,0.076565824,-5.766272
85,1715729239920,-0.12716585,0.43329600000000007,-5.4585443,-0.12716585,0.43329600000000007,-5.4585443
86,1715729239930,-0.15869765,0.78355464,-5.02317094,-0.15869765,0.78355464,-5.02317094
87,1715729239940,-0.14740586,1.1937611,-3.9312222,-0.14740586,1.1937611,-3.9312222
88,1715729239950,-0.07603319,1.2821779,-2.9961872,-0.07603319,1.2821779,-2.9961872
89,1715729239960,0.11025479,1.2747211,-1.9812572,0.11025479,1.2747211,-1.9812572
90,1715729239970,0.38615808,1.1426284,-0.8864325,0.38615808,1.1426284,-0.8864325
91,1715729239980,0.49634628999999997,1.072321,-0.478037055,0.49634628999999997,1.072321,-0.478037055
92,1715729239990,0.8590019999999999,0.84555304,0.96020204,0.8590019999999999,0.84555304,0.96020204
93,1715729240000,0.9548757,0.805073,1.4342444,0.9548757,0.805073,1.4342444
94,1715729240010,0.9919469,0.7550055999999999,2.983111,0.9919469,0.7550055999999999,2.983111
95,1715729240020,0.9229178000000001,0.764593,3.402319,0.9229178000000001,0.764593,3.402319
96,1715729240030,0.8166045000000001,0.8118640599999999,3.72096594,0.8166045000000001,0.8118640599999999,3.72096594
97,1715729240040,0.5692503,0.9285104000000001,4.4204445,0.5692503,0.9285104000000001,4.4204445
98,1715729240050,0.5042692,0.98283887,4.6143227,0.5042692,0.98283887,4.6143227
99,1715729240060,0.45710462199999996,1.16222926,5.1278329,0.45710462199999996,1.16222926,5.1278329
100,1715729240070,0.50227183,1.2406327,5.3245873,0.50227183,1.2406327,5.3245873
101,1715729240080,0.5602621,1.29203165,5.4777189,0.5602621,1.29203165,5.4777189
102,1715729240090,0.6555366,1.3833779999999998,5.760279999999999,0.6555366,1.3833779999999998,5.760279999999999
103,1715729240100,0.63742715,1.403618,5.824063,0.63742715,1.403618,5.824063
104,1715729240110,0.2533774016666666,1.4654476499999998,5.787865833333332,0.2533774016666666,1.4654476499999998,5.787865833333332
105,1715729240120,-0.10692584,1.5568829,5.7134085,-0.10692584,1.5568829,5.7134085
106,1715729240130,-0.32583752,1.61866815,5.6846464,-0.32583752,1.61866815,5.6846464
107,1715729240140,-1.337039,1.9584872,5.6974297,-1.337039,1.9584872,5.6974297
108,1715729240150,-1.4851106500000002,2.0143469,5.74103885,-1.4851106500000002,2.0143469,5.74103885
109,1715729240160,-2.1964405,2.3152173,6.234189,-2.1964405,2.3152173,6.234189
110,1715729240170,-2.3498384000000003,2.43605815,6.6740098,-2.3498384000000003,2.43605815,6.6740098
111,1715729240180,-2.50834956,2.57671294,7.18240692,-2.50834956,2.57671294,7.18240692
112,1715729240190,-2.561826,2.8370633,8.091476,-2.561826,2.8370633,8.091476
113,1715729240200,-2.6017734,2.9433235250000003,8.375003,-2.6017734,2.9433235250000003,8.375003
114,1715729240210,-2.7845326999999997,3.1117904333333333,8.785539499999999,-2.7845326999999997,3.1117904333333333,8.785539499999999
115,1715729240220,-3.221091,3.2087073,8.840223,-3.221091,3.2087073,8.840223
116,1715729240230,-3.28625848,3.20657676,8.802299600000001,-3.28625848,3.20657676,8.802299600000001
117,1715729240240,-4.1049933,3.0192235,8.224634,-4.1049933,3.0192235,8.224634
118,1715729240250,-4.1049933,3.0192235,8.224634,-4.1049933,3.0192235,8.224634
119,1715729240260,-4.259456525,2.477070875,7.891007,-4.259456525,2.477070875,7.891007
120,1715729240270,-4.28459676,1.85936446,7.5983924,-4.28459676,1.85936446,7.5983924
121,1715729240280,-3.2044728,0.49878306200000005,7.372236920000001,-3.2044728,0.49878306200000005,7.372236920000001
122,1715729240290,-2.1571589,-0.25566328,7.2629676,-2.1571589,-0.25566328,7.2629676
123,1715729240300,-1.45783995,-0.325757616,7.14834504,-1.45783995,-0.325757616,7.14834504
124,1715729240310,-0.25606275,-0.38029912,6.866688999999999,-0.25606275,-0.38029912,6.866688999999999
125,1715729240320,0.31904647,-0.32064435,6.509959,0.31904647,-0.32064435,6.509959
126,1715729240330,0.447677042,-0.31638329800000003,6.35661436,0.447677042,-0.31638329800000003,6.35661436
127,1715729240340,0.8004125,-0.32064435,5.7613454,0.8004125,-0.32064435,5.7613454
128,1715729240350,0.8281093333333333,-0.31283242333333333,5.635644133333334,0.8281093333333333,-0.31283242333333333,5.635644133333334
129,1715729240360,0.83897504,-0.10431594599999998,4.7043374799999995,0.83897504,-0.10431594599999998,4.7043374799999995
130,1715729240370,0.7716504,-0.00972053,4.208457,0.7716504,-0.00972053,4.208457
131,1715729240380,0.7119956000000001,-0.03901528,3.8495964000000003,0.7119956000000001,-0.03901528,3.8495964000000003
132,1715729240390,0.6225134,-0.3430149,2.6780727,0.6225134,-0.3430149,2.6780727
133,1715729240400,0.65660185,-0.513856574,2.17177956,0.65660185,-0.513856574,2.17177956
134,1715729240410,0.76760235,-1.0531996,0.36597131,0.76760235,-1.0531996,0.36597131
135,1715729240420,0.76845455,-1.1972232,-0.57550865,0.76845455,-1.1972232,-0.57550865
136,1715729240430,0.6933534575,-1.265033925,-1.4229924875,0.6933534575,-1.265033925,-1.4229924875
137,1715729240440,0.5852292,-1.3206606,-2.4359915,0.5852292,-1.3206606,-2.4359915
138,1715729240450,0.55071465,-1.35837096,-2.81940662,0.55071465,-1.35837096,-2.81940662
139,1715729240460,0.52877027,-1.6828502,-4.1261654,0.52877027,-1.6828502,-4.1261654
140,1715729240470,0.6139913,-2.009753,-4.645881,0.6139913,-2.009753,-4.645881
141,1715729240480,0.679824596,-2.14269788,-4.8242061,0.679824596,-2.14269788,-4.8242061
142,1715729240490,0.847284052,-2.3726882799999998,-5.206316299999999,0.847284052,-2.3726882799999998,-5.206316299999999
143,1715729240500,0.8984167060000001,-2.41718968,-5.3175032,0.8984167060000001,-2.41718968,-5.3175032
144,1715729240510,1.0633994,-2.4687486,-5.896234,1.0633994,-2.4687486,-5.896234
145,1715729240520,1.0559425,-2.5731444,-6.2700086,1.0559425,-2.5731444,-6.2700086
146,1715729240530,1.053812,-2.6306686249999998,-6.3307287,1.053812,-2.6306686249999998,-6.3307287
147,1715729240540,1.0793784,-3.0055082,-6.6821326999999995,1.0793784,-3.0055082,-6.6821326999999995
148,1715729240550,1.2132465000000001,-3.285983266666667,-6.906148766666667,1.2132465000000001,-3.285983266666667,-6.906148766666667
149,1715729240560,1.4032185,-3.6424025999999996,-7.189065000000001,1.4032185,-3.6424025999999996,-7.189065000000001
150,1715729240570,1.439171175,-3.68874165,-7.22661555,1.439171175,-3.68874165,-7.22661555
151,1715729240580,1.511183,-3.80341728,-7.31455304,1.511183,-3.80341728,-7.31455304
152,1715729240590,1.4468943,-4.0087204,-7.4873385,1.4468943,-4.0087204,-7.4873385
153,1715729240600,1.3510206,-4.0047256,-7.499323125,1.3510206,-4.0047256,-7.499323125
154,1715729240610,0.994476892,-3.9574812,-7.485421199999999,0.994476892,-3.9574812,-7.485421199999999
155,1715729240620,0.6559627279999999,-3.8471464400000004,-7.417031399999999,0.6559627279999999,-3.8471464400000004,-7.417031399999999
156,1715729240630,0.4171838761999999,-3.72613246,-7.32605782,0.4171838761999999,-3.72613246,-7.32605782
157,1715729240640,0.017576851,-3.4953963999999997,-7.1432586,0.017576851,-3.4953963999999997,-7.1432586
158,1715729240650,-0.13412335475,-3.428384575,-7.006738425,-0.13412335475,-3.428384575,-7.006738425
159,1715729240660,-0.28269434,-3.3858073000000006,-6.7140903,-0.28269434,-3.3858073000000006,-6.7140903
160,1715729240670,-0.28802067,-3.299521,-6.561891,-0.28802067,-3.299521,-6.561891
161,1715729240680,-0.285037922,-3.2304919599999997,-6.48689636,-0.285037922,-3.2304919599999997,-6.48689636
162,1715729240690,-0.2784333,-2.9224176000000006,-6.179461,-0.2784333,-2.9224176000000006,-6.179461
163,1715729240700,-0.27949855,-2.86282945,-6.1272633,-0.27949855,-2.86282945,-6.1272633
164,1715729240710,-0.31758170750000003,-2.4482755,-5.8021914,-0.31758170750000003,-2.4482755,-5.8021914
165,1715729240720,-0.38815543,-2.1567595,-5.592634,-0.38815543,-2.1567595,-5.592634
166,1715729240730,-0.678373215,-1.9464364500000002,-5.45954265,-0.678373215,-1.9464364500000002,-5.45954265
167,1715729240740,-0.968591,-1.7361134,-5.3264513,-0.968591,-1.7361134,-5.3264513
168,1715729240750,-1.3874615333333333,-1.5529102666666665,-5.255966416666667,-1.3874615333333333,-1.5529102666666665,-5.255966416666667
169,1715729240760,-1.9909778,-1.2419642,-5.18051,-1.9909778,-1.2419642,-5.18051
170,1715729240770,-2.3988407,-0.81159776,-5.1123333,-2.3988407,-0.81159776,-5.1123333
171,1715729240780,-2.3988407,-0.81159776,-5.1123333,-2.3988407,-0.81159776,-5.1123333
172,1715729240790,-2.73580996,-0.11725890239999999,-4.8691068,-2.73580996,-0.11725890239999999,-4.8691068
173,1715729240800,-2.72321328,0.18817882560000002,-4.48252264,-2.72321328,0.18817882560000002,-4.48252264
174,1715729240810,-2.4829965,0.5739108,-3.5979280000000005,-2.4829965,0.5739108,-3.5979280000000005
175,1715729240820,-1.8429061,0.59521604,-2.5606275,-1.8429061,0.59521604,-2.5606275
176,1715729240830,-1.459091604,0.5662408839999999,-1.97190954,-1.459091604,0.5662408839999999,-1.97190954
177,1715729240840,-0.88336986,0.52277815,-1.0888326,-0.88336986,0.52277815,-1.0888326
178,1715729240850,-0.7355645399999999,0.53396341,-0.62793963,-0.7355645399999999,0.53396341,-0.62793963
179,1715729240860,-0.64262027,0.8839025,0.6865624,-0.64262027,0.8839025,0.6865624
180,1715729240870,-0.693752934,1.08747442,1.2514716799999999,-0.693752934,1.08747442,1.2514716799999999
181,1715729240880,-0.7065361,1.1383674,1.392699,-0.7065361,1.1383674,1.392699
182,1715729240890,-0.845659568,1.6698007400000001,2.1263993599999997,-0.845659568,1.6698007400000001,2.1263993599999997
183,1715729240900,-0.8013445920000001,1.7430908600000001,2.7011091200000004,-0.8013445920000001,1.7430908600000001,2.7011091200000004
184,1715729240910,-0.65007716,1.7188029,3.5642389999999997,-0.65007716,1.7188029,3.5642389999999997
185,1715729240920,-0.34447962,1.4876406,4.0115166,-0.34447962,1.4876406,4.0115166
186,1715729240930,-0.11100046999999999,1.2821779599999998,4.287499899999999,-0.11100046999999999,1.2821779599999998,4.287499899999999
187,1715729240940,0.09853689,1.0307758,4.5610595,0.09853689,1.0307758,4.5610595
188,1715729240950,0.24445137199999997,0.91511476,4.74399176,0.24445137199999997,0.91511476,4.74399176
189,1715729240960,0.5937513,0.7145256,5.1798444,0.5937513,0.7145256,5.1798444
190,1715729240970,0.7982819400000001,0.65742748,5.4711941600000005,0.7982819400000001,0.65742748,5.4711941600000005
191,1715729240980,1.0687702000000001,0.6012525566666667,5.982121199999999,1.0687702000000001,0.6012525566666667,5.982121199999999
192,1715729240990,1.2668648,0.61652136,6.5994415,1.2668648,0.61652136,6.5994415
193,1715729241000,1.25834264,0.690663672,7.004135099999999,1.25834264,0.690663672,7.004135099999999
194,1715729241010,1.09855314,0.94430289,7.60118866,1.09855314,0.94430289,7.60118866
195,1715729241020,0.9984849299999999,1.09362625,7.8321512,0.9984849299999999,1.09362625,7.8321512
196,1715729241030,0.547385708,1.6359786800000002,8.14814848,0.547385708,1.6359786800000002,8.14814848
197,1715729241040,-0.42224386,2.4899206,8.301333,-0.42224386,2.4899206,8.301333
198,1715729241050,-0.981587204,2.5686968,8.2572312,-0.981587204,2.5686968,8.2572312
199,1715729241060,-1.9622157,2.4558322,8.14687,-1.9622157,2.4558322,8.14687
200,1715729241070,-2.2539647,2.1053605,8.010516,-2.2539647,2.1053605,8.010516
201,1715729241080,-2.2528994,1.4919018,7.7155714,-2.2528994,1.4919018,7.7155714
202,1715729241090,-2.0378494,0.9945568,7.490801,-2.0378494,0.9945568,7.490801
203,1715729241100,-1.86932462,0.630369776,7.3196128400000005,-1.86932462,0.630369776,7.3196128400000005
204,1715729241110,-1.6873776000000003,0.20226693000000004,7.075481,-1.6873776000000003,0.20226693000000004,7.075481
205,1715729241120,-1.615605475,0.005459475749999998,6.674842,-1.615605475,0.005459475749999998,6.674842
206,1715729241130,-1.6144071199999999,-0.0118510568,6.23695896,-1.6144071199999999,-0.0118510568,6.23695896
207,1715729241140,-1.6799208,0.06910898,5.9455028,-1.6799208,0.06910898,5.9455028
208,1715729241150,-1.56002536,-0.15156038700000002,5.63623008,-1.56002536,-0.15156038700000002,5.63623008
209,1715729241160,-1.0740521,-0.9127978000000001,4.772914,-1.0740521,-0.9127978000000001,4.772914
210,1715729241170,0.063383184,-1.6839155,4.3469415,0.063383184,-1.6839155,4.3469415
211,1715729241180,1.3949293999999999,-1.83002305,4.14617275,1.3949293999999999,-1.83002305,4.14617275
212,1715729241190,1.8110813,-1.6327828,4.061584,1.8110813,-1.6327828,4.061584
213,1715729241200,1.7987509,-1.0783397232,3.88690736,1.7987509,-1.0783397232,3.88690736
214,1715729241210,1.4873743,-0.098137416,3.5567822,1.4873743,-0.098137416,3.5567822
215,1715729241220,1.210459086,0.2433328408,3.2696404,1.210459086,0.2433328408,3.2696404
216,1715729241230,0.48948863,1.0691252,2.4406521,0.48948863,1.0691252,2.4406521
217,1715729241240,0.2210422,1.180978,1.9507641,0.2210422,1.180978,1.9507641
218,1715729241250,0.1984053485,1.00497645,1.42385805,0.1984053485,1.00497645,1.42385805
219,1715729241260,0.2561959,0.5834982,0.3809649,0.2561959,0.5834982,0.3809649
220,1715729241270,0.545648,0.2772681505,-0.36888081500000003,0.545648,0.2772681505,-0.36888081500000003
221,1715729241280,0.93783146,-0.011851058,-1.3113395,0.93783146,-0.011851058,-1.3113395
222,1715729241290,1.1283805,-0.107724786,-2.0100193,1.1283805,-0.107724786,-2.0100193
223,1715729241300,1.1382342,-0.115181632,-2.119441875,1.1382342,-0.115181632,-2.119441875
224,1715729241310,1.1539469,-0.19387798,-3.0707557,1.1539469,-0.19387798,-3.0707557
225,1715729241320,1.1432942,-0.25140223,-3.3147010000000003,1.1432942,-0.25140223,-3.3147010000000003
226,1715729241330,1.1891005,-0.4836297,-3.9589190000000003,1.1891005,-0.4836297,-3.9589190000000003
227,1715729241340,1.2689953,-0.64874554,-4.2987385,1.2689953,-0.64874554,-4.2987385
228,1715729241350,1.364602775,-0.7802057675,-4.572943875,1.364602775,-0.7802057675,-4.572943875
229,1715729241360,1.4767218,-0.95540833,-4.916458,1.4767218,-0.95540833,-4.916458
230,1715729241370,1.49717484,-1.030402866,-5.0365132,1.49717484,-1.030402866,-5.0365132
231,1715729241380,1.49781392,-1.3355743199999999,-5.569305,1.49781392,-1.3355743199999999,-5.569305
232,1715729241390,1.4543512,-1.4506228,-5.7992954,1.4543512,-1.4506228,-5.7992954
233,1715729241400,1.432246975,-1.47166175,-5.84749855,1.432246975,-1.47166175,-5.84749855
234,1715729241410,1.1134669,-1.6679366,-6.3094234,1.1134669,-1.6679366,-6.3094234
235,1715729241420,0.9342584216666666,-1.7465662833333333,-6.467415166666666,0.9342584216666666,-1.7465662833333333,-6.467415166666666
236,1715729241430,0.53196603,-1.9053571000000002,-6.775875600000001,0.53196603,-1.9053571000000002,-6.775875600000001
237,1715729241440,0.37124437,-1.9639467,-6.884532500000001,0.37124437,-1.9639467,-6.884532500000001
238,1715729241450,0.211028722,-2.01380102,-6.9693275,0.211028722,-2.01380102,-6.9693275
239,1715729241460,-0.38709018,-2.2206752,-7.201848,-0.38709018,-2.2206752,-7.201848
240,1715729241470,-0.465706632,-2.2551897199999997,-7.2191051999999996,-0.465706632,-2.2551897199999997,-7.2191051999999996
241,1715729241480,-0.8418246,-2.389919,-7.2359366,-0.8418246,-2.389919,-7.2359366
242,1715729241490,-0.91852356,-2.3320752399999995,-7.18139484,-0.91852356,-2.3320752399999995,-7.18139484
243,1715729241500,-0.938763575,-2.2821942249999996,-7.1451559,-0.938763575,-2.2821942249999996,-7.1451559
244,1715729241510,-0.95474255,-1.8648771,-6.845118000000001,-0.95474255,-1.8648771,-6.845118000000001
245,1715729241520,-0.9803089,-1.7765934,-6.736461,-0.9803089,-1.7765934,-6.736461
246,1715729241530,-1.094292,-1.5369091,-6.409558299999999,-1.094292,-1.5369091,-6.409558299999999
247,1715729241540,-1.17003224,-1.35709254,-6.2842832600000005,-1.17003224,-1.35709254,-6.2842832600000005
248,1715729241550,-1.2230557666666666,-1.1971787999999999,-6.1968605,-1.2230557666666666,-1.1971787999999999,-6.1968605
249,1715729241560,-1.2632694500000001,-1.0118673200000001,-6.110485425,-1.2632694500000001,-1.0118673200000001,-6.110485425
250,1715729241570,-1.301352675,-0.764027045,-6.000064225,-1.301352675,-0.764027045,-6.000064225
251,1715729241580,-1.3253211,-0.24074958,-5.644832,-1.3253211,-0.24074958,-5.644832
252,1715729241590,-1.29208486,-0.048256442367999995,-5.4429644,-1.29208486,-0.048256442367999995,-5.4429644
253,1715729241600,-1.2837758,-0.00013315796,-5.3924975,-1.2837758,-0.00013315796,-5.3924975
254,1715729241610,-1.1092057,0.724113,-4.617119,-1.1092057,0.724113,-4.617119
255,1715729241620,-1.08704826,0.8859265199999999,-4.444226519999999,-1.08704826,0.8859265199999999,-4.444226519999999
256,1715729241630,-1.069791,1.266199,-3.6820838,-1.069791,1.266199,-3.6820838
257,1715729241640,-1.0708563,1.1607379,-3.141063,-1.0708563,1.1607379,-3.141063
258,1715729241650,-1.0708563,1.1607379,-3.1410630000000004,-1.0708563,1.1607379,-3.1410630000000004
259,1715729241660,-0.56392395,0.514256,-2.0675435,-0.56392395,0.514256,-2.0675435
260,1715729241670,-0.10459557749999998,0.08725174750000002,-1.269860825,-0.10459557749999998,0.08725174750000002,-1.269860825
261,1715729241680,0.24554327,-0.24074958,-0.6245108,0.24554327,-0.24074958,-0.6245108
262,1715729241690,0.49588022,-0.49641283999999997,0.2818954,0.49588022,-0.49641283999999997,0.2818954
263,1715729241700,0.5503684520000001,-0.47510757400000003,0.8094672,0.5503684520000001,-0.47510757400000003,0.8094672
264,1715729241710,0.6587324,-0.34408015,2.2030983,0.6587324,-0.34408015,2.2030983
265,1715729241720,0.6363619,-0.20666115000000002,2.6695507,0.6363619,-0.20666115000000002,2.6695507
266,1715729241730,0.478836,0.27896592,3.8890111,0.478836,0.27896592,3.8890111
267,1715729241740,0.44767704750000004,0.33958608,4.01444605,0.44767704750000004,0.33958608,4.01444605
268,1715729241750,0.332042678,0.5664539399999999,4.38041742,0.332042678,0.5664539399999999,4.38041742
269,1715729241760,0.015446323,1.2427632,5.433243999999999,0.015446323,1.2427632,5.433243999999999
270,1715729241770,-0.020772642,1.3663337,5.6537538,-0.020772642,1.3663337,5.6537538
271,1715729241780,-0.04301002,1.6623439,6.266147,-0.04301002,1.6623439,6.266147
272,1715729241790,-0.016511586,1.7411734,6.5919847,-0.016511586,1.7411734,6.5919847
273,1715729241800,-0.006711160800000002,1.6883363200000001,6.6439695,-0.006711160800000002,1.6883363200000001,6.6439695
274,1715729241810,0.13156006,1.1681948,6.818886000000001,0.13156006,1.1681948,6.818886000000001
275,1715729241820,0.16937692,1.0749842,6.8417223499999995,0.16937692,1.0749842,6.8417223499999995
276,1715729241830,0.39574546,0.48123285,7.038197,0.39574546,0.48123285,7.038197
277,1715729241840,0.466851796,0.27632938879999996,7.07697248,0.466851796,0.27632938879999996,7.07697248
278,1715729241850,0.6370010199999999,-0.12130689380000001,7.168798100000001,0.6370010199999999,-0.12130689380000001,7.168798100000001
279,1715729241860,0.9367661999999999,-0.4388886,7.3524494,0.9367661999999999,-0.4388886,7.3524494
280,1715729241870,0.9702154499999999,-0.45976777799999996,7.47761806,0.9702154499999999,-0.45976777799999996,7.47761806
281,1715729241880,0.792769188,-0.2953177092,7.6902181999999994,0.792769188,-0.2953177092,7.6902181999999994
282,1715729241890,0.48096654,-0.032091066,7.840207000000001,0.48096654,-0.032091066,7.840207000000001
283,1715729241900,0.1864877125,0.2504035505,7.887311625000001,0.1864877125,0.2504035505,7.887311625000001
284,1715729241910,-0.69694877,1.0978874,8.0286255,-0.69694877,1.0978874,8.0286255
285,1715729241920,-1.1516832,1.5813838,8.020103,-1.1516832,1.5813838,8.020103
286,1715729241930,-1.8024261,2.3120215,8.016908,-1.8024261,2.3120215,8.016908
287,1715729241940,-2.097137925,2.581966,8.00492375,-2.097137925,2.581966,8.00492375
288,1715729241950,-2.30232768,2.69112226,7.9877196,-2.30232768,2.69112226,7.9877196
289,1715729241960,-2.6300027,2.536659,7.8849483,-2.6300027,2.536659,7.8849483
290,1715729241970,-2.76923266,2.36930616,7.612294059999999,-2.76923266,2.36930616,7.612294059999999
291,1715729241980,-2.878076,2.2672806,7.338601,-2.878076,2.2672806,7.338601
292,1715729241990,-2.8855329,2.2917817,6.8784075,-2.8855329,2.2917817,6.8784075
293,1715729242000,-2.8855329,2.2917817,6.878407499999999,-2.8855329,2.2917817,6.878407499999999
294,1715729242010,-2.0229356,1.9286597999999997,6.11701,-2.0229356,1.9286597999999997,6.11701
295,1715729242020,-1.397146502,1.65065264,6.0398850799999995,-1.397146502,1.65065264,6.0398850799999995
296,1715729242030,0.21571588999999997,0.9519461999999999,5.9273934,0.21571588999999997,0.9519461999999999,5.9273934
297,1715729242040,1.4096102,0.37257597,5.9923744,1.4096102,0.37257597,5.9923744
298,1715729242050,1.4096102,0.37257597,5.9923744,1.4096102,0.37257597,5.9923744
299,1715729242060,2.3169484,-0.3888212,5.67932,2.3169484,-0.3888212,5.67932
300,1715729242070,2.22751952,-0.42930124000000003,5.44245852,2.22751952,-0.42930124000000003,5.44245852
301,1715729242080,0.6970819,-0.3749728,3.2585082,0.6970819,-0.3749728,3.2585082
302,1715729242090,-0.41478702,-0.045939494,1.9635472,-0.41478702,-0.045939494,1.9635472
303,1715729242100,-0.41478702,-0.045939494,1.9635472,-0.41478702,-0.045939494,1.9635472
304,1715729242110,-1.6479961749999998,0.6226466125,-0.12097400000000003,-1.6479961749999998,0.6226466125,-0.12097400000000003
305,1715729242120,-1.8456758399999997,0.7611841260000001,-0.79207678,-1.8456758399999997,0.7611841260000001,-0.79207678
306,1715729242130,-1.5962088,0.6252209799999999,-1.7819419333333333,-1.5962088,0.6252209799999999,-1.7819419333333333
307,1715729242140,-1.2219906,0.46312338,-2.486059,-1.2219906,0.46312338,-2.486059
308,1715729242150,-0.7466166824,0.323840156,-2.86262968,-0.7466166824,0.323840156,-2.86262968
309,1715729242160,0.50227183,-0.01824264,-3.8354816,0.50227183,-0.01824264,-3.8354816
310,1715729242170,0.8033752075,-0.10053425999999999,-4.1054264,0.8033752075,-0.10053425999999999,-4.1054264
311,1715729242180,1.3009533,-0.3163833,-4.7374935,1.3009533,-0.3163833,-4.7374935
312,1715729242190,1.49696178,-0.49279098,-5.1302563,1.49696178,-0.49279098,-5.1302563
313,1715729242200,1.5845464,-0.570981325,-5.3184285,1.5845464,-0.570981325,-5.3184285
314,1715729242210,1.79915038,-0.7847797200000001,-5.894317,1.79915038,-0.7847797200000001,-5.894317
315,1715729242220,1.8577398999999999,-0.8561257400000001,-6.08704964,1.8577398999999999,-0.8561257400000001,-6.08704964
316,1715729242230,1.9738004,-1.197189925,-6.7521737,1.9738004,-1.197189925,-6.7521737
317,1715729242240,1.9538267,-1.4048164,-7.061366600000001,1.9538267,-1.4048164,-7.061366600000001
318,1715729242250,1.9538267,-1.4048164,-7.0613666,1.9538267,-1.4048164,-7.0613666
319,1715729242260,1.6757928,-2.0118835,-7.982553,1.6757928,-2.0118835,-7.982553
320,1715729242270,1.5684941399999999,-2.12309704,-8.0745918,1.5684941399999999,-2.12309704,-8.0745918
321,1715729242280,1.110271,-2.4314642,-8.471376,1.110271,-2.4314642,-8.471376
322,1715729242290,0.7716504,-2.608298,-8.703604,0.7716504,-2.608298,-8.703604
323,1715729242300,0.7716504,-2.608298,-8.703604,0.7716504,-2.608298,-8.703604
324,1715729242310,0.18482324,-2.908569,-9.007071,0.18482324,-2.908569,-9.007071
325,1715729242320,0.15552849,-2.9218848250000002,-9.00307625,0.15552849,-2.9218848250000002,-9.00307625
326,1715729242330,-0.17616798,-3.0097692,-8.768452,-0.17616798,-3.0097692,-8.768452
327,1715729242340,-0.27949855,-2.923483,-8.515052,-0.27949855,-2.923483,-8.515052
328,1715729242350,-0.36791542,-2.7425213,-8.232757,-0.36791542,-2.7425213,-8.232757
329,1715729242360,-0.39454702,-2.5603611,-8.069904,-0.39454702,-2.5603611,-8.069904
330,1715729242370,-0.38762281,-2.45969375,-7.9948032499999995,-0.38762281,-2.45969375,-7.9948032499999995
331,1715729242380,-0.38176385,-2.005492,-7.57256,-0.38176385,-2.005492,-7.57256
332,1715729242390,-0.49039411800000005,-1.93454548,-7.1488242799999995,-0.49039411800000005,-1.93454548,-7.1488242799999995
333,1715729242400,-0.60533607,-1.9959046,-6.825943,-0.60533607,-1.9959046,-6.825943
334,1715729242410,-0.691622412,-2.04639814,-6.6572851,-0.691622412,-2.04639814,-6.6572851
335,1715729242420,-0.921952385,-2.115214175,-6.3717413,-0.921952385,-2.115214175,-6.3717413
336,1715729242430,-1.2614053,-2.163151,-6.0740004,-1.2614053,-2.163151,-6.0740004
337,1715729242440,-1.5250580500000002,-1.9833877750000002,-5.949464325,-1.5250580500000002,-1.9833877750000002,-5.949464325
338,1715729242450,-1.8610156,-1.5635407,-5.812078500000001,-1.8610156,-1.5635407,-5.812078500000001
339,1715729242460,-2.0698073,-1.1620694,-5.695965,-2.0698073,-1.1620694,-5.695965
340,1715729242470,-2.107091475,-0.91842366,-5.526621175,-2.107091475,-0.91842366,-5.526621175
341,1715729242480,-2.1528978,-0.392017,-5.0974197,-2.1528978,-0.392017,-5.0974197
342,1715729242490,-2.000565,-0.18442377,-4.4722433,-2.000565,-0.18442377,-4.4722433
343,1715729242500,-2.000565,-0.18442377,-4.4722433,-2.000565,-0.18442377,-4.4722433
344,1715729242510,-0.6043373649999999,-0.18618811000000002,-1.3380044,-0.6043373649999999,-0.18618811000000002,-1.3380044
345,1715729242520,-0.290151184,-0.18753966000000002,-0.649784184,-0.290151184,-0.18753966000000002,-0.649784184
346,1715729242530,0.32117698,0.07550056,1.2744548,0.32117698,0.07550056,1.2744548
347,1715729242540,0.23169483600000002,0.326796256,1.93129632,0.23169483600000002,0.326796256,1.93129632
348,1715729242550,-0.20493009999999998,0.77418035,2.7206833,-0.20493009999999998,0.77418035,2.7206833
349,1715729242560,-0.6599041800000001,1.11836703,3.1253769,-0.6599041800000001,1.11836703,3.1253769
350,1715729242570,-1.2774175250000002,1.7238297,3.798463725,-1.2774175250000002,1.7238297,3.798463725
351,1715729242580,-1.5863107,2.074468,4.188217,-1.5863107,2.074468,4.188217
352,1715729242590,-1.7449019,2.3514364,4.716455,-1.7449019,2.3514364,4.716455
353,1715729242600,-1.7704682200000001,2.4187610399999997,5.1901774000000005,-1.7704682200000001,2.4187610399999997,5.1901774000000005
354,1715729242610,-1.75129348,2.3273614,5.77806984,-1.75129348,2.3273614,5.77806984
355,1715729242620,-1.7299881666666668,2.2299963000000003,6.019361,-1.7299881666666668,2.2299963000000003,6.019361
356,1715729242630,-1.6511587000000003,1.6122766,6.7379255,-1.6511587000000003,1.6122766,6.7379255
357,1715729242640,-1.7005868800000001,1.21807574,6.978968399999999,-1.7005868800000001,1.21807574,6.978968399999999
358,1715729242650,-1.87955116,0.7635277,7.1924471,-1.87955116,0.7635277,7.1924471
359,1715729242660,-2.0602198,0.48229810000000006,7.3066435,-2.0602198,0.48229810000000006,7.3066435
360,1715729242670,-2.1453743000000003,0.344945675,7.36942745,-2.1453743000000003,0.344945675,7.36942745
361,1715729242680,-2.380731,-0.30573067,7.8220979999999996,-2.380731,-0.30573067,7.8220979999999996
362,1715729242690,-2.371498733333333,-0.44421493,7.982509333333334,-2.371498733333333,-0.44421493,7.982509333333334
363,1715729242700,-2.0037608,-0.9309072500000001,9.046751,-2.0037608,-0.9309072500000001,9.046751
364,1715729242710,-1.6621308,-0.86017377,9.630409400000001,-1.6621308,-0.86017377,9.630409400000001
365,1715729242720,-1.5197317,-0.783934175,9.878023500000001,-1.5197317,-0.783934175,9.878023500000001
366,1715729242730,-1.4552833,0.05526055,10.32054,-1.4552833,0.05526055,10.32054
367,1715729242740,-1.5926357,0.21711405,10.258755,-1.5926357,0.21711405,10.258755
368,1715729242750,-3.4510548,1.4418343,9.44729,-3.4510548,1.4418343,9.44729
369,1715729242760,-5.062399,2.0329225,8.973381,-5.062399,2.0329225,8.973381
370,1715729242770,-5.51907756,2.1177175000000004,8.8813422,-5.51907756,2.1177175000000004,8.8813422
371,1715729242780,-7.315963999999999,1.9711372,8.463253,-7.315963999999999,1.9711372,8.463253
372,1715729242790,-7.614105,1.6335818,8.259788,-7.614105,1.6335818,8.259788
373,1715729242800,-7.167893,0.11491532,7.362037,-7.167893,0.11491532,7.362037
374,1715729242810,-6.594914,-0.42397493,7.011565,-6.594914,-0.42397493,7.011565
375,1715729242820,-6.022767575,-0.6572010975,6.783399,-6.022767575,-0.6572010975,6.783399
376,1715729242830,-3.119891,-1.5859113,5.615404,-3.119891,-1.5859113,5.615404
377,1715729242840,-2.61245264,-2.0702067,5.27859436,-2.61245264,-2.0702067,5.27859436
378,1715729242850,-2.0144136,-3.1344051,4.762261,-2.0144136,-3.1344051,4.762261
379,1715729242860,-1.3189296,-3.9023270000000005,4.3597245,-1.3189296,-3.9023270000000005,4.3597245
380,1715729242870,-1.03776655,-3.96617625,4.288352,-1.03776655,-3.96617625,4.288352
381,1715729242880,-0.15345122719999998,-3.53595622,4.2007871,-0.15345122719999998,-3.53595622,4.2007871
382,1715729242890,0.1555284905,-3.24093145,4.208989750000001,0.1555284905,-3.24093145,4.208989750000001
383,1715729242900,1.5414364280000001,-2.19526872,4.18544762,1.5414364280000001,-2.19526872,4.18544762
384,1715729242910,3.0379987,-1.6423702,3.8368132,3.0379987,-1.6423702,3.8368132
385,1715729242920,3.40857735,-1.6775239,3.5567155,3.40857735,-1.6775239,3.5567155
386,1715729242930,3.92373225,-1.767239075,2.985334775,3.92373225,-1.767239075,2.985334775
387,1715729242940,4.3076931499999995,-1.908552975,1.6519575949999998,4.3076931499999995,-1.908552975,1.6519575949999998
388,1715729242950,3.2764847,-1.3579448,-1.0238515,3.2764847,-1.3579448,-1.0238515
389,1715729242960,2.0624835,-0.6732466,-2.0494342,2.0624835,-0.6732466,-2.0494342
390,1715729242970,1.8662419749999999,-0.553404445,-2.20732625,1.8662419749999999,-0.553404445,-2.20732625
391,1715729242980,0.6352966,0.020106852,-3.7428038,0.6352966,0.020106852,-3.7428038
392,1715729242990,0.642487135,-0.018508956,-3.85648745,0.642487135,-0.018508956,-3.85648745
393,1715729243000,1.457547,-0.9767135999999998,-5.470262,1.457547,-0.9767135999999998,-5.470262
394,1715729243010,2.10829,-1.5454313,-6.049632,2.10829,-1.5454313,-6.049632
395,1715729243020,2.3468202666666667,-1.7250169666666666,-6.254784266666667,2.3468202666666667,-1.7250169666666666,-6.254784266666667
396,1715729243030,2.7354639000000005,-1.8542246,-6.7417874,2.7354639000000005,-1.8542246,-6.7417874
397,1715729243040,2.641754025,-1.6974975749999999,-6.9731825,2.641754025,-1.6974975749999999,-6.9731825
398,1715729243050,2.3989737,-1.4857764,-7.283873,2.3989737,-1.4857764,-7.283873
399,1715729243060,2.1262662,-1.411208,-7.6087785,2.1262662,-1.411208,-7.6087785
400,1715729243070,2.081558425,-1.437040625,-7.6729273749999996,2.081558425,-1.437040625,-7.6729273749999996
401,1715729243080,1.7333171,-1.8499634,-8.246605,1.7333171,-1.8499634,-8.246605
402,1715729243090,1.6832497,-2.0438414,-8.382959,1.6832497,-2.0438414,-8.382959
403,1715729243100,1.58015884,-2.6197763199999997,-8.652471,1.58015884,-2.6197763199999997,-8.652471
404,1715729243110,1.5044186,-2.9128304,-8.733431,1.5044186,-2.9128304,-8.733431
405,1715729243120,1.4451189333333332,-2.97213,-8.745104666666666,1.4451189333333332,-2.97213,-8.745104666666666
406,1715729243130,1.0751173,-3.0289440000000005,-8.747146,1.0751173,-3.0289440000000005,-8.747146
407,1715729243140,0.818521935,-2.8942215,-8.68040075,0.818521935,-2.8942215,-8.68040075
408,1715729243150,0.45753074,-2.7137592,-8.56938,0.45753074,-2.7137592,-8.56938
409,1715729243160,0.0005326318,-2.5742097,-8.476703,0.0005326318,-2.5742097,-8.476703
410,1715729243170,-0.21630178092,-2.53884286,-8.4681806,-0.21630178092,-2.53884286,-8.4681806
411,1715729243180,-1.0112015,-2.4825969,-8.464984,-1.0112015,-2.4825969,-8.464984
412,1715729243190,-1.1517363800000002,-2.45958726,-8.466262,-1.1517363800000002,-2.45958726,-8.466262
413,1715729243200,-1.40223318,-2.30459142,-8.481602800000001,-1.40223318,-2.30459142,-8.481602800000001
414,1715729243210,-1.4765886,-2.0832562,-8.475637,-1.4765886,-2.0832562,-8.475637
415,1715729243220,-1.4598107,-2.017742475,-8.4660495,-1.4598107,-2.017742475,-8.4660495
416,1715729243230,-1.28058,-1.4261217,-8.360588,-1.28058,-1.4261217,-8.360588
417,1715729243240,-1.26417496,-1.3794898,-8.3503616,-1.26417496,-1.3794898,-8.3503616
418,1715729243250,-1.0314416,-0.89575356,-7.771631000000001,-1.0314416,-0.89575356,-7.771631000000001
419,1715729243260,-1.34044786,-1.08132254,-6.859631899999999,-1.34044786,-1.08132254,-6.859631899999999
420,1715729243270,-1.68087954,-1.17762232,-6.1253990400000005,-1.68087954,-1.17762232,-6.1253990400000005
421,1715729243280,-2.0506325,-1.18444,-5.325386,-2.0506325,-1.18444,-5.325386
422,1715729243290,-2.1784642,-1.0800442,-5.078245,-2.1784642,-1.0800442,-5.078245
423,1715729243300,-2.1932447,-0.6764424,-4.8536077,-2.1932447,-0.6764424,-4.8536077
424,1715729243310,-1.9792598,-0.7147919,-4.7609296,-1.9792598,-0.7147919,-4.7609296
425,1715729243320,-1.782751975,-0.8268776,-4.5505733,-1.782751975,-0.8268776,-4.5505733
426,1715729243330,-0.42304283600000003,-1.42550918,-2.71224104,-0.42304283600000003,-1.42550918,-2.71224104
427,1715729243340,0.07238465399999999,-1.53200894,-1.8398167400000003,0.07238465399999999,-1.53200894,-1.8398167400000003
428,1715729243350,1.1550121,-1.2547474,0.9241162,1.1550121,-1.2547474,0.9241162
429,1715729243360,1.2093406,-0.6860298,2.3969762,1.2093406,-0.6860298,2.3969762
430,1715729243370,1.090330665,-0.508963005,2.6773403,1.090330665,-0.508963005,2.6773403
431,1715729243380,-0.078643108,0.8648609159999999,4.30566252,-0.078643108,0.8648609159999999,4.30566252
432,1715729243390,-0.601907225,1.402985475,4.71249325,-0.601907225,1.402985475,4.71249325
433,1715729243400,-1.8290577,2.6879265,5.368263,-1.8290577,2.6879265,5.368263
434,1715729243410,-2.2305288,3.0957892,5.6186,-2.2305288,3.0957892,5.6186
435,1715729243420,-2.2305288,3.0957892,5.6186,-2.2305288,3.0957892,5.6186
436,1715729243430,-2.610828,3.1852715,6.5515045999999995,-2.610828,3.1852715,6.5515045999999995
437,1715729243440,-2.5074975,2.7806044,6.945519,-2.5074975,2.7806044,6.945519
438,1715729243450,-2.0208051,1.7816534,7.491866,-2.0208051,1.7816534,7.491866
439,1715729243460,-1.3583443,0.7635277,7.807184,-1.3583443,0.7635277,7.807184
440,1715729243470,-1.1468007,0.39148438,7.8419826666666665,-1.1468007,0.39148438,7.8419826666666665
441,1715729243480,-0.7864309,-0.49747813,7.8508596,-0.7864309,-0.49747813,7.8508596
442,1715729243490,-0.729705625,-0.86888893,7.85805045,-0.729705625,-0.86888893,7.85805045
443,1715729243500,-0.68736136,-1.7883114,7.961514,-0.68736136,-1.7883114,7.961514
444,1715729243510,-0.6916224320000001,-1.8614950000000001,7.991341520000001,-0.6916224320000001,-1.8614950000000001,7.991341520000001
445,1715729243520,-0.6926877,-1.8797909,7.998798400000001,-0.6926877,-1.8797909,7.998798400000001
446,1715729243530,-0.682035,-1.9106835,8.504665,-0.682035,-1.9106835,8.504665
447,1715729243540,-0.679638175,-1.83641465,8.556596749999999,-0.679638175,-1.83641465,8.556596749999999
448,1715729243550,-0.7885614,-0.9223851599999999,9.094688,-0.7885614,-0.9223851599999999,9.094688
449,1715729243560,-1.0463552,-0.42930126,9.30348,-1.0463552,-0.42930126,9.30348
450,1715729243570,-1.9046913,0.39068544,9.381245,-1.9046913,0.39068544,9.381245
451,1715729243580,-2.8759456,0.9615335999999999,9.125581,-2.8759456,0.9615335999999999,9.125581
452,1715729243590,-3.41753215,1.2068106,8.849245,-3.41753215,1.2068106,8.849245
453,1715729243600,-4.52777,1.4089444,7.8647084,-4.52777,1.4089444,7.8647084
454,1715729243610,-4.68457656,1.3092356,7.54001592,-4.68457656,1.3092356,7.54001592
455,1715729243620,-4.662348133333333,0.8206524253333334,7.058792,-4.662348133333333,0.8206524253333334,7.058792
456,1715729243630,-3.8357746399999995,-1.2917653448,5.71423392,-3.8357746399999995,-1.2917653448,5.71423392
457,1715729243640,-3.243062033333333,-2.0516977333333335,5.401996133333333,-3.243062033333333,-2.0516977333333335,5.401996133333333
458,1715729243650,-1.0154625,-3.3495884000000005,4.902876,-1.0154625,-3.3495884000000005,4.902876
459,1715729243660,-0.06644582,-3.2015166,4.834699,-0.06644582,-3.2015166,4.834699
460,1715729243670,0.19425082,-2.91908862,4.8295858,0.19425082,-2.91908862,4.8295858
461,1715729243680,0.298167284,-2.19913026,4.86367404,0.298167284,-2.19913026,4.86367404
462,1715729243690,0.1741706,-1.8590848000000002,4.903408499999999,0.1741706,-1.8590848000000002,4.903408499999999
463,1715729243700,-0.9174583000000001,-0.23542327,5.2363033,-0.9174583000000001,-0.23542327,5.2363033
464,1715729243710,-1.5618097,0.24274695,5.4460273,-1.5618097,0.24274695,5.4460273
465,1715729243720,-1.61057214,0.206527986,5.44624034,-1.61057214,0.206527986,5.44624034
466,1715729243730,-1.5586139,-0.64341927,5.267063,-1.5586139,-0.64341927,5.267063
467,1715729243740,-1.35732345,-0.8297960133333332,5.186147333333333,-1.35732345,-0.8297960133333332,5.186147333333333
468,1715729243750,0.118776895,-1.3590101,4.470512,0.118776895,-1.3590101,4.470512
469,1715729243760,0.189510403,-0.9935181399999999,3.9286124800000004,0.189510403,-0.9935181399999999,3.9286124800000004
470,1715729243770,-0.010013475999999999,-0.5801159419999999,3.46855168,-0.010013475999999999,-0.5801159419999999,3.46855168
471,1715729243780,-0.28802067,-0.05552686799999999,2.6162875,-0.28802067,-0.05552686799999999,2.6162875
472,1715729243790,-0.21451747499999999,0.019041586000000003,2.22280575,-0.21451747499999999,0.019041586000000003,2.22280575
473,1715729243800,0.6150566,0.05419529,0.34368068,0.6150566,0.05419529,0.34368068
474,1715729243810,1.2146668,0.058456343,-0.6936198,1.2146668,0.058456343,-0.6936198
475,1715729243820,1.4287848,0.32477224,-1.4945649,1.4287848,0.32477224,-1.4945649
476,1715729243830,1.364869,0.82318246,-2.166613,1.364869,0.82318246,-2.166613
477,1715729243840,1.37253896,1.206757312,-2.68228062,1.37253896,1.206757312,-2.68228062
478,1715729243850,1.5086796,1.5749923,-3.3487895,1.5086796,1.5749923,-3.3487895
479,1715729243860,1.8696708999999998,1.4801838,-3.8141766000000006,1.8696708999999998,1.4801838,-3.8141766000000006
480,1715729243870,1.9934745,1.40538235,-3.9172075,1.9934745,1.40538235,-3.9172075
481,1715729243880,2.8941882,0.73370034,-4.6075315,2.8941882,0.73370034,-4.6075315
482,1715729243890,3.2626362,0.41092545,-4.8781085,3.2626362,0.41092545,-4.8781085
483,1715729243900,3.7047207,0.041412123,-5.328582,3.7047207,0.041412123,-5.328582
484,1715729243910,3.8782252999999995,-0.044874232,-5.682116,3.8782252999999995,-0.044874232,-5.682116
485,1715729243920,3.8782253,-0.04487423199999999,-5.682116,3.8782253,-0.04487423199999999,-5.682116
486,1715729243930,3.8302886,-0.06617951,-6.2540298000000005,3.8302886,-0.06617951,-6.2540298000000005
487,1715729243940,3.7817126,-0.093024152,-6.37674822,3.7817126,-0.093024152,-6.37674822
488,1715729243950,3.686311575,-0.2466418325,-6.697345875,3.686311575,-0.2466418325,-6.697345875
489,1715729243960,3.6746803799999994,-0.483629698,-6.97550612,3.6746803799999994,-0.483629698,-6.97550612
490,1715729243970,3.6567838000000004,-0.8765788000000001,-7.288134600000001,3.6567838000000004,-0.8765788000000001,-7.288134600000001
491,1715729243980,3.5236259,-1.330248,-7.5864080000000005,3.5236259,-1.330248,-7.5864080000000005
492,1715729243990,3.460775333333333,-1.4609203333333334,-7.654895666666666,3.460775333333333,-1.4609203333333334,-7.654895666666666
493,1715729244000,2.8995143999999997,-2.2899175,-8.012381,2.8995143999999997,-2.2899175,-8.012381
494,1715729244010,2.6950838249999998,-2.553470275,-8.05073,2.6950838249999998,-2.553470275,-8.05073
495,1715729244020,2.6269403,-2.6413212,-8.063513,2.6269403,-2.6413212,-8.063513
496,1715729244030,2.0241342,-2.789393,-8.05073,2.0241342,-2.789393,-8.05073
497,1715729244040,1.7996298000000002,-2.6208149,-8.08109,1.7996298000000002,-2.6208149,-8.08109
498,1715729244050,1.4496374,-2.3346318,-8.173022800000002,1.4496374,-2.3346318,-8.173022800000002
499,1715729244060,0.9655283,-2.0757995,-8.295608,0.9655283,-2.0757995,-8.295608
500,1715729244070,0.50227183,-2.0001657,-8.393612,0.50227183,-2.0001657,-8.393612
501,1715729244080,0.06977477,-1.9948393,-8.540618,0.06977477,-1.9948393,-8.540618
502,1715729244090,-0.21132168,-2.0172098,-8.624774,-0.21132168,-2.0172098,-8.624774
503,1715729244100,-0.57550865,-2.1418457,-8.662058,-0.57550865,-2.1418457,-8.662058
504,1715729244110,-0.7374288,-2.171673,-8.582164,-0.7374288,-2.171673,-8.582164
505,1715729244120,-0.754473,-2.042776,-8.46818,-0.754473,-2.042776,-8.46818
506,1715729244130,-0.64262027,-1.8499634,-8.36485,-0.64262027,-1.8499634,-8.36485
507,1715729244140,-0.6074998775,-1.815109325,-8.335022500000001,-0.6074998775,-1.815109325,-8.335022500000001
508,1715729244150,-0.29015118,-1.5379744,-7.889875000000001,-0.29015118,-1.5379744,-7.889875000000001
509,1715729244160,-0.28589013,-1.4751239,-7.4788165,-0.28589013,-1.4751239,-7.4788165
510,1715729244170,-0.3921501825,-1.432779575,-7.165729075,-0.3921501825,-1.432779575,-7.165729075
511,1715729244180,-0.7395593,-1.386707,-6.5885224,-0.7395593,-1.386707,-6.5885224
512,1715729244190,-0.9068057,-1.3563469499999998,-6.3909161999999995,-0.9068057,-1.3563469499999998,-6.3909161999999995
513,1715729244200,-1.5628749,-1.1301116,-5.5011544,-1.5628749,-1.1301116,-5.5011544
514,1715729244210,-1.5969634,-0.9916273,-5.2220554,-1.5969634,-0.9916273,-5.2220554
515,1715729244220,-0.94302464,-0.6274403,-4.054793,-0.94302464,-0.6274403,-4.054793
516,1715729244230,-0.021837905,-0.6348971,-2.7779411999999994,-0.021837905,-0.6348971,-2.7779411999999994
517,1715729244240,0.22561396333333336,-0.6547820333333333,-2.4076733333333333,0.22561396333333336,-0.6547820333333333,-2.4076733333333333
518,1715729244250,1.5725955,-0.5773729,0.18708692,1.5725955,-0.5773729,0.18708692
519,1715729244260,1.4987927,-0.2682467125,0.96666016,1.4987927,-0.2682467125,0.96666016
520,1715729244270,1.1688606,0.50147283,2.618418,1.1688606,0.50147283,2.618418
521,1715729244280,0.361657,1.3386369,3.5450642,0.361657,1.3386369,3.5450642
522,1715729244290,0.204297585,1.484012125,3.7015914,0.204297585,1.484012125,3.7015914
523,1715729244300,-1.0516815,2.710297,5.08184,-1.0516815,2.710297,5.08184
524,1715729244310,-1.2058251,2.8756258000000003,5.3552932,-1.2058251,2.8756258000000003,5.3552932
525,1715729244320,-1.3381042,3.2672968,6.395976,-1.3381042,3.2672968,6.395976
526,1715729244330,-1.1751189,3.3067114,6.998782,-1.1751189,3.3067114,6.998782
527,1715729244340,-1.1751189,3.3067113999999997,6.998782000000001,-1.1751189,3.3067113999999997,6.998782000000001
528,1715729244350,-0.968591,2.8626297,7.8125105,-0.968591,2.8626297,7.8125105
529,1715729244360,-0.9522569333333334,2.7007095666666667,7.9004835,-0.9522569333333334,2.7007095666666667,7.9004835
530,1715729244370,-1.0591384,1.864744,8.048865,-1.0591384,1.864744,8.048865
531,1715729244380,-1.2976242,1.347159,7.8519254,-1.2976242,1.347159,7.8519254
532,1715729244390,-1.2976242,1.347159,7.8519254,-1.2976242,1.347159,7.8519254
533,1715729244400,-1.4957633,0.9253146,7.656982,-1.4957633,0.9253146,7.656982
534,1715729244410,-1.549525825,0.6606631725,7.589637325,-1.549525825,0.6606631725,7.589637325
535,1715729244420,-1.3636706,-0.9149283,7.6058493,-1.3636706,-0.9149283,7.6058493
536,1715729244430,-1.0879005,-1.0502168,7.7368765,-1.0879005,-1.0502168,7.7368765
537,1715729244440,-0.9949562399999999,-1.04275995,7.763241775,-0.9949562399999999,-1.04275995,7.763241775
538,1715729244450,-0.5181176,-0.82864195,7.8604474,-0.5181176,-0.82864195,7.8604474
539,1715729244460,-0.654171725,-0.5573991895,7.78507985,-0.654171725,-0.5573991895,7.78507985
540,1715729244470,-1.0388983,-0.050200548,7.60798,-1.0388983,-0.050200548,7.60798
541,1715729244480,-1.6713986000000003,0.45140547,7.4098406,-1.6713986000000003,0.45140547,7.4098406
542,1715729244490,-1.6713986,0.45140547,7.4098406,-1.6713986,0.45140547,7.4098406
543,1715729244500,-2.88065922,1.3534707400000001,7.0588630000000006,-2.88065922,1.3534707400000001,7.0588630000000006
544,1715729244510,-3.2303853599999997,1.59736282,6.9587284,-3.2303853599999997,1.59736282,6.9587284
545,1715729244520,-3.35092,1.6761923,6.924214,-3.35092,1.6761923,6.924214
546,1715729244530,-3.35092,1.6761923,6.924214,-3.35092,1.6761923,6.924214
547,1715729244540,-3.78032768,1.9054370999999999,6.7794444,-3.78032768,1.9054370999999999,6.7794444
548,1715729244550,-4.557597,0.8508793,5.5568147,-4.557597,0.8508793,5.5568147
549,1715729244560,-4.325203500000001,0.324472645,5.256510425,-4.325203500000001,0.324472645,5.256510425
550,1715729244570,-3.0495834,-1.3014859,4.4161835,-3.0495834,-1.3014859,4.4161835
551,1715729244580,-2.2731395,-1.8797909,4.0999336,-2.2731395,-1.8797909,4.0999336
552,1715729244590,-2.2731395,-1.8797909,4.0999336,-2.2731395,-1.8797909,4.0999336
553,1715729244600,-0.5393563,-2.2393172999999997,3.9007292000000002,-0.5393563,-2.2393172999999997,3.9007292000000002
554,1715729244610,-0.19880482249999998,-2.179129975,3.97343335,-0.19880482249999998,-2.179129975,3.97343335
555,1715729244620,0.34567806,-1.5944333,4.5567985,0.34567806,-1.5944333,4.5567985
556,1715729244630,0.4532697,-1.3654016,4.758,0.4532697,-1.3654016,4.758
557,1715729244640,0.47347640999999996,-1.325487525,4.7833000000000006,0.47347640999999996,-1.325487525,4.7833000000000006
558,1715729244650,0.635562885,-1.322291775,4.6739440000000005,0.635562885,-1.322291775,4.6739440000000005
559,1715729244660,0.9003342,-1.52306068,4.2857952,0.9003342,-1.52306068,4.2857952
560,1715729244670,1.9101509,-1.9042919,3.260639,1.9101509,-1.9042919,3.260639
561,1715729244680,2.093009975,-1.941043475,3.0985523749999997,2.093009975,-1.941043475,3.0985523749999997
562,1715729244690,2.4990418500000002,-1.91707505,2.647280025,2.4990418500000002,-1.91707505,2.647280025
563,1715729244700,3.5151038,-1.4559491,0.62051606,3.5151038,-1.4559491,0.62051606
564,1715729244710,3.31296995,-1.2603068,0.32021159,3.31296995,-1.2603068,0.32021159
565,1715729244720,2.0134814,-0.15672691,-0.8853672,2.0134814,-0.15672691,-0.8853672
566,1715729244730,1.2849742,0.59841186,-1.6596806999999998,1.2849742,0.59841186,-1.6596806999999998
567,1715729244740,1.2849742,0.59841186,-1.6596806999999998,1.2849742,0.59841186,-1.6596806999999998
568,1715729244750,0.7961514,0.46205809999999997,-3.4871404,0.7961514,0.46205809999999997,-3.4871404
569,1715729244760,0.9665936,0.09254478,-3.9141780999999995,0.9665936,0.09254478,-3.9141780999999995
570,1715729244770,1.7045549999999998,-0.78177035,-4.850412,1.7045549999999998,-0.78177035,-4.850412
571,1715729244780,2.2125525,-1.0832399,-5.2785144,2.2125525,-1.0832399,-5.2785144
572,1715729244790,2.238651475,-1.071522025,-5.340266475,2.238651475,-1.071522025,-5.340266475
573,1715729244800,2.1422453,-0.812663,-5.7502933,2.1422453,-0.812663,-5.7502933
574,1715729244810,1.978028125,-0.6915891375,-5.946002025,1.978028125,-0.6915891375,-5.946002025
575,1715729244820,1.7343824,-0.55819815,-6.288118,1.7343824,-0.55819815,-6.288118
576,1715729244830,1.729056,-0.63170135,-6.6128902,1.729056,-0.63170135,-6.6128902
577,1715729244840,1.8121467,-0.7807051,-6.9569707,1.8121467,-0.7807051,-6.9569707
578,1715729244850,1.8931067,-1.0235852,-7.2817426,1.8931067,-1.0235852,-7.2817426
579,1715729244860,1.9080203666666666,-1.1386336666666665,-7.381167266666666,1.9080203666666666,-1.1386336666666665,-7.381167266666666
580,1715729244870,1.8994982,-1.8137444999999999,-7.8238287,1.8994982,-1.8137444999999999,-7.8238287
581,1715729244880,1.8859161500000001,-1.88165505,-7.866172875,1.8859161500000001,-1.88165505,-7.866172875
582,1715729244890,1.7524918999999999,-2.1417791,-8.0464023,1.7524918999999999,-2.1417791,-8.0464023
583,1715729244900,1.43451068,-2.4372166999999996,-8.293477,1.43451068,-2.4372166999999996,-8.293477
584,1715729244910,1.2991778,-2.4396312333333334,-8.324369666666668,1.2991778,-2.4396312333333334,-8.324369666666668
585,1715729244920,1.07626248,-2.38310128,-8.3009338,1.07626248,-2.38310128,-8.3009338
586,1715729244930,0.8323704,-2.3229406,-8.215713,0.8323704,-2.3229406,-8.215713
587,1715729244940,0.7691647333333332,-2.2810402,-8.132666666666665,0.7691647333333332,-2.2810402,-8.132666666666665
588,1715729244950,0.47244442,-2.094974,-7.736477400000001,0.47244442,-2.094974,-7.736477400000001
589,1715729244960,0.3949465,-2.0590215499999998,-7.655084475000001,0.3949465,-2.0590215499999998,-7.655084475000001
590,1715729244970,0.2971020362,-2.0229624,-7.581295,0.2971020362,-2.0229624,-7.581295
591,1715729244980,-0.16231954,-1.8840519,-7.306244,-0.16231954,-1.8840519,-7.306244
592,1715729244990,-0.20322566800000003,-1.85763334,-7.2448844800000005,-0.20322566800000003,-1.85763334,-7.2448844800000005
593,1715729245000,-0.1974732475,-1.834250825,-7.14975015,-0.1974732475,-1.834250825,-7.14975015
594,1715729245010,-0.17368236,-1.8272378333333332,-7.0904838,-0.17368236,-1.8272378333333332,-7.0904838
595,1715729245020,-0.010120004,-1.8776603,-6.8206167,-0.010120004,-1.8776603,-6.8206167
596,1715729245030,0.033555806,-1.88405185,-6.7072327000000005,0.033555806,-1.88405185,-6.7072327000000005
597,1715729245040,0.039947387,-1.9756646,-6.2827916,0.039947387,-1.9756646,-6.2827916
598,1715729245050,-0.1814943,-2.0672772,-5.834449,-0.1814943,-2.0672772,-5.834449
599,1715729245060,-0.44674495,-2.0715382,-5.3882365,-0.44674495,-2.0715382,-5.3882365
600,1715729245070,-0.97178674,-1.8883129,-4.5904875,-0.97178674,-1.8883129,-4.5904875
601,1715729245080,-1.2198601,-1.4538186,-3.9770286,-1.2198601,-1.4538186,-3.9770286
602,1715729245090,-1.23850215,-1.21420085,-3.6814846,-1.23850215,-1.21420085,-3.6814846
603,1715729245100,-1.22561236,-0.634657468,-2.97016812,-1.22561236,-0.634657468,-2.97016812
604,1715729245110,-1.1847063,-0.37390754,-2.441318,-1.1847063,-0.37390754,-2.441318
605,1715729245120,-1.0484858,-0.37390754,-1.3667332,-1.0484858,-0.37390754,-1.3667332
606,1715729245130,-0.9504815,-0.3834949,-0.81825566,-0.9504815,-0.3834949,-0.81825566
607,1715729245140,-0.641555,-0.23968430999999998,0.826112,-0.641555,-0.23968430999999998,0.826112
608,1715729245150,-0.5585976,0.04354265,1.7504945,-0.5585976,0.04354265,1.7504945
609,1715729245160,-0.7179433,0.42730388333333336,2.4306653666666667,-0.7179433,0.42730388333333336,2.4306653666666667
610,1715729245170,-0.96326464,0.9061399,3.192462,-0.96326464,0.9061399,3.192462
611,1715729245180,-1.00054887,0.96739255,3.2686284,-1.00054887,0.96739255,3.2686284
612,1715729245190,-1.1363367,1.2355393749999999,3.5740261,-1.1363367,1.2355393749999999,3.5740261
613,1715729245200,-1.4563485,2.24491,4.6920867,-1.4563485,2.24491,4.6920867
614,1715729245210,-1.4222601,2.32214165,4.89228985,-1.4222601,2.32214165,4.89228985
615,1715729245220,-1.1815106,2.3280005,5.885848,-1.1815106,2.3280005,5.885848
616,1715729245230,-0.9572281633333333,1.9225345999999999,6.662957666666666,-0.9572281633333333,1.9225345999999999,6.662957666666666
617,1715729245240,-0.8812393499999999,1.7102808,6.936997,-0.8812393499999999,1.7102808,6.936997
618,1715729245250,-0.8070970199999999,1.3268658,7.2622485999999995,-0.8070970199999999,1.3268658,7.2622485999999995
619,1715729245260,-0.73849404,0.91663276,7.5864616,-0.73849404,0.91663276,7.5864616
620,1715729245270,-0.65859926,0.17563534,8.150065,-0.65859926,0.17563534,8.150065
621,1715729245280,-0.64688134,0.10745847,8.234221,-0.64688134,0.10745847,8.234221
622,1715729245290,-0.64688134,0.10745847,8.234221,-0.64688134,0.10745847,8.234221
623,1715729245300,-0.47517415749999997,-0.052530810000000004,8.780801499999999,-0.47517415749999997,-0.052530810000000004,8.780801499999999
624,1715729245310,-0.13038827400000003,-0.19965703,9.6316612,-0.13038827400000003,-0.19965703,9.6316612
625,1715729245320,0.53409654,0.21185431,10.364216,0.53409654,0.21185431,10.364216
626,1715729245330,0.5412870975,0.26778064749999997,10.3578245,0.5412870975,0.26778064749999997,10.3578245
627,1715729245340,-0.2223737856,0.70003798,9.8151262,-0.2223737856,0.70003798,9.8151262
628,1715729245350,-0.9440899,0.8807067,9.437703,-0.9440899,0.8807067,9.437703
629,1715729245360,-1.3460938,0.96958965,9.264065,-1.3460938,0.96958965,9.264065
630,1715729245370,-2.30917202,1.2510189999999999,8.8642182,-2.30917202,1.2510189999999999,8.8642182
631,1715729245380,-4.172105,1.9977688,8.144739,-4.172105,1.9977688,8.144739
632,1715729245390,-5.0006137,2.3855247,7.8007927,-5.0006137,2.3855247,7.8007927
633,1715729245400,-5.548026,2.7273412,7.555782,-5.548026,2.7273412,7.555782
634,1715729245410,-5.636656,2.7823088,7.496553199999999,-5.636656,2.7823088,7.496553199999999
635,1715729245420,-5.753622249999999,2.6945843000000003,7.23044375,-5.753622249999999,2.6945843000000003,7.23044375
636,1715729245430,-5.4968934,2.236388,6.991325399999999,-5.4968934,2.236388,6.991325399999999
637,1715729245440,-5.4968934,2.236388,6.9913254,-5.4968934,2.236388,6.9913254
638,1715729245450,-3.783417,-0.039547913,5.8485637,-3.783417,-0.039547913,5.8485637
639,1715729245460,-3.16836035,-0.7424221815000001,5.4132703499999995,-3.16836035,-0.7424221815000001,5.4132703499999995
640,1715729245470,-2.0303924,-1.9873825,4.612192,-2.0303924,-1.9873825,4.612192
641,1715729245480,-1.789909175,-2.1711403750000002,4.422841375,-1.789909175,-2.1711403750000002,4.422841375
642,1715729245490,-1.1708579,-2.4005716,3.9614491,-1.1708579,-2.4005716,3.9614491
643,1715729245500,-1.06789355,-2.2704429999999998,4.0357513,-1.06789355,-2.2704429999999998,4.0357513
644,1715729245510,-0.9819067850000001,-2.1136162499999998,4.16324985,-0.9819067850000001,-2.1136162499999998,4.16324985
645,1715729245520,-0.6511424,-1.5656712,5.044556,-0.6511424,-1.5656712,5.044556
646,1715729245530,-0.602406575,-1.517734425,5.2010498,-0.602406575,-1.517734425,5.2010498
647,1715729245540,-0.389407116,-0.8193475319999999,6.1785024,-0.389407116,-0.8193475319999999,6.1785024
648,1715729245550,-0.46485442,-0.0075900033,6.3736057,-0.46485442,-0.0075900033,6.3736057
649,1715729245560,-0.48855654,0.06245108252500001,6.241812525,-0.48855654,0.06245108252500001,6.241812525
650,1715729245570,-0.48935547,0.49188548,3.8176386,-0.48935547,0.49188548,3.8176386
651,1715729245580,-0.462723895,0.5062665399999999,3.5481934500000003,-0.462723895,0.5062665399999999,3.5481934500000003
652,1715729245590,0.072571088,0.5768935199999999,0.33851414,0.072571088,0.5768935199999999,0.33851414
653,1715729245600,0.5404881,0.7582014,-1.7310535000000002,0.5404881,0.7582014,-1.7310535000000002
654,1715729245610,0.572712325,0.82954075,-1.899032225,0.572712325,0.82954075,-1.899032225
655,1715729245620,0.7002777,1.569666,-3.0430586,0.7002777,1.569666,-3.0430586
656,1715729245630,0.6787061249999999,1.8572871750000002,-3.5335127,0.6787061249999999,1.8572871750000002,-3.5335127
657,1715729245640,0.8185220000000001,1.8860493,-4.060119,0.8185220000000001,1.8860493,-4.060119
658,1715729245650,1.6310518000000003,1.3460938,-4.6671863,1.6310518000000003,1.3460938,-4.6671863
659,1715729245660,1.6310518,1.3460938,-4.6671863,1.6310518,1.3460938,-4.6671863
660,1715729245670,2.195808025,1.02811258,-4.959501275,2.195808025,1.02811258,-4.959501275
661,1715729245680,3.0789448999999998,0.571780265,-5.3988228,3.0789448999999998,0.571780265,-5.3988228
662,1715729245690,4.414985,-0.27164224,-6.2646823,4.414985,-0.27164224,-6.2646823
663,1715729245700,4.519381,-0.37603807,-6.57787,4.519381,-0.37603807,-6.57787
664,1715729245710,4.5057989,-0.3890875475,-6.644149375,4.5057989,-0.3890875475,-6.644149375
665,1715729245720,4.230828,-0.6125266,-7.328614,4.230828,-0.6125266,-7.328614
666,1715729245730,4.1211057,-0.71585715,-7.5267534,4.1211057,-0.71585715,-7.5267534
667,1715729245740,3.922167675,-1.0329395625,-7.9492971,3.922167675,-1.0329395625,-7.9492971
668,1715729245750,3.7738297,-1.3654016,-8.440483,3.7738297,-1.3654016,-8.440483
669,1715729245760,3.75761765,-1.514005925,-8.589853,3.75761765,-1.514005925,-8.589853
670,1715729245770,3.7292216000000002,-1.7904419,-8.840889,3.7292216000000002,-1.7904419,-8.840889
671,1715729245780,3.6806455999999996,-1.95736862,-8.8979874,3.6806455999999996,-1.95736862,-8.8979874
672,1715729245790,3.57901952,-2.1882911,-8.9192928,3.57901952,-2.1882911,-8.9192928
673,1715729245800,3.5193648,-2.3144183,-8.92398,3.5193648,-2.3144183,-8.92398
674,1715729245810,3.3255400800000006,-2.49801658,-8.9388936,3.3255400800000006,-2.49801658,-8.9388936
675,1715729245820,2.797249,-2.8808722,-9.008136,2.797249,-2.8808722,-9.008136
676,1715729245830,2.6221996,-2.90707774,-9.034341000000001,2.6221996,-2.90707774,-9.034341000000001
677,1715729245840,2.1880515,-2.8032413,-8.972982,2.1880515,-2.8032413,-8.972982
678,1715729245850,1.9293255999999999,-2.6381254,-8.809997,1.9293255999999999,-2.6381254,-8.809997
679,1715729245860,1.8698838800000002,-2.60105422,-8.767413,1.8698838800000002,-2.60105422,-8.767413
680,1715729245870,1.3052143,-2.2430458,-8.392547,1.3052143,-2.2430458,-8.392547
681,1715729245880,1.0144305999999998,-2.06301625,-8.23651875,1.0144305999999998,-2.06301625,-8.23651875
682,1715729245890,0.6534061,-1.8595508000000003,-8.039012,0.6534061,-1.8595508000000003,-8.039012
683,1715729245900,0.4703139,-1.7765934,-7.884548699999999,0.4703139,-1.7765934,-7.884548699999999
684,1715729245910,0.37870122,-1.7068187,-7.73494585,0.37870122,-1.7068187,-7.73494585
685,1715729245920,0.18375798,-1.4644712,-7.3435283,0.18375798,-1.4644712,-7.3435283
686,1715729245930,0.1246358475,-1.42026275,-7.267894500000001,0.1246358475,-1.42026275,-7.267894500000001
687,1715729245940,-0.29334697,-1.4740585,-6.735396,-0.29334697,-1.4740585,-6.735396
688,1715729245950,-0.637294,-1.5060165,-6.0676084,-0.637294,-1.5060165,-6.0676084
689,1715729245960,-0.669038848,-1.47001058,-5.90680692,-0.669038848,-1.47001058,-5.90680692
690,1715729245970,-0.67564344,-0.94901675,-4.482896,-0.67564344,-0.94901675,-4.482896
691,1715729245980,-0.60453711,-0.7669565374999999,-4.22253875,-0.60453711,-0.7669565374999999,-4.22253875
692,1715729245990,-0.62983716,-0.22370537,-3.334941,-0.62983716,-0.22370537,-3.334941
693,1715729246000,-0.8224367920000001,-0.0635962404,-2.9599682,-0.8224367920000001,-0.0635962404,-2.9599682
694,1715729246010,-0.928643575,-0.02143843075,-2.69185465,-0.928643575,-0.02143843075,-2.69185465
695,1715729246020,-1.1879021,-0.044874232,-1.7161397,-1.1879021,-0.044874232,-1.7161397
696,1715729246030,-1.2366379250000001,-0.06245108049999999,-0.9349685750000001,-1.2366379250000001,-0.06245108049999999,-0.9349685750000001
697,1715729246040,-1.1687274,0.14687322,0.84315616,-1.1687274,0.14687322,0.84315616
698,1715729246050,-1.2070769,0.40772966,1.7302544,-1.2070769,0.40772966,1.7302544
699,1715729246060,-1.2349868,0.46504084799999995,1.9044783199999997,-1.2349868,0.46504084799999995,1.9044783199999997
700,1715729246070,-1.5713971,1.0137315,3.4822137,-1.5713971,1.0137315,3.4822137
701,1715729246080,-1.6841818,1.1660643,3.9156427,-1.6841818,1.1660643,3.9156427
702,1715729246090,-1.8354492,1.423858,5.086101,-1.8354492,1.423858,5.086101
703,1715729246100,-1.7470323999999997,1.3301148,5.776259,-1.7470323999999997,1.3301148,5.776259
704,1715729246110,-1.6473503600000001,1.2221237,6.011389299999999,-1.6473503600000001,1.2221237,6.011389299999999
705,1715729246120,-1.444364325,1.02894475,6.538155375,-1.444364325,1.02894475,6.538155375
706,1715729246130,-1.32798425,0.86945485,6.79644865,-1.32798425,0.86945485,6.79644865
707,1715729246140,-1.0474205,0.05952160399999999,7.8039885,-1.0474205,0.05952160399999999,7.8039885
708,1715729246150,-1.0985532,-0.4900213,8.109586,-1.0985532,-0.4900213,8.109586
709,1715729246160,-1.099884775,-0.602373325,8.1495335,-1.099884775,-0.602373325,8.1495335
710,1715729246170,-0.9291762,-1.6199996000000003,8.535558,-0.9291762,-1.6199996000000003,8.535558
711,1715729246180,-0.8183887733333334,-1.7789902666666668,8.627170666666666,-0.8183887733333334,-1.7789902666666668,8.627170666666666
712,1715729246190,-0.09422256399999998,-2.26147488,9.031651400000001,-0.09422256399999998,-2.26147488,9.031651400000001
713,1715729246200,0.177792504,-2.3807577600000003,9.161587200000001,0.177792504,-2.3807577600000003,9.161587200000001
714,1715729246210,0.478503125,-2.32044385,9.2353035,0.478503125,-2.32044385,9.2353035
715,1715729246220,1.2956269,-1.467667,9.308806,1.2956269,-1.467667,9.308806
716,1715729246230,0.9868336299999999,-0.8616651,9.2715225,0.9868336299999999,-0.8616651,9.2715225
717,1715729246240,-0.14847112,0.226768,9.20015,-0.14847112,0.226768,9.20015
718,1715729246250,-1.4030854,1.1543463,9.013728,-1.4030854,1.1543463,9.013728
719,1715729246260,-2.7651582,2.0989687,8.590952,-2.7651582,2.0989687,8.590952
720,1715729246270,-4.034686,2.944655,8.033952,-4.034686,2.944655,8.033952
721,1715729246280,-4.4340931999999995,3.1469885,7.8433364999999995,-4.4340931999999995,3.1469885,7.8433364999999995
722,1715729246290,-5.797298,3.6123090000000007,7.2224874,-5.797298,3.6123090000000007,7.2224874
723,1715729246300,-6.1518974,3.4079115,7.008369400000001,-6.1518974,3.4079115,7.008369400000001
724,1715729246310,-6.138475120000001,3.2890547,6.95172402,-6.138475120000001,3.2890547,6.95172402
725,1715729246320,-5.5682664,2.0584888,6.2853217,-5.5682664,2.0584888,6.2853217
726,1715729246330,-5.104976325,1.6007917,5.971335175,-5.104976325,1.6007917,5.971335175
727,1715729246340,-3.41062802,-0.07613972,4.7802108,-3.41062802,-0.07613972,4.7802108
728,1715729246350,-2.4563649,-1.0406294,4.12763,-2.4563649,-1.0406294,4.12763
729,1715729246360,-1.0481928,-2.3891467,3.5324940400000004,-1.0481928,-2.3891467,3.5324940400000004
730,1715729246370,-0.216648,-3.1525147,3.350121,-0.216648,-3.1525147,3.350121
731,1715729246380,0.041492016,-3.3147809199999996,3.33350292,0.041492016,-3.3147809199999996,3.33350292
732,1715729246390,1.1741868,-3.4442636999999996,3.5546515,1.1741868,-3.4442636999999996,3.5546515
733,1715729246400,1.5809844,-2.9383967,4.009386,1.5809844,-2.9383967,4.009386
734,1715729246410,1.61358146,-2.8008178800000003,4.1241948,1.61358146,-2.8008178800000003,4.1241948
735,1715729246420,1.6470307,-1.463406,4.9614654,1.6470307,-1.463406,4.9614654
736,1715729246430,1.61297555,-1.307111825,4.9638621999999994,1.61297555,-1.307111825,4.9638621999999994
737,1715729246440,1.2903006,0.0126500055,4.3906174,1.2903006,0.0126500055,4.3906174
738,1715729246450,1.2817785,0.11065426,4.1764994,1.2817785,0.11065426,4.1764994
739,1715729246460,1.4943518599999999,0.12301131600000001,3.28066588,1.4943518599999999,0.12301131600000001,3.28066588
740,1715729246470,2.4362578,-0.072571084,0.5576655,2.4362578,-0.072571084,0.5576655
741,1715729246480,2.63215988,-0.0819454048,0.063489708,2.63215988,-0.0819454048,0.063489708
742,1715729246490,2.7663565,0.4599276,-1.6511587,2.7663565,0.4599276,-1.6511587
743,1715729246500,2.249837,0.9093357,-2.3710105,2.249837,0.9093357,-2.3710105
744,1715729246510,2.249837,0.9093357,-2.3710105,2.249837,0.9093357,-2.3710105
745,1715729246520,0.7407577,1.7177377,-3.832286,0.7407577,1.7177377,-3.832286
746,1715729246530,0.573378148,1.7113460799999998,-4.09809584,0.573378148,1.7113460799999998,-4.09809584
747,1715729246540,0.609996592,1.37799844,-4.79094336,0.609996592,1.37799844,-4.79094336
748,1715729246550,0.8313051,1.0350368,-5.2657313,0.8313051,1.0350368,-5.2657313
749,1715729246560,0.8313051,1.0350368,-5.2657313,0.8313051,1.0350368,-5.2657313
750,1715729246570,2.1347883,0.21505009999999997,-6.247638,2.1347883,0.21505009999999997,-6.247638
751,1715729246580,2.2276792999999997,0.190762088,-6.317519320000001,2.2276792999999997,0.190762088,-6.317519320000001
752,1715729246590,2.6152222,0.14580797,-6.619282,2.6152222,0.14580797,-6.619282
753,1715729246600,2.768487,0.08721846,-6.71196,2.768487,0.08721846,-6.71196
754,1715729246610,2.9879313,-0.15885743,-6.7939853999999995,2.9879313,-0.15885743,-6.7939853999999995
755,1715729246620,3.0671869000000003,-0.37009923,-6.8766498799999995,3.0671869000000003,-0.37009923,-6.8766498799999995
756,1715729246630,3.1077735000000004,-0.53955604,-6.97561265,3.1077735000000004,-0.53955604,-6.97561265
757,1715729246640,3.12939844,-1.06600936,-7.32139706,3.12939844,-1.06600936,-7.32139706
758,1715729246650,3.0976536,-1.544366,-7.5789514,3.0976536,-1.544366,-7.5789514
759,1715729246660,2.9975188,-2.2366543,-7.83022,2.9975188,-2.2366543,-7.83022
760,1715729246670,2.95490824,-2.44960046,-7.8949884,2.95490824,-2.44960046,-7.8949884
761,1715729246680,2.9128303,-2.644217425,-7.941540375000001,2.9128303,-2.644217425,-7.941540375000001
762,1715729246690,2.7312028,-3.3613062,-8.034751,2.7312028,-3.3613062,-8.034751
763,1715729246700,2.6896574,-3.3900683000000003,-7.9878793,2.6896574,-3.3900683000000003,-7.9878793
764,1715729246710,2.6379656000000002,-3.3849551,-7.926520120000001,2.6379656000000002,-3.3849551,-7.926520120000001
765,1715729246720,2.1912472,-3.1280136000000005,-7.6226273,2.1912472,-3.1280136000000005,-7.6226273
766,1715729246730,2.0864785599999998,-3.0389574799999997,-7.582999460000001,2.0864785599999998,-3.0389574799999997,-7.582999460000001
767,1715729246740,1.3669996,-2.5763402,-7.4180965,1.3669996,-2.5763402,-7.4180965
768,1715729246750,1.0974878,-2.4293337,-7.3744206,1.0974878,-2.4293337,-7.3744206
769,1715729246760,0.19547588,-1.8915087,-7.19013,0.19547588,-1.8915087,-7.19013
770,1715729246770,-0.33595753,-1.5454313,-7.0421915,-0.33595753,-1.5454313,-7.0421915
771,1715729246780,-0.4080958475,-1.495097575,-7.011831525,-0.4080958475,-1.495097575,-7.011831525
772,1715729246790,-0.82584566,-0.990562,-6.717286,-0.82584566,-0.990562,-6.717286
773,1715729246800,-0.82158458,-0.958604115,-6.6991767499999995,-0.82158458,-0.958604115,-6.6991767499999995
774,1715729246810,-0.45313653,-0.6295708,-6.35523,-0.45313653,-0.6295708,-6.35523
775,1715729246820,-0.20386483,-0.63383186,-6.121937,-0.20386483,-0.63383186,-6.121937
776,1715729246830,-0.193212195,-0.6628269950000001,-6.0737670999999995,-0.193212195,-0.6628269950000001,-6.0737670999999995
777,1715729246840,-0.3689807,-0.9191894000000002,-5.5862427,-0.3689807,-0.9191894000000002,-5.5862427
778,1715729246850,-0.8333025,-0.92451566,-4.9100666,-0.8333025,-0.92451566,-4.9100666
779,1715729246860,-0.9278978600000001,-0.742249052,-4.34515732,-0.9278978600000001,-0.742249052,-4.34515732
780,1715729246870,-0.87229114,-0.47169872,-3.72424168,-0.87229114,-0.47169872,-3.72424168
781,1715729246880,-0.8133288,-0.318547103,-3.4323128,-0.8133288,-0.318547103,-3.4323128
782,1715729246890,-0.7044056,0.2640522,-2.4082947,-0.7044056,0.2640522,-2.4082947
783,1715729246900,-0.7736477,0.36938018,-1.9546256,-0.7736477,0.36938018,-1.9546256
784,1715729246910,-0.8290414,0.35872754,-0.8299735,-0.8290414,0.35872754,-0.8299735
785,1715729246920,-0.8226498400000001,0.36085805,0.23076274,-0.8226498400000001,0.36085805,0.23076274
786,1715729246930,-0.8391614199999999,0.398674925,0.59494972,-0.8391614199999999,0.398674925,0.59494972
787,1715729246940,-1.053812,0.64528346,2.0209384,-1.053812,0.64528346,2.0209384
788,1715729246950,-1.15341416,0.730504564,2.32432544,-1.15341416,0.730504564,2.32432544
789,1715729246960,-1.4148032750000001,0.9730184849999999,3.13979805,-1.4148032750000001,0.9730184849999999,3.13979805
790,1715729246970,-1.4989591,1.225719,3.9262955000000006,-1.4989591,1.225719,3.9262955000000006
791,1715729246980,-1.4989591,1.225719,3.9262955,-1.4989591,1.225719,3.9262955
792,1715729246990,-1.1325084,1.177782,5.076514,-1.1325084,1.177782,5.076514
793,1715729247000,-0.9884980750000001,1.0289447675,5.466001075,-0.9884980750000001,1.0289447675,5.466001075
794,1715729247010,-0.626881006,0.613991356,6.42705524,-0.626881006,0.613991356,6.42705524
795,1715729247020,-0.46165862999999996,0.3354249,6.858167,-0.46165862999999996,0.3354249,6.858167
796,1715729247030,-0.404667015,0.18841851150000002,7.009434499999999,-0.404667015,0.18841851150000002,7.009434499999999
797,1715729247040,-0.25925854,-0.43036652,7.415167,-0.25925854,-0.43036652,7.415167
798,1715729247050,-0.262667388,-0.5505282640000001,7.45181204,-0.262667388,-0.5505282640000001,7.45181204
799,1715729247060,-0.31625015,-0.8593015500000001,7.599990375,-0.31625015,-0.8593015500000001,7.599990375
800,1715729247070,-0.31145647,-1.1961579,8.017973,-0.31145647,-1.1961579,8.017973
801,1715729247080,-0.1777991675,-1.216364625,8.27330325,-0.1777991675,-1.216364625,8.27330325
802,1715729247090,0.22317274,-1.2769848,9.039294,0.22317274,-1.2769848,9.039294
803,1715729247100,0.56102776,-1.0413951,9.45225075,0.56102776,-1.0413951,9.45225075
804,1715729247110,0.91812408,-0.48519431,9.84237025,0.91812408,-0.48519431,9.84237025
805,1715729247120,0.8547409479999999,0.10855036,9.8012516,0.8547409479999999,0.10855036,9.8012516
806,1715729247130,0.602872665,0.39021941000000004,9.567599000000001,0.602872665,0.39021941000000004,9.567599000000001
807,1715729247140,-0.50107336,0.9231841,8.537688,-0.50107336,0.9231841,8.537688
808,1715729247150,-1.2859063,1.1064094,7.8849483,-1.2859063,1.1064094,7.8849483
809,1715729247160,-2.6331985,1.4546175,6.791188700000001,-2.6331985,1.4546175,6.791188700000001
810,1715729247170,-3.0557885000000002,1.53302086,6.38734734,-3.0557885000000002,1.53302086,6.38734734
811,1715729247180,-3.21839435,1.563274325,6.226466,-3.21839435,1.563274325,6.226466
812,1715729247190,-3.4744903999999996,1.6964323999999997,5.9178057,-3.4744903999999996,1.6964323999999997,5.9178057
813,1715729247200,-3.4441304749999997,1.73078705,5.918604675,-3.4441304749999997,1.73078705,5.918604675
814,1715729247210,-3.1124341,1.7795229,5.9795914,-3.1124341,1.7795229,5.9795914
815,1715729247220,-2.905773,1.7326514,5.930589,-2.905773,1.7326514,5.930589
816,1715729247230,-2.905773,1.7326514,5.930589,-2.905773,1.7326514,5.930589
817,1715729247240,-1.6108118,0.6772414,5.4428315,-1.6108118,0.6772414,5.4428315
818,1715729247250,-1.29067346,0.44786348800000003,5.3616584,-1.29067346,0.44786348800000003,5.3616584
819,1715729247260,1.2785827,-0.96925676,5.259606,1.2785827,-0.96925676,5.259606
820,1715729247270,2.2594242,-1.2993553,5.4311137,2.2594242,-1.2993553,5.4311137
821,1715729247280,2.6300693500000003,-1.37072795,5.50461675,2.6300693500000003,-1.37072795,5.50461675
822,1715729247290,3.4533183999999997,-1.1812443,5.622861,3.4533183999999997,-1.1812443,5.622861
823,1715729247300,3.34849648,-1.0150631319999999,5.5453098,3.34849648,-1.0150631319999999,5.5453098
824,1715729247310,1.7748624,-0.08215846,5.052013,1.7748624,-0.08215846,5.052013
825,1715729247320,0.18695377,0.48975495,4.6260405,0.18695377,0.48975495,4.6260405
826,1715729247330,-0.32937953799999997,0.59500301,4.37426542,-0.32937953799999997,0.59500301,4.37426542
827,1715729247340,-1.49323334,0.452044636,3.2765910399999996,-1.49323334,0.452044636,3.2765910399999996
828,1715729247350,-1.5234601,0.0126500055,2.5790033,-1.5234601,0.0126500055,2.5790033
829,1715729247360,-0.7214498,-0.9617999000000002,1.1785811,-0.7214498,-0.9617999000000002,1.1785811
830,1715729247370,-0.3689807,-1.2780501,0.42770335,-0.3689807,-1.2780501,0.42770335
831,1715729247380,-0.364506592,-1.28167198,0.326316884,-0.364506592,-1.28167198,0.326316884
832,1715729247390,-0.568185,-0.85740405,-0.91732514,-0.568185,-0.85740405,-0.91732514
833,1715729247400,-0.64048976,-0.55500233,-1.3081437,-0.64048976,-0.55500233,-1.3081437
834,1715729247410,-0.44674495,0.20120168,-2.5808675,-0.44674495,0.20120168,-2.5808675
835,1715729247420,-0.032290806666666665,0.2855350466666667,-3.2208025,-0.032290806666666665,0.2855350466666667,-3.2208025
836,1715729247430,0.20892483133333337,0.25553011666666664,-3.5198974,0.20892483133333337,0.25553011666666664,-3.5198974
837,1715729247440,1.1614037,-0.20879167,-4.4583945,1.1614037,-0.20879167,-4.4583945
838,1715729247450,1.5727619,-0.608165665,-4.858567575,1.5727619,-0.608165665,-4.858567575
839,1715729247460,2.0773973,-1.148221,-5.500089,2.0773973,-1.148221,-5.500089
840,1715729247470,2.1837904,-1.2568779,-5.7481627,2.1837904,-1.2568779,-5.7481627
841,1715729247480,2.1880515,-1.2361052750000001,-5.920968375,2.1880515,-1.2361052750000001,-5.920968375
842,1715729247490,2.15590728,-1.1296854799999998,-6.543541619999999,2.15590728,-1.1296854799999998,-6.543541619999999
843,1715729247500,1.9602182333333333,-0.9394293666666665,-6.993899866666666,1.9602182333333333,-0.9394293666666665,-6.993899866666666
844,1715729247510,1.67070622,-0.77047854,-7.743401520000001,1.67070622,-0.77047854,-7.743401520000001
845,1715729247520,1.5736607,-0.8275767,-8.047534,1.5736607,-0.8275767,-8.047534
846,1715729247530,1.5736607,-0.8275767,-8.047534,1.5736607,-0.8275767,-8.047534
847,1715729247540,1.3177310500000001,-1.1327747124999998,-8.64581325,1.3177310500000001,-1.1327747124999998,-8.64581325
848,1715729247550,1.204846375,-1.26856255,-8.77041575,1.204846375,-1.26856255,-8.77041575
849,1715729247560,1.0028125,-1.5209302,-8.897348,1.0028125,-1.5209302,-8.897348
850,1715729247570,0.9735178333333333,-1.6984741166666666,-8.928418,0.9735178333333333,-1.6984741166666666,-8.928418
851,1715729247580,0.99961674,-1.8712687,-8.972982,0.99961674,-1.8712687,-8.972982
852,1715729247590,1.0294441,-1.9021614,-8.980439,1.0294441,-1.9021614,-8.980439
853,1715729247600,1.02475698,-1.87915172,-8.9689338,1.02475698,-1.87915172,-8.9689338
854,1715729247610,0.9143957,-1.6604797,-8.820649,0.9143957,-1.6604797,-8.820649
855,1715729247620,0.8820117,-1.62213026,-8.7882654,0.8820117,-1.62213026,-8.7882654
856,1715729247630,0.8739156999999999,-1.6125429,-8.7801695,0.8739156999999999,-1.6125429,-8.7801695
857,1715729247640,0.19632809199999998,-1.15567784,-8.3946776,0.19632809199999998,-1.15567784,-8.3946776
858,1715729247650,0.0584829764,-1.1045452199999999,-8.3367266,0.0584829764,-1.1045452199999999,-8.3367266
859,1715729247660,-0.0829307716,-1.0555431,-8.237923200000001,-0.0829307716,-1.0555431,-8.237923200000001
860,1715729247670,-0.24008379,-1.0219873,-8.07416575,-0.24008379,-1.0219873,-8.07416575
861,1715729247680,-0.254198535,-1.047021025,-7.97056875,-0.254198535,-1.047021025,-7.97056875
862,1715729247690,-0.12397005399999998,-1.0438253,-7.531014400000001,-0.12397005399999998,-1.0438253,-7.531014400000001
863,1715729247700,-0.06942855880000001,-1.06427826,-7.2489328,-0.06942855880000001,-1.06427826,-7.2489328
864,1715729247710,-0.09094688,-1.2323769,-6.5278025,-0.09094688,-1.2323769,-6.5278025
865,1715729247720,-0.33595753,-1.3440964,-5.825927,-0.33595753,-1.3440964,-5.825927
866,1715729247730,-0.33595753,-1.3440964,-5.825927,-0.33595753,-1.3440964,-5.825927
867,1715729247740,-0.9749159575,-1.12049095,-4.954474625,-0.9749159575,-1.12049095,-4.954474625
868,1715729247750,-1.208674725,-0.9905620749999999,-4.56815005,-1.208674725,-0.9905620749999999,-4.56815005
869,1715729247760,-1.101749,-0.4335623,-3.5116415,-1.101749,-0.4335623,-3.5116415
870,1715729247770,-1.0448639,-0.397769444,-3.29249012,-1.0448639,-0.397769444,-3.29249012
871,1715729247780,-1.0069405,-0.37390754,-3.1463892,-1.0069405,-0.37390754,-3.1463892
872,1715729247790,-0.7097763166666667,-0.4367580933333333,-1.8513394166666668,-0.7097763166666667,-0.4367580933333333,-1.8513394166666668
873,1715729247800,-0.36218966,-0.4055103666666667,-0.3305424666666667,-0.36218966,-0.4055103666666667,-0.3305424666666667
874,1715729247810,-0.092651306,0.081279614,1.72998816,-0.092651306,0.081279614,1.72998816
875,1715729247820,-0.1062866788,0.29771456,2.225682,-0.1062866788,0.29771456,2.225682
876,1715729247830,-0.2217346248,0.481525804,2.4668044399999998,-0.2217346248,0.481525804,2.4668044399999998
877,1715729247840,-0.9408941,1.6271902,3.757984,-0.9408941,1.6271902,3.757984
878,1715729247850,-1.0119117,1.808285,4.008675866666667,-1.0119117,1.808285,4.008675866666667
879,1715729247860,-0.97498256,2.0702066,4.964661,-0.97498256,2.0702066,4.964661
880,1715729247870,-0.7864309,1.9670093,5.4545493,-0.7864309,1.9670093,5.4545493
881,1715729247880,-0.43928808,1.589906,6.1425767,-0.43928808,1.589906,6.1425767
882,1715729247890,-0.041944757,1.0084052,6.743252000000001,-0.041944757,1.0084052,6.743252000000001
883,1715729247900,0.02832935475,0.8920584399999999,6.82684185,0.02832935475,0.8920584399999999,6.82684185
884,1715729247910,0.5322056980000001,-0.005699159999999992,7.29322068,0.5322056980000001,-0.005699159999999992,7.29322068
885,1715729247920,0.6938861,-0.36751595,7.3716245,0.6938861,-0.36751595,7.3716245
886,1715729247930,0.7159015533333334,-0.5549579666666666,7.374820266666667,0.7159015533333334,-0.5549579666666666,7.374820266666667
887,1715729247940,0.7673893,-1.2536821,7.4609733,0.7673893,-1.2536821,7.4609733
888,1715729247950,0.79764278,-1.32862342,7.511679979999999,0.79764278,-1.32862342,7.511679979999999
889,1715729247960,1.1699258,-1.5635407,7.894535500000001,1.1699258,-1.5635407,7.894535500000001
890,1715729247970,1.3182105199999998,-1.5345654999999998,8.003511900000001,1.3182105199999998,-1.5345654999999998,8.003511900000001
891,1715729247980,1.846235,-1.0736526,8.363118,1.846235,-1.0736526,8.363118
892,1715729247990,1.8844069166666666,-0.6103738833333333,8.443013,1.8844069166666666,-0.6103738833333333,8.443013
893,1715729248000,1.8390444750000001,-0.39338189675,8.44993725,1.8390444750000001,-0.39338189675,8.44993725
894,1715729248010,1.096222875,0.63466413325,8.21105175,1.096222875,0.63466413325,8.21105175
895,1715729248020,0.69282085,1.0137315,8.052061,0.69282085,1.0137315,8.052061
896,1715729248030,0.69282085,1.0137315,8.052061,0.69282085,1.0137315,8.052061
897,1715729248040,-1.6406392,2.0680761,6.962563,-1.6406392,2.0680761,6.962563
898,1715729248050,-1.74884336,2.08746392,6.91017872,-1.74884336,2.08746392,6.91017872
899,1715729248060,-2.744918,2.0765984,6.29917,-2.744918,2.0765984,6.29917
900,1715729248070,-2.8224693600000004,1.95142992,6.169634,-2.8224693600000004,1.95142992,6.169634
901,1715729248080,-2.71535706,1.86303962,6.03818052,-2.71535706,1.86303962,6.03818052
902,1715729248090,-2.4180152,1.7496955000000003,5.809149000000001,-2.4180152,1.7496955000000003,5.809149000000001
903,1715729248100,-2.3692794,1.73158605,5.7553865,-2.3692794,1.73158605,5.7553865
904,1715729248110,-1.9014956,1.3290496,5.1393642,-1.9014956,1.3290496,5.1393642
905,1715729248120,-1.69792368,1.01543592,4.89222324,-1.69792368,1.01543592,4.89222324
906,1715729248130,-0.9824394,-0.010785795,4.32244,-0.9824394,-0.010785795,4.32244
907,1715729248140,-0.13675322,-0.75726926,4.061584,-0.13675322,-0.75726926,4.061584
908,1715729248150,-0.13675322,-0.75726926,4.061584,-0.13675322,-0.75726926,4.061584
909,1715729248160,1.437506675,-0.98709993,4.096737575,1.437506675,-0.98709993,4.096737575
910,1715729248170,1.78612754,-0.945607932,4.167870519999999,1.78612754,-0.945607932,4.167870519999999
911,1715729248180,3.0742178,-0.039547913,5.234173,3.0742178,-0.039547913,5.234173
912,1715729248190,3.007106,0.26618275,5.379981,3.007106,0.26618275,5.379981
913,1715729248200,2.9169136666666664,0.2207315,5.274919333333333,2.9169136666666664,0.2207315,5.274919333333333
914,1715729248210,2.197639,-0.29827383,3.9177732,2.197639,-0.29827383,3.9177732
915,1715729248220,1.98341438,-0.364320168,3.28561922,1.98341438,-0.364320168,3.28561922
916,1715729248230,1.3329111,-0.51984864,1.3468927,1.3329111,-0.51984864,1.3468927
917,1715729248240,1.142229,-0.49641284,0.76965296,1.142229,-0.49641284,0.76965296
918,1715729248250,1.0552768333333333,-0.41651807,0.4377345733333334,1.0552768333333333,-0.41651807,0.4377345733333334
919,1715729248260,0.51705235,0.3651191,-1.5883081,0.51705235,0.3651191,-1.5883081
920,1715729248270,0.4244742775,0.524109725,-1.9501315,0.4244742775,0.524109725,-1.9501315
921,1715729248280,0.16351797,0.8317046,-3.5318816,0.16351797,0.8317046,-3.5318816
922,1715729248290,0.22423800000000002,0.63995713,-4.474374,0.22423800000000002,0.63995713,-4.474374
923,1715729248300,0.2604569666666667,0.5717802533333333,-4.607531833333334,0.2604569666666667,0.5717802533333333,-4.607531833333334
924,1715729248310,0.74182296,-0.14500901,-5.6277876000000004,0.74182296,-0.14500901,-5.6277876000000004
925,1715729248320,0.74182296,-0.14500901,-5.6277876,0.74182296,-0.14500901,-5.6277876
926,1715729248330,1.3851091,-0.9191894000000002,-6.528867700000001,1.3851091,-0.9191894000000002,-6.528867700000001
927,1715729248340,1.4287848,-1.063,-6.852575,1.4287848,-1.063,-6.852575
928,1715729248350,1.40449684,-1.0911229199999999,-6.93779604,1.40449684,-1.0911229199999999,-6.93779604
929,1715729248360,1.2221237,-1.2504864,-7.274286,1.2221237,-1.2504864,-7.274286
930,1715729248370,1.1693932249999999,-1.319895,-7.342196550000001,1.1693932249999999,-1.319895,-7.342196550000001
931,1715729248380,1.1454247,-1.6966987,-7.650324,1.1454247,-1.6966987,-7.650324
932,1715729248390,1.22041926,-1.8107884600000002,-7.75759624,1.22041926,-1.8107884600000002,-7.75759624
933,1715729248400,1.2512409,-1.8595509000000001,-7.806074633333334,1.2512409,-1.8595509000000001,-7.806074633333334
934,1715729248410,1.2604733,-2.0236015,-7.986814,1.2604733,-2.0236015,-7.986814
935,1715729248420,1.2187149,-2.07302974,-8.0089716,1.2187149,-2.07302974,-8.0089716
936,1715729248430,1.076249175,-2.18445625,-8.0113155,1.076249175,-2.18445625,-8.0113155
937,1715729248440,0.7716504,-2.3366559,-8.016642,0.7716504,-2.3366559,-8.016642
938,1715729248450,0.742355635,-2.33455865,-8.018505999999999,0.742355635,-2.33455865,-8.018505999999999
939,1715729248460,0.50014126,-2.2792647,-8.004924,0.50014126,-2.2792647,-8.004924
940,1715729248470,0.45582630799999996,-2.25540278,-7.99128824,0.45582630799999996,-2.25540278,-7.99128824
941,1715729248480,0.28176224,-2.2600899,-7.866439299999999,0.28176224,-2.2600899,-7.866439299999999
942,1715729248490,0.15819165,-2.3600917,-7.691736,0.15819165,-2.3600917,-7.691736
943,1715729248500,0.11904321137499999,-2.3976422,-7.652620875,0.11904321137499999,-2.3976422,-7.652620875
944,1715729248510,-0.20279955999999996,-2.6913886,-7.460707000000001,-0.20279955999999996,-2.6913886,-7.460707000000001
945,1715729248520,-0.267993706,-2.72334652,-7.4460064,-0.267993706,-2.72334652,-7.4460064
946,1715729248530,-0.56392395,-2.7872622,-7.2817426,-0.56392395,-2.7872622,-7.2817426
947,1715729248540,-0.6029725125,-2.696981175,-7.1396299,-0.6029725125,-2.696981175,-7.1396299
948,1715729248550,-0.619717125,-2.624010675,-7.023283175,-0.619717125,-2.624010675,-7.023283175
949,1715729248560,-0.6453899599999999,-2.44509956,-6.45256826,-0.6453899599999999,-2.44509956,-6.45256826
950,1715729248570,-0.654125122,-2.42145076,-6.15964724,-0.654125122,-2.42145076,-6.15964724
951,1715729248580,-0.73423296,-2.4847274,-5.4926324,-0.73423296,-2.4847274,-5.4926324
952,1715729248590,-0.762355912,-2.49580628,-5.4414998400000005,-0.762355912,-2.49580628,-5.4414998400000005
953,1715729248600,-0.76938665,-2.498576,-5.4287167,-0.76938665,-2.498576,-5.4287167
954,1715729248610,-1.5554180000000002,-2.090713,-5.3882365000000005,-1.5554180000000002,-2.090713,-5.3882365000000005
955,1715729248620,-1.8549236,-1.76164645,-5.422591375,-1.8549236,-1.76164645,-5.422591375
956,1715729248630,-1.9707377000000001,-0.8542083,-4.8216496,-1.9707377000000001,-0.8542083,-4.8216496
957,1715729248640,-1.6990954999999999,-0.6743119,-3.9866161,-1.6990954999999999,-0.6743119,-3.9866161
958,1715729248650,-1.29914228,-0.67047694,-3.00638704,-1.29914228,-0.67047694,-3.00638704
959,1715729248660,-0.022903169,-0.50493497,-0.031292118,-0.022903169,-0.50493497,-0.031292118
960,1715729248670,0.42450756,-0.16737954,1.6727301999999997,0.42450756,-0.16737954,1.6727301999999997
961,1715729248680,0.41918126,0.16391744,2.145574,0.41918126,0.16391744,2.145574
962,1715729248690,0.16458324,0.6729803,2.9561067,0.16458324,0.6729803,2.9561067
963,1715729248700,0.16458324,0.6729803,2.9561067,0.16458324,0.6729803,2.9561067
964,1715729248710,-0.054727920000000006,1.4375732999999997,4.7601304,-0.054727920000000006,1.4375732999999997,4.7601304
965,1715729248720,0.0602206875,1.5198649499999999,5.3168971,0.0602206875,1.5198649499999999,5.3168971
966,1715729248730,0.5958818,1.4748576,6.7134247,0.5958818,1.4748576,6.7134247
967,1715729248740,1.0602037,1.3567464,7.5589776,1.0602037,1.3567464,7.5589776
968,1715729248750,1.2620711500000001,1.306679,7.9211008000000005,1.2620711500000001,1.306679,7.9211008000000005
969,1715729248760,1.7674055,1.1916305,8.9041395,1.7674055,1.1916305,8.9041395
970,1715729248770,1.9186729,1.1436937,9.233172,1.9186729,1.1436937,9.233172
971,1715729248780,2.0752668,1.1042789,9.4685955,2.0752668,1.1042789,9.4685955
972,1715729248790,2.1784642,1.0733863,9.536773,2.1784642,1.0733863,9.536773
973,1715729248800,2.1784642,1.0733863,9.536773,2.1784642,1.0733863,9.536773
974,1715729248810,2.2207195333333334,0.91537215,9.406101000000001,2.2207195333333334,0.91537215,9.406101000000001
975,1715729248820,2.071238825,0.8130291725000001,9.167659,2.071238825,0.8130291725000001,9.167659
976,1715729248830,1.7150745400000003,0.7079209580000001,8.821421599999999,1.7150745400000003,0.7079209580000001,8.821421599999999
977,1715729248840,1.1592731,0.68682873,8.360988,1.1592731,0.68682873,8.360988
978,1715729248850,1.0510157,0.7479038433333334,8.287839666666668,1.0510157,0.7479038433333334,8.287839666666668
979,1715729248860,0.5266397,1.1980221,7.979624,0.5266397,1.1980221,7.979624
980,1715729248870,0.41742354800000003,1.31946216,7.943271800000001,0.41742354800000003,1.31946216,7.943271800000001
981,1715729248880,-0.3487407,2.0936425,7.766704,-0.3487407,2.0936425,7.766704
982,1715729248890,-0.797749308,2.52390258,7.6490988799999995,-0.797749308,2.52390258,7.6490988799999995
983,1715729248900,-0.9100014599999999,2.6314676,7.6196976,-0.9100014599999999,2.6314676,7.6196976
984,1715729248910,-2.1667461,3.5485263,7.092525499999999,-2.1667461,3.5485263,7.092525499999999
985,1715729248920,-2.35713546,3.6251453400000004,6.974281100000001,-2.35713546,3.6251453400000004,6.974281100000001
986,1715729248930,-3.1742194,3.8008606,6.302366,-3.1742194,3.8008606,6.302366
987,1715729248940,-3.6278884,3.608048,5.7091475,-3.6278884,3.608048,5.7091475
988,1715729248950,-3.727756825,3.201816275,5.3243540000000005,-3.727756825,3.201816275,5.3243540000000005
989,1715729248960,-3.6886084,2.7976487,5.080775,-3.6886084,2.7976487,5.080775
990,1715729248970,-3.4787517,2.3588932,4.9327035,-3.4787517,2.3588932,4.9327035
991,1715729248980,-2.618285,1.5142722,4.8794403,-2.618285,1.5142722,4.8794403
992,1715729248990,-2.064481,1.2502201,4.9444213,-2.064481,1.2502201,4.9444213
993,1715729249000,-1.7012926,1.16446635,5.0094023,-1.7012926,1.16446635,5.0094023
994,1715729249010,-0.76086456,1.0105357,5.316065,-0.76086456,1.0105357,5.316065
995,1715729249020,-0.2851244725,0.9484841275,5.7583825,-0.2851244725,0.9484841275,5.7583825
996,1715729249030,0.11025479,0.9317062000000002,6.23845,0.11025479,0.9317062000000002,6.23845
997,1715729249040,0.3733749,0.91359675,6.683597000000001,0.3733749,0.91359675,6.683597000000001
998,1715729249050,0.309459084,0.9464068659999999,6.660161239999999,0.309459084,0.9464068659999999,6.660161239999999
999,1715729249060,-0.62238026,1.1937611,5.8783913,-0.62238026,1.1937611,5.8783913
1000,1715729249070,-0.67617607,1.206277925,5.825693975,-0.67617607,1.206277925,5.825693975
1001,1715729249080,-1.9547588,1.4110749000000002,4.2702427,-1.9547588,1.4110749000000002,4.2702427
1002,1715729249090,-2.0066016333333336,0.6814580433333334,2.703284066666667,-2.0066016333333336,0.6814580433333334,2.703284066666667
1003,1715729249100,-1.7054871,0.08295741,1.8463682,-1.7054871,0.08295741,1.8463682
1004,1715729249110,-0.7512772,-0.6998782,0.56192654,-0.7512772,-0.6998782,0.56192654
1005,1715729249120,-0.7512772,-0.6998782,0.56192654,-0.7512772,-0.6998782,0.56192654
1006,1715729249130,0.93783146,-0.4868255,-1.1612705,0.93783146,-0.4868255,-1.1612705
1007,1715729249140,1.1266494866666668,-0.26533942666666666,-1.4076127666666667,1.1266494866666668,-0.26533942666666666,-1.4076127666666667
1008,1715729249150,1.66751042,0.979483282,-2.38704286,1.66751042,0.979483282,-2.38704286
1009,1715729249160,1.7791234000000002,1.2630032,-2.6011076,1.7791234000000002,1.2630032,-2.6011076
1010,1715729249170,2.369146366666667,1.3797827666666667,-3.3874052999999997,2.369146366666667,1.3797827666666667,-3.3874052999999997
1011,1715729249180,2.9421249999999994,1.0744516,-4.10273,2.9421249999999994,1.0744516,-4.10273
1012,1715729249190,3.4256214999999997,0.08934899,-4.7683864,3.4256214999999997,0.08934899,-4.7683864
1013,1715729249200,3.4256215,0.08934899,-4.7683864,3.4256215,0.08934899,-4.7683864
1014,1715729249210,3.9826211999999996,-1.1535474,-5.749228,3.9826211999999996,-1.1535474,-5.749228
1015,1715729249220,3.9826211999999996,-1.1535474,-5.749228,3.9826211999999996,-1.1535474,-5.749228
1016,1715729249230,4.3681135,-2.1940436,-7.286004,4.3681135,-2.1940436,-7.286004
1017,1715729249240,4.3369543749999995,-2.1916468250000003,-7.338734475,4.3369543749999995,-2.1916468250000003,-7.338734475
1018,1715729249250,3.8207010999999995,-1.9117488,-7.84833,3.8207010999999995,-1.9117488,-7.84833
1019,1715729249260,3.4511878000000005,-1.7222649999999997,-8.1743,3.4511878000000005,-1.7222649999999997,-8.1743
1020,1715729249270,3.2989217,-1.6690018,-8.3057935,3.2989217,-1.6690018,-8.3057935
1021,1715729249280,2.655569,-1.6125429,-8.865391,2.655569,-1.6125429,-8.865391
1022,1715729249290,2.4905863,-1.6572839,-9.082705,2.4905863,-1.6572839,-9.082705
1023,1715729249300,2.43093154,-1.71627288,-9.123584400000002,2.43093154,-1.71627288,-9.123584400000002
1024,1715729249310,2.1241357,-2.4090936,-9.458609,2.1241357,-2.4090936,-9.458609
1025,1715729249320,2.1301722333333335,-2.4726543999999997,-9.477073666666668,2.1301722333333335,-2.4726543999999997,-9.477073666666668
1026,1715729249330,2.226401,-3.141862,-9.613072,2.226401,-3.141862,-9.613072
1027,1715729249340,2.2383318799999996,-3.28929448,-9.61222,2.2383318799999996,-3.28929448,-9.61222
1028,1715729249350,2.2413146,-3.3261526,-9.612007,2.2413146,-3.3261526,-9.612007
1029,1715729249360,2.1699863666666666,-3.6743606,-9.445515,2.1699863666666666,-3.6743606,-9.445515
1030,1715729249370,2.0234238999999996,-4.041743333333333,-9.177157000000001,2.0234238999999996,-4.041743333333333,-9.177157000000001
1031,1715729249380,1.538507,-4.4964776,-8.654601,1.538507,-4.4964776,-8.654601
1032,1715729249390,1.1614037,-4.6402884,-8.307325,1.1614037,-4.6402884,-8.307325
1033,1715729249400,1.1614037,-4.6402884,-8.307325,1.1614037,-4.6402884,-8.307325
1034,1715729249410,0.3829623,-4.468914,-7.5597769999999995,0.3829623,-4.468914,-7.5597769999999995
1035,1715729249420,0.21576028666666666,-4.1586115999999995,-7.2434379,0.21576028666666666,-4.1586115999999995,-7.2434379
1036,1715729249430,-0.11864374,-3.5380068,-6.6107597,-0.11864374,-3.5380068,-6.6107597
1037,1715729249440,-0.11864374,-3.5380068,-6.6107597,-0.11864374,-3.5380068,-6.6107597
1038,1715729249450,-0.6309024,-2.693519,-5.386106,-0.6309024,-2.693519,-5.386106
1039,1715729249460,-1.0175931,-2.3101573,-4.7971487,-1.0175931,-2.3101573,-4.7971487
1040,1715729249470,-1.12832726,-2.1610204200000003,-4.67059534,-1.12832726,-2.1610204200000003,-4.67059534
1041,1715729249480,-1.7449019,-1.1748526,-4.2838244,-1.7449019,-1.1748526,-4.2838244
1042,1715729249490,-2.114970066666667,-0.6068229749999999,-4.497654066666667,-2.114970066666667,-0.6068229749999999,-4.497654066666667
1043,1715729249500,-2.43505955,-0.199270875,-4.7757765,-2.43505955,-0.199270875,-4.7757765
1044,1715729249510,-3.0836718,0.3534012,-5.276384,-3.0836718,0.3534012,-5.276384
1045,1715729249520,-3.1232996999999996,0.27678211799999997,-5.1741188000000005,-3.1232996999999996,0.27678211799999997,-5.1741188000000005
1046,1715729249530,-2.49617902,-0.445732934,-3.90720064,-2.49617902,-0.445732934,-3.90720064
1047,1715729249540,-1.2827106,-1.2705932,-2.1431773,-1.2827106,-1.2705932,-2.1431773
1048,1715729249550,-0.1431448,-1.625326,-0.5318329,-0.1431448,-1.625326,-0.5318329
1049,1715729249560,0.27470486000000005,-1.5652451200000002,0.03749727199999997,0.27470486000000005,-1.5652451200000002,0.03749727199999997
1050,1715729249570,0.5532713,-1.5251912,0.41705072,0.5532713,-1.5251912,0.41705072
1051,1715729249580,0.758867168,-0.304958344,2.1486101,0.758867168,-0.304958344,2.1486101
1052,1715729249590,0.603551748,0.17917734800000001,2.72670196,0.603551748,0.17917734800000001,2.72670196
1053,1715729249600,0.52344394,0.3597928,2.9486496,0.52344394,0.3597928,2.9486496
1054,1715729249610,0.13848427500000002,1.62106495,5.4537837499999995,0.13848427500000002,1.62106495,5.4537837499999995
1055,1715729249620,0.28602329,1.69163865,6.124466999999999,0.28602329,1.69163865,6.124466999999999
1056,1715729249630,0.8973514399999999,1.5068154,7.727289000000001,0.8973514399999999,1.5068154,7.727289000000001
1057,1715729249640,0.9285991766666667,1.4975831333333334,7.794045666666666,0.9285991766666667,1.4975831333333334,7.794045666666666
1058,1715729249650,1.3872396,1.5398386000000002,8.876443,1.3872396,1.5398386000000002,8.876443
1059,1715729249660,1.4179192,1.5560306000000002,9.225742200000001,1.4179192,1.5560306000000002,9.225742200000001
1060,1715729249670,1.3973596000000001,1.4759893499999999,9.385505,1.3973596000000001,1.4759893499999999,9.385505
1061,1715729249680,1.2764522,1.1117358,9.356743,1.2764522,1.1117358,9.356743
1062,1715729249690,1.1933616,0.81785613,9.220389,1.1933616,0.81785613,9.220389
1063,1715729249700,1.094292,0.2587259,8.970185,1.094292,0.2587259,8.970185
1064,1715729249710,1.0804436,-0.24394538,8.644215,1.0804436,-0.24394538,8.644215
1065,1715729249720,1.08097625,-0.31372014000000004,8.567516000000001,1.08097625,-0.31372014000000004,8.567516000000001
1066,1715729249730,1.041162,-0.44847600000000004,8.221438,1.041162,-0.44847600000000004,8.221438
1067,1715729249740,1.041162,-0.448476,8.221438,1.041162,-0.448476,8.221438
1068,1715729249750,0.62820594,0.13865071500000004,8.1647125,0.62820594,0.13865071500000004,8.1647125
1069,1715729249760,0.20825905000000003,0.66019714,8.12876,0.20825905000000003,0.66019714,8.12876
1070,1715729249770,0.20825905,0.66019714,8.12876,0.20825905,0.66019714,8.12876
1071,1715729249780,-1.8503628999999997,2.44731,7.8849483000000005,-1.8503628999999997,2.44731,7.8849483000000005
1072,1715729249790,-2.336023225,2.74202175,7.755518775,-2.336023225,2.74202175,7.755518775
1073,1715729249800,-3.3285494,2.993657,7.369494,-3.3285494,2.993657,7.369494
1074,1715729249810,-3.6779559,2.9329371,7.2342052,-3.6779559,2.9329371,7.2342052
1075,1715729249820,-3.6779559,2.9329371,7.2342052,-3.6779559,2.9329371,7.2342052
1076,1715729249830,-3.9778720333333335,2.9229946333333334,7.291729666666666,-3.9778720333333335,2.9229946333333334,7.291729666666666
1077,1715729249840,-4.04587115,2.8929897,7.2975885,-4.04587115,2.8929897,7.2975885
1078,1715729249850,-3.7237623,2.3365226,7.0658937,-3.7237623,2.3365226,7.0658937
1079,1715729249860,-3.0176256,1.6357123,6.877342,-3.0176256,1.6357123,6.877342
1080,1715729249870,-3.0176256,1.6357123,6.877342,-3.0176256,1.6357123,6.877342
1081,1715729249880,-1.1708579,0.4087949,6.793318999999999,-1.1708579,0.4087949,6.793318999999999
1082,1715729249890,-1.0489184999999999,0.34917343,6.811128925,-1.0489184999999999,0.34917343,6.811128925
1083,1715729249900,0.2625875,-0.392017,7.578152,0.2625875,-0.392017,7.578152
1084,1715729249910,0.37124437,-0.5613939,8.040343,0.37124437,-0.5613939,8.040343
1085,1715729249920,0.417902922,-0.85679154,8.11621714,0.417902922,-0.85679154,8.11621714
1086,1715729249930,0.45113915,-1.5912375,7.7443337,0.45113915,-1.5912375,7.7443337
1087,1715729249940,0.423175985,-1.937881125,7.2674616499999996,0.423175985,-1.937881125,7.2674616499999996
1088,1715729249950,0.5202481,-2.976746,4.968922,0.5202481,-2.976746,4.968922
1089,1715729249960,0.82278298,-3.10628216,3.6789943999999997,0.82278298,-3.10628216,3.6789943999999997
1090,1715729249970,0.8984167,-3.1386662,3.3565125,0.8984167,-3.1386662,3.3565125
1091,1715729249980,1.4596775,-2.0491679,1.2584758,1.4596775,-2.0491679,1.2584758
1092,1715729249990,1.22324226,-0.9618266,0.41966061000000004,1.22324226,-0.9618266,0.41966061000000004
1093,1715729250000,0.879242,0.4087949,-0.6064013,0.879242,0.4087949,-0.6064013
1094,1715729250010,0.36378753,1.5547522,-1.5393059,0.36378753,1.5547522,-1.5393059
1095,1715729250020,0.331190462,1.7010928,-1.71608642,0.331190462,1.7010928,-1.71608642
1096,1715729250030,0.44794336,2.3471754,-2.9461198,0.44794336,2.3471754,-2.9461198
1097,1715729250040,0.843322615,2.01970665,-3.26559895,0.843322615,2.01970665,-3.26559895
1098,1715729250050,2.5683506,0.19800588,-4.2987385,2.5683506,0.19800588,-4.2987385
1099,1715729250060,3.6099122,-0.8456861999999999,-5.0345693,3.6099122,-0.8456861999999999,-5.0345693
1100,1715729250070,3.90895844,-1.1728552799999998,-5.36940812,3.90895844,-1.1728552799999998,-5.36940812
1101,1715729250080,4.1881729666666665,-1.5571047333333332,-5.891573666666667,4.1881729666666665,-1.5571047333333332,-5.891573666666667
1102,1715729250090,4.2828927,-1.9618162,-6.821682,4.2828927,-1.9618162,-6.821682
1103,1715729250100,3.7206995,-1.9064225000000001,-7.773761300000001,3.7206995,-1.9064225000000001,-7.773761300000001
1104,1715729250110,3.310573,-1.8425066,-8.210386,3.310573,-1.8425066,-8.210386
1105,1715729250120,3.113898766666667,-1.825506766666667,-8.363784,3.113898766666667,-1.825506766666667,-8.363784
1106,1715729250130,1.9847193,-1.912814,-9.107205,1.9847193,-1.912814,-9.107205
1107,1715729250140,1.8807495800000003,-1.9537201199999998,-9.170694600000001,1.8807495800000003,-1.9537201199999998,-9.170694600000001
1108,1715729250150,1.1113364,-2.3419821,-9.675922,1.1113364,-2.3419821,-9.675922
1109,1715729250160,1.1113364,-2.3419821,-9.675922,1.1113364,-2.3419821,-9.675922
1110,1715729250170,1.07301352,-2.33029082,-9.713606,1.07301352,-2.33029082,-9.713606
1111,1715729250180,0.9019675833333333,-2.0527186166666667,-9.919379916666667,0.9019675833333333,-2.0527186166666667,-9.919379916666667
1112,1715729250190,0.907205125,-1.7845496250000001,-9.926392625,0.907205125,-1.7845496250000001,-9.926392625
1113,1715729250200,0.8856336,-1.1002842,-9.735578,0.8856336,-1.1002842,-9.735578
1114,1715729250210,0.80296912,-0.95370388,-9.591553999999999,0.80296912,-0.95370388,-9.591553999999999
1115,1715729250220,0.77122426,-0.9172718599999999,-9.5340296,0.77122426,-0.9172718599999999,-9.5340296
1116,1715729250230,0.6512756,-1.0949578,-9.12851,0.6512756,-1.0949578,-9.12851
1117,1715729250240,0.65447134,-1.2823111,-8.919719,0.65447134,-1.2823111,-8.919719
1118,1715729250250,0.705604,-1.6903071,-8.652471,0.705604,-1.6903071,-8.652471
1119,1715729250260,0.7668566666666666,-1.8251295166666666,-8.388817666666666,0.7668566666666666,-1.8251295166666666,-8.388817666666666
1120,1715729250270,0.7791072,-1.852094,-8.336087,0.7791072,-1.852094,-8.336087
1121,1715729250280,0.78017247,-1.5060165,-7.2519155,0.78017247,-1.5060165,-7.2519155
1122,1715729250290,0.751410335,-1.37825145,-7.02401575,0.751410335,-1.37825145,-7.02401575
1123,1715729250300,0.52770495,-0.9564736,-5.959085,0.52770495,-0.9564736,-5.959085
1124,1715729250310,0.20932429999999996,-0.8701871999999999,-5.337104,0.20932429999999996,-0.8701871999999999,-5.337104
1125,1715729250320,-0.20919114,-0.91386306,-4.8770432,-0.20919114,-0.91386306,-4.8770432
1126,1715729250330,-0.53409654,-0.8776440600000001,-4.5830307,-0.53409654,-0.8776440600000001,-4.5830307
1127,1715729250340,-0.5649559049999999,-0.8590019449999999,-4.532996525,-0.5649559049999999,-0.8590019449999999,-4.532996525
1128,1715729250350,-0.7331677,-0.5837645,-3.974898,-0.7331677,-0.5837645,-3.974898
1129,1715729250360,-0.7970835,-0.22796640999999998,-3.5574479999999995,-0.7970835,-0.22796640999999998,-3.5574479999999995
1130,1715729250370,-0.81668436,-0.13638036800000003,-3.4532918,-0.81668436,-0.13638036800000003,-3.4532918
1131,1715729250380,-0.9515467,0.6303698,-2.4104252,-0.9515467,0.6303698,-2.4104252
1132,1715729250390,-0.95793832,0.7185735799999999,-2.2053353600000003,-0.95793832,0.7185735799999999,-2.2053353600000003
1133,1715729250400,-0.9845699,0.85940146,-0.8768451,-0.9845699,0.85940146,-0.8768451
1134,1715729250410,-1.0058752,0.74541825,-0.032357384,-1.0058752,0.74541825,-0.032357384
1135,1715729250420,-0.9982053000000001,0.7181474919999999,0.10652635880000001,-0.9982053000000001,0.7181474919999999,0.10652635880000001
1136,1715729250430,-0.84928143,0.49401602,1.2094737,-0.84928143,0.49401602,1.2094737
1137,1715729250440,-0.7704519,0.4354265,1.4990922,-0.7704519,0.4354265,1.4990922
1138,1715729250450,-0.53409654,0.15006901,2.6216137,-0.53409654,0.15006901,2.6216137
1139,1715729250460,-0.37643754,-0.06191845,3.4459946,-0.37643754,-0.06191845,3.4459946
1140,1715729250470,-0.32317436,-0.11768500200000001,3.6756122000000007,-0.32317436,-0.11768500200000001,3.6756122000000007
1141,1715729250480,-0.03142528,-0.36112437,4.8687873,-0.03142528,-0.36112437,4.8687873
1142,1715729250490,-0.007456846999999999,-0.38189702,5.026979,-0.007456846999999999,-0.38189702,5.026979
1143,1715729250500,-0.019707378,-0.5368929,6.111684,-0.019707378,-0.5368929,6.111684
1144,1715729250510,-0.0349672788,-0.5503152,6.1992486,-0.0349672788,-0.5503152,6.1992486
1145,1715729250520,-0.045140546,-0.5592634,6.257625,-0.045140546,-0.5592634,6.257625
1146,1715729250530,-0.38815543,-0.7934882599999998,7.6282196,-0.38815543,-0.7934882599999998,7.6282196
1147,1715729250540,-0.38362806250000003,-0.820119855,7.6817491,-0.38362806250000003,-0.820119855,7.6817491
1148,1715729250550,-0.062184766,-1.22492,8.37164,-0.062184766,-1.22492,8.37164
1149,1715729250560,0.4085286,-1.5635407,8.816788,0.4085286,-1.5635407,8.816788
1150,1715729250570,0.64581608,-1.6674571399999998,8.953940800000002,0.64581608,-1.6674571399999998,8.953940800000002
1151,1715729250580,1.5395722,-1.6945681999999997,9.381245,1.5395722,-1.6945681999999997,9.381245
1152,1715729250590,1.5395722,-1.6945682,9.381245,1.5395722,-1.6945682,9.381245
1153,1715729250600,1.4884397,-0.48789075,9.485641,1.4884397,-0.48789075,9.485641
1154,1715729250610,1.1592731,-0.06191845,9.451551,1.1592731,-0.06191845,9.451551
1155,1715729250620,-0.015679374999999968,0.9749159375,9.29256075,-0.015679374999999968,0.9749159375,9.29256075
1156,1715729250630,-1.34369692,1.83931084,8.9754856,-1.34369692,1.83931084,8.9754856
1157,1715729250640,-1.5777886,1.9690067000000002,8.909466,-1.5777886,1.9690067000000002,8.909466
1158,1715729250650,-2.78386675,1.9067887,8.19717,-2.78386675,1.9067887,8.19717
1159,1715729250660,-3.0186908,1.840243,8.02756,-3.0186908,1.840243,8.02756
1160,1715729250670,-3.128413,1.4674007,7.652721,-3.128413,1.4674007,7.652721
1161,1715729250680,-3.0455621,1.341539788,7.5176722,-3.0455621,1.341539788,7.5176722
1162,1715729250690,-2.1624851,0.805073,6.583462,-2.1624851,0.805073,6.583462
1163,1715729250700,-2.1401145,0.8965525,6.346974,-2.1401145,0.8965525,6.346974
1164,1715729250710,-2.27977058,1.0482461,6.1493676,-2.27977058,1.0482461,6.1493676
1165,1715729250720,-2.32214148,1.06976444,6.059699,-2.32214148,1.06976444,6.059699
1166,1715729250730,-2.3117552999999997,0.9511806125,5.8472652499999995,-2.3117552999999997,0.9511806125,5.8472652499999995
1167,1715729250740,-1.8569941799999998,0.559636256,5.606882000000001,-1.8569941799999998,0.559636256,5.606882000000001
1168,1715729250750,-0.6660561,-0.04807002,5.525922,-0.6660561,-0.04807002,5.525922
1169,1715729250760,-0.497424852,-0.11028142,5.527626239999999,-0.497424852,-0.11028142,5.527626239999999
1170,1715729250770,-0.45526704,-0.12583427,5.5280523,-0.45526704,-0.12583427,5.5280523
1171,1715729250780,0.8920251,-0.49641284,5.521661,0.8920251,-0.49641284,5.521661
1172,1715729250790,0.88179862,-0.631062168,5.47564148,0.88179862,-0.631062168,5.47564148
1173,1715729250800,0.88030726,-0.78816193,5.1159286,0.88030726,-0.78816193,5.1159286
1174,1715729250810,0.9815073,-0.43036652,4.3959436,0.9815073,-0.43036652,4.3959436
1175,1715729250820,1.1049447,0.3534012,3.257443,1.1049447,0.3534012,3.257443
1176,1715729250830,1.2050794,1.1703253,1.9987009,1.2050794,1.1703253,1.9987009
1177,1715729250840,1.219194175,1.249387825,1.847733075,1.219194175,1.249387825,1.847733075
1178,1715729250850,1.7269255,1.7901756000000002,-0.33795488,1.7269255,1.7901756000000002,-0.33795488
1179,1715729250860,2.1848557,1.3780516,-1.4253228,2.1848557,1.3780516,-1.4253228
1180,1715729250870,2.1848557,1.3780516,-1.4253228,2.1848557,1.3780516,-1.4253228
1181,1715729250880,2.620282325,0.20010310299999998,-3.1115352,2.620282325,0.20010310299999998,-3.1115352
1182,1715729250890,2.659131125,-0.04697147200000001,-3.4808154499999997,2.659131125,-0.04697147200000001,-3.4808154499999997
1183,1715729250900,2.5225444,-0.7615303399999999,-5.115529,2.5225444,-0.7615303399999999,-5.115529
1184,1715729250910,2.4735422,-0.7849662,-5.2582746,2.4735422,-0.7849662,-5.2582746
1185,1715729250920,2.064614,-0.7892272,-5.923931,2.064614,-0.7892272,-5.923931
1186,1715729250930,1.8413348800000002,-0.6862161999999999,-6.1905665999999995,1.8413348800000002,-0.6862161999999999,-6.1905665999999995
1187,1715729250940,1.70029395,-0.590688675,-6.36108875,1.70029395,-0.590688675,-6.36108875
1188,1715729250950,1.5012227000000002,-0.52837074,-6.7897243,1.5012227000000002,-0.52837074,-6.7897243
1189,1715729250960,1.5125855333333333,-0.5642346166666666,-6.827718699999999,1.5125855333333333,-0.5642346166666666,-6.827718699999999
1190,1715729250970,1.9634141,-1.2759196,-7.191195500000001,1.9634141,-1.2759196,-7.191195500000001
1191,1715729250980,2.411757,-1.7988308999999998,-7.376551,2.411757,-1.7988308999999998,-7.376551
1192,1715729250990,2.57041465,-1.96554465,-7.437271,2.57041465,-1.96554465,-7.437271
1193,1715729251000,3.0411944,-2.5806012,-7.6194315,3.0411944,-2.5806012,-7.6194315
1194,1715729251010,3.05142104,-2.6871276,-7.6407367,3.05142104,-2.6871276,-7.6407367
1195,1715729251020,3.0539776999999995,-2.7137592,-7.646063000000001,3.0539776999999995,-2.7137592,-7.646063000000001
1196,1715729251030,2.5824321,-2.8495469,-7.639105475,2.5824321,-2.8495469,-7.639105475
1197,1715729251040,2.36967895,-2.78246855,-7.594397799999999,2.36967895,-2.78246855,-7.594397799999999
1198,1715729251050,1.894172,-2.5486434,-7.476686,1.894172,-2.5486434,-7.476686
1199,1715729251060,1.78817825,-2.4884559,-7.4420649999999995,1.78817825,-2.4884559,-7.4420649999999995
1200,1715729251070,1.3872396,-2.2867215,-7.315831,1.3872396,-2.2867215,-7.315831
1201,1715729251080,1.31224504,-2.2679730200000003,-7.3064569200000005,1.31224504,-2.2679730200000003,-7.3064569200000005
1202,1715729251090,1.2716585,-2.267546925,-7.3158313,1.2716585,-2.267546925,-7.3158313
1203,1715729251100,1.1326416,-2.3718095,-7.5672336,1.1326416,-2.3718095,-7.5672336
1204,1715729251110,1.1230542,-2.3877884750000002,-7.6087788750000005,1.1230542,-2.3877884750000002,-7.6087788750000005
1205,1715729251120,0.86645883,-2.5869927,-7.9037237,0.86645883,-2.5869927,-7.9037237
1206,1715729251130,0.59481657,-2.6455822,-7.9101152,0.59481657,-2.6455822,-7.9101152
1207,1715729251140,0.5628919525,-2.64425065,-7.9002615,0.5628919525,-2.64425065,-7.9002615
1208,1715729251150,0.2576162583333333,-2.49467,-7.6453304,0.2576162583333333,-2.49467,-7.6453304
1209,1715729251160,0.20719377999999997,-2.426138,-7.528884,0.20719377999999997,-2.426138,-7.528884
1210,1715729251170,0.20719378,-2.426138,-7.528884000000001,0.20719378,-2.426138,-7.528884000000001
1211,1715729251180,0.32543805,-2.0459719,-6.7801366,0.32543805,-2.0459719,-6.7801366
1212,1715729251190,0.32543805,-2.0459719,-6.7801366,0.32543805,-2.0459719,-6.7801366
1213,1715729251200,-0.37537226,-0.42717072000000006,-5.325386,-0.37537226,-0.42717072000000006,-5.325386
1214,1715729251210,-0.9973531000000001,0.28003117,-5.070788,-0.9973531000000001,0.28003117,-5.070788
1215,1715729251220,-2.0548935,1.0946915,-4.674643,-2.0548935,1.0946915,-4.674643
1216,1715729251230,-2.4878232750000002,1.2153326,-4.384724875,-2.4878232750000002,1.2153326,-4.384724875
1217,1715729251240,-2.6321332,1.2555463,-4.2880855,-2.6321332,1.2555463,-4.2880855
1218,1715729251250,-2.2859225,0.36085805,-3.7790227,-2.2859225,0.36085805,-3.7790227
1219,1715729251260,-1.992808625,0.11568097249999999,-3.6304184499999996,-1.992808625,0.11568097249999999,-3.6304184499999996
1220,1715729251270,-0.6234456,-0.8893619999999999,-2.190049,-0.6234456,-0.8893619999999999,-2.190049
1221,1715729251280,-0.194889992,-1.22673096,-1.04829932,-0.194889992,-1.22673096,-1.04829932
1222,1715729251290,-0.039048569000000005,-1.348357425,-0.414886885,-0.039048569000000005,-1.348357425,-0.414886885
1223,1715729251300,0.05592634,-1.2536821,1.7504944999999998,0.05592634,-1.2536821,1.7504944999999998
1224,1715729251310,-0.006391582250000001,-1.10507785,2.091545225,-0.006391582250000001,-1.10507785,2.091545225
1225,1715729251320,-0.41052598,-0.29401276,3.2372031,-0.41052598,-0.29401276,3.2372031
1226,1715729251330,-0.580835,0.20972379,3.831487,-0.580835,0.20972379,3.831487
1227,1715729251340,-0.5989445,0.35719622,4.067909,-0.5989445,0.35719622,4.067909
1228,1715729251350,-0.5558012800000001,0.7270956900000001,4.97747116,-0.5558012800000001,0.7270956900000001,4.97747116
1229,1715729251360,-0.4478102,0.8114646000000001,5.6537538,-0.4478102,0.8114646000000001,5.6537538
1230,1715729251370,-0.21558273,0.6761761,6.480132,-0.21558273,0.6761761,6.480132
1231,1715729251380,0.04953476,0.4620581,7.094656,0.04953476,0.4620581,7.094656
1232,1715729251390,0.04953475999999999,0.46205809999999997,7.094656,0.04953475999999999,0.46205809999999997,7.094656
1233,1715729251400,0.77804196,-0.10985532000000002,8.08402,0.77804196,-0.10985532000000002,8.08402
1234,1715729251410,0.92664624,-0.2144175975,8.2318255,0.92664624,-0.2144175975,8.2318255
1235,1715729251420,1.6044202,-0.5677855,8.797613,1.6044202,-0.5677855,8.797613
1236,1715729251430,1.9435291166666666,-0.6059574583333334,8.996350916666666,1.9435291166666666,-0.6059574583333334,8.996350916666666
1237,1715729251440,2.0113509,-0.61359185,9.0360985,2.0113509,-0.61359185,9.0360985
1238,1715729251450,2.343313625,-0.46978127000000003,9.2651305,2.343313625,-0.46978127000000003,9.2651305
1239,1715729251460,2.3678147000000003,-0.3930822875,9.316263,2.3678147000000003,-0.3930822875,9.316263
1240,1715729251470,2.0294604,0.23955116000000004,9.332242,2.0294604,0.23955116000000004,9.332242
1241,1715729251480,1.8046897999999998,0.49508128000000007,9.288567,1.8046897999999998,0.49508128000000007,9.288567
1242,1715729251490,1.55654995,0.725943885,9.21905825,1.55654995,0.725943885,9.21905825
1243,1715729251500,-0.027164222999999998,2.0723372,8.680434,-0.027164222999999998,2.0723372,8.680434
1244,1715729251510,-0.46165863,2.3759375,8.469512,-0.46165863,2.3759375,8.469512
1245,1715729251520,-1.8482324,3.1053767,7.7283545,-1.8482324,3.1053767,7.7283545
1246,1715729251530,-2.25377832,3.17781454,7.4795088199999995,-2.25377832,3.17781454,7.4795088199999995
1247,1715729251540,-2.3551648,3.195924,7.4172974,-2.3551648,3.195924,7.4172974
1248,1715729251550,-3.2816777,3.195924,6.7730794,-3.2816777,3.195924,6.7730794
1249,1715729251560,-3.3871389499999998,3.2358714,6.6580309,-3.3871389499999998,3.2358714,6.6580309
1250,1715729251570,-3.7450676,3.4451957,6.1415114,-3.7450676,3.4451957,6.1415114
1251,1715729251580,-3.8738313,3.4483917000000006,5.8485637,-3.8738313,3.4483917000000006,5.8485637
1252,1715729251590,-3.8738313,3.28593885,5.733049149999999,-3.8738313,3.28593885,5.733049149999999
1253,1715729251600,-3.7077832,2.4004385,5.3863726,-3.7077832,2.4004385,5.3863726
1254,1715729251610,-3.5910304,2.03068546,5.23904652,-3.5910304,2.03068546,5.23904652
1255,1715729251620,-2.9568788400000003,0.848482512,4.529075,-2.9568788400000003,0.848482512,4.529075
1256,1715729251630,-2.51982784,0.29230836,4.1145542399999995,-2.51982784,0.29230836,4.1145542399999995
1257,1715729251640,-1.8305224333333336,-0.31647206333333333,3.587941066666667,-1.8305224333333336,-0.31647206333333333,3.587941066666667
1258,1715729251650,-0.57976973,-1.1162632,2.961433,-0.57976973,-1.1162632,2.961433
1259,1715729251660,-0.3577621325,-1.245592825,2.8967182,-0.3577621325,-1.245592825,2.8967182
1260,1715729251670,0.16458324,-1.4868417,2.841058,0.16458324,-1.4868417,2.841058
1261,1715729251680,0.04101265,-1.3366394999999998,2.8069696,0.04101265,-1.3366394999999998,2.8069696
1262,1715729251690,-0.07639937499999999,-1.24639171,2.744918025,-0.07639937499999999,-1.24639171,2.744918025
1263,1715729251700,-1.0080057,-0.38029911999999993,1.9369156,-1.0080057,-0.38029911999999993,1.9369156
1264,1715729251710,-1.18260242,-0.12559458399999998,1.64034616,-1.18260242,-0.12559458399999998,1.64034616
1265,1715729251720,-1.2709926,0.4801676,0.5906887,-1.2709926,0.4801676,0.5906887
1266,1715729251730,-0.7171888,0.54940975,0.054994237,-0.7171888,0.54940975,0.054994237
1267,1715729251740,-0.525920702,0.5442964800000001,-0.06620613040000001,-0.525920702,0.5442964800000001,-0.06620613040000001
1268,1715729251750,1.324389,0.5089297,-1.2996217,1.324389,0.5089297,-1.2996217
1269,1715729251760,1.6750272,0.509728675,-1.59922705,1.6750272,0.509728675,-1.59922705
1270,1715729251770,2.5449147,0.5462139,-2.6298697,2.5449147,0.5462139,-2.6298697
1271,1715729251780,2.7770092,0.5941508,-3.12828,2.7770092,0.5941508,-3.12828
1272,1715729251790,2.8353323500000003,0.58829185,-3.306944675,2.8353323500000003,0.58829185,-3.306944675
1273,1715729251800,3.1338725,0.2885533,-4.527637,3.1338725,0.2885533,-4.527637
1274,1715729251810,3.1711566,0.09574057,-4.8173885,3.1711566,0.09574057,-4.8173885
1275,1715729251820,3.221091,-0.5102613,-5.71727,3.221091,-0.5102613,-5.71727
1276,1715729251830,3.2015611666666666,-0.7853434416666666,-6.201854166666667,3.2015611666666666,-0.7853434416666666,-6.201854166666667
