id,timestamp,acc_x,acc_y,acc_z,gyro_x,gyro_y,gyro_z
0,1715729311800,-0.39736991960000007,-1.4744580200000001,-3.7894622600000005,-0.39736991960000007,-1.4744580200000001,-3.7894622600000005
1,1715729311810,-1.6695344,-2.9692893,-8.372573,-1.6695344,-2.9692893,-8.372573
2,1715729311820,-1.5758673142857142,-2.898677471428571,-8.305005,-1.5758673142857142,-2.898677471428571,-8.305005
3,1715729311830,-1.2257571142857142,-2.5938409,-7.995773657142856,-1.2257571142857142,-2.5938409,-7.995773657142856
4,1715729311840,-1.1342965857142857,-2.3911553428571426,-7.824741828571429,-1.1342965857142857,-2.3911553428571426,-7.824741828571429
5,1715729311850,-1.0922947,-2.142911,-7.624891000000001,-1.0922947,-2.142911,-7.624891000000001
6,1715729311860,-1.089555442857143,-1.864420657142857,-7.396620142857143,-1.089555442857143,-1.864420657142857,-7.396620142857143
7,1715729311870,-1.1094911,-1.6759450571428574,-7.1739039714285715,-1.1094911,-1.6759450571428574,-7.1739039714285715
8,1715729311880,-1.1391663428571428,-1.4405788428571429,-6.815899371428571,-1.1391663428571428,-1.4405788428571429,-6.815899371428571
9,1715729311890,-1.1136,-1.3355743,-6.620613600000001,-1.1136,-1.3355743,-6.620613600000001
10,1715729311900,-0.8658310628571428,-1.0359118857142857,-6.177596714285714,-0.8658310628571428,-1.0359118857142857,-6.177596714285714
11,1715729311910,-0.72704244,-0.8861662,-6.024199,-0.72704244,-0.8861662,-6.024199
12,1715729311920,-0.5460363866666667,-0.6455053999999999,-5.881453666666666,-0.5460363866666667,-0.6455053999999999,-5.881453666666666
13,1715729311930,-0.080560565,0.121306896,-5.577986700000001,-0.080560565,0.121306896,-5.577986700000001
14,1715729311940,-0.014003779166666667,0.4422619593333333,-5.465445916666667,-0.014003779166666667,0.4422619593333333,-5.465445916666667
15,1715729311950,0.03954790857142857,1.5455644142857143,-4.9610467,0.03954790857142857,1.5455644142857143,-4.9610467
16,1715729311960,-0.17856481999999999,2.0904467,-4.4416165,-0.17856481999999999,2.0904467,-4.4416165
17,1715729311970,-0.3059208885714286,2.2614786142857146,-4.093674857142857,-0.3059208885714286,2.2614786142857146,-4.093674857142857
18,1715729311980,-0.71852034,2.7678213,-2.772748,-0.71852034,2.7678213,-2.772748
19,1715729311990,-0.7057372000000001,2.7443855,-2.379799,-0.7057372000000001,2.7443855,-2.379799
20,1715729312000,-0.5804355533333333,2.5526824,-2.0489458666666667,-0.5804355533333333,2.5526824,-2.0489458666666667
21,1715729312010,-0.02410159,1.4483591,-0.8535425,-0.02410159,1.4483591,-0.8535425
22,1715729312020,0.010652636666666668,1.3223028666666667,-0.7722717666666666,0.010652636666666668,1.3223028666666667,-0.7722717666666666
23,1715729312030,0.08442213999999999,0.086153194,0.13582112,0.08442213999999999,0.086153194,0.13582112
24,1715729312040,-0.017603483800000003,-0.06380929319999999,0.42757019199999996,-0.017603483800000003,-0.06380929319999999,0.42757019199999996
25,1715729312050,-0.3782795583333334,-0.281229605,1.2924089166666668,-0.3782795583333334,-0.281229605,1.2924089166666668
26,1715729312060,-0.6045371,-0.15872428,1.745035,-0.6045371,-0.15872428,1.745035
27,1715729312070,-0.65481754,-0.10338383479999999,1.85704744,-0.65481754,-0.10338383479999999,1.85704744
28,1715729312080,-1.0752505,0.58456343,2.8835356,-1.0752505,0.58456343,2.8835356
29,1715729312090,-1.2339748,0.9659278,3.2913983,-1.2339748,0.9659278,3.2913983
30,1715729312100,-1.3008866666666667,1.1382785666666666,3.437650083333333,-1.3008866666666667,1.1382785666666666,3.437650083333333
31,1715729312110,-1.635446,2.0000324,4.168909,-1.635446,2.0000324,4.168909
32,1715729312120,-1.668735475,2.03488655,4.229096500000001,-1.668735475,2.03488655,4.229096500000001
33,1715729312130,-1.8879135,1.9723356,4.702473,-1.8879135,1.9723356,4.702473
34,1715729312140,-1.8831198,1.8628798500000001,4.7568015,-1.8831198,1.8628798500000001,4.7568015
35,1715729312150,-1.79800526,1.39272564,4.8737677999999995,-1.79800526,1.39272564,4.8737677999999995
36,1715729312160,-1.6929703,0.87431514,4.9442883,-1.6929703,0.87431514,4.9442883
37,1715729312170,-1.6388815,0.6395576566,4.97177204,-1.6388815,0.6395576566,4.97177204
38,1715729312180,-1.4811159,0.026498433,5.0593367,-1.4811159,0.026498433,5.0593367
39,1715729312190,-1.2382690925,-0.32647002,5.2224550999999995,-1.2382690925,-0.32647002,5.2224550999999995
40,1715729312200,-0.6735462175,-0.8070703625,5.573425875,-0.6735462175,-0.8070703625,5.573425875
41,1715729312210,-0.24461116,-0.93090725,5.8281903,-0.24461116,-0.93090725,5.8281903
42,1715729312220,0.04187818500000001,-0.882437775,6.04170915,0.04187818500000001,-0.882437775,6.04170915
43,1715729312230,0.7319693,-0.5880255,6.7536383,0.7319693,-0.5880255,6.7536383
44,1715729312240,0.8392058333333333,-0.28979609333333334,7.2194691,0.8392058333333333,-0.28979609333333334,7.2194691
45,1715729312250,0.8363650999999999,-0.006524739999999999,7.6355433,0.8363650999999999,-0.006524739999999999,7.6355433
46,1715729312260,0.7745798,0.13409007,7.796265,0.7745798,0.13409007,7.796265
47,1715729312270,0.80511737,0.2070606216666667,7.759713383333334,0.80511737,0.2070606216666667,7.759713383333334
48,1715729312280,0.9354346400000001,0.3673828,7.618499299999999,0.9354346400000001,0.3673828,7.618499299999999
49,1715729312290,1.0792452,0.6484792,7.4544487,1.0792452,0.6484792,7.4544487
50,1715729312300,1.0004157,1.1788474,7.373488400000001,1.0004157,1.1788474,7.373488400000001
51,1715729312310,0.5817671,1.8679397999999998,7.391598,0.5817671,1.8679397999999998,7.391598
52,1715729312320,0.14301164,2.27740055,7.4528507,0.14301164,2.27740055,7.4528507
53,1715729312330,-0.29574382,2.6868613,7.5141034,-0.29574382,2.6868613,7.5141034
54,1715729312340,-0.386930392,2.81767556,7.436579,-0.386930392,2.81767556,7.436579
55,1715729312350,-0.41718387999999995,3.0341372,7.173352199999999,-0.41718387999999995,3.0341372,7.173352199999999
56,1715729312360,-0.37137753,3.082074,6.978409000000001,-0.37137753,3.082074,6.978409000000001
57,1715729312370,-0.47595978399999994,3.08907816,6.715555220000001,-0.47595978399999994,3.08907816,6.715555220000001
58,1715729312380,-0.76965296,3.0362678,6.1444407,-0.76965296,3.0362678,6.1444407
59,1715729312390,-0.7960182650000001,2.866890725,5.99433855,-0.7960182650000001,2.866890725,5.99433855
60,1715729312400,-0.52464235,1.6090807000000003,5.276517,-0.52464235,1.6090807000000003,5.276517
61,1715729312410,0.02567284999999999,0.47851642000000005,4.645241799999999,0.02567284999999999,0.47851642000000005,4.645241799999999
62,1715729312420,0.34623730999999996,-0.06314349799999999,4.07247622,0.34623730999999996,-0.06314349799999999,4.07247622
63,1715729312430,0.7223819,-0.5795034,2.9941897,0.7223819,-0.5795034,2.9941897
64,1715729312440,0.7036332599999999,-0.57353796,2.3373483399999997,0.7036332599999999,-0.57353796,2.3373483399999997
65,1715729312450,0.5126581,-0.392017,0.70453876,0.5126581,-0.392017,0.70453876
66,1715729312460,0.362669012,-0.36900732,-0.474708088,0.362669012,-0.36900732,-0.474708088
67,1715729312470,0.320910685,-0.39308228,-0.988631225,0.320910685,-0.39308228,-0.988631225
68,1715729312480,0.340511536,-0.638412516,-2.3309299,0.340511536,-0.638412516,-2.3309299
69,1715729312490,0.340351745,-0.747415615,-2.76788775,0.340351745,-0.747415615,-2.76788775
70,1715729312500,0.101466365,-1.2269174,-4.6960816,0.101466365,-1.2269174,-4.6960816
71,1715729312510,-0.08482162,-1.3451617,-5.387305,-0.08482162,-1.3451617,-5.387305
72,1715729312520,-0.13531511200000002,-1.3937377,-5.68571158,-0.13531511200000002,-1.3937377,-5.68571158
73,1715729312530,-0.08801741,-1.4591448,-6.2403145,-0.08801741,-1.4591448,-6.2403145
74,1715729312540,-0.014514217250000001,-1.4487584999999998,-6.34737325,-0.014514217250000001,-1.4487584999999998,-6.34737325
75,1715729312550,0.38482648,-1.3174648,-6.78027,0.38482648,-1.3174648,-6.78027
76,1715729312560,0.6360955,-1.2482227,-6.983735,0.6360955,-1.2482227,-6.983735
77,1715729312570,0.7463503,-1.2120037,-7.12275215,0.7463503,-1.2120037,-7.12275215
78,1715729312580,0.8566051,-1.1757847,-7.2617693,0.8566051,-1.1757847,-7.2617693
79,1715729312590,0.85900195,-1.1821763,-7.40384875,0.85900195,-1.1821763,-7.40384875
80,1715729312600,0.8661925,-1.21733,-7.578019,0.8661925,-1.21733,-7.578019
81,1715729312610,0.87364936,-1.2428963,-7.6110425,0.87364936,-1.2428963,-7.6110425
82,1715729312620,1.0031588040000001,-1.40929052,-7.704785719999999,1.0031588040000001,-1.40929052,-7.704785719999999
83,1715729312630,1.2335753,-1.6508924,-7.783615,1.2335753,-1.6508924,-7.783615
84,1715729312640,1.368331175,-1.824164125,-7.73141725,1.368331175,-1.824164125,-7.73141725
85,1715729312650,1.5829818,-2.1333237,-7.608912000000001,1.5829818,-2.1333237,-7.608912000000001
86,1715729312660,1.6488949,-2.2302625,-7.543931,1.6488949,-2.2302625,-7.543931
87,1715729312670,1.6803202,-2.270176625,-7.48693925,1.6803202,-2.270176625,-7.48693925
88,1715729312680,1.8342508,-2.5379906,-7.0263457,1.8342508,-2.5379906,-7.0263457
89,1715729312690,1.8342508,-2.5723454,-6.9336679,1.8342508,-2.5723454,-6.9336679
90,1715729312700,1.802293,-2.6136243,-6.5716114,1.802293,-2.6136243,-6.5716114
91,1715729312710,1.7788571,-2.5774055,-6.4192786,1.7788571,-2.5774055,-6.4192786
92,1715729312720,1.7117455000000001,-2.53852335,-6.340449100000001,1.7117455000000001,-2.53852335,-6.340449100000001
93,1715729312730,1.4114743,-2.3547652,-6.0614834,1.4114743,-2.3547652,-6.0614834
94,1715729312740,1.104445375,-2.2685121749999997,-5.84952925,1.104445375,-2.2685121749999997,-5.84952925
95,1715729312750,0.6627271,-2.1919131,-5.571595,0.6627271,-2.1919131,-5.571595
96,1715729312760,-0.09165706,-1.9806357666666665,-5.3035039,-0.09165706,-1.9806357666666665,-5.3035039
97,1715729312770,-0.46299022,-1.8073529,-5.2296457,-0.46299022,-1.8073529,-5.2296457
98,1715729312780,-0.96779203,-1.4644712,-5.1275134,-0.96779203,-1.4644712,-5.1275134
99,1715729312790,-0.96779203,-1.4644712,-5.1275134,-0.96779203,-1.4644712,-5.1275134
100,1715729312800,-1.5042521500000001,-0.486559175,-4.42403995,-1.5042521500000001,-0.486559175,-4.42403995
101,1715729312810,-1.659947,0.1063932,-3.666238,-1.659947,0.1063932,-3.666238
102,1715729312820,-1.616837125,0.14953638,-3.4098423749999998,-1.616837125,0.14953638,-3.4098423749999998
103,1715729312830,-1.081741975,0.0984037305,-1.58554515,-1.081741975,0.0984037305,-1.58554515
104,1715729312840,-0.6902109519999999,-0.2624809632,-0.5867472420000001,-0.6902109519999999,-0.2624809632,-0.5867472420000001
105,1715729312850,-0.36179015,-0.75300825,0.41372177,-0.36179015,-0.75300825,0.41372177
106,1715729312860,-0.46405548,-0.9255809,1.0879005,-0.46405548,-0.9255809,1.0879005
107,1715729312870,-0.46405548,-0.9255809,1.0879005,-0.46405548,-0.9255809,1.0879005
108,1715729312880,-0.976260864,-0.556200764,1.72111992,-0.976260864,-0.556200764,1.72111992
109,1715729312890,-1.594466625,0.29008459750000004,2.20775895,-1.594466625,0.29008459750000004,2.20775895
110,1715729312900,-2.3809974,1.6463649,2.9069712,-2.3809974,1.6463649,2.9069712
111,1715729312910,-2.5045679,1.8753966,3.0421266999999994,-2.5045679,1.8753966,3.0421266999999994
112,1715729312920,-2.91994094,2.6932794600000003,3.6306316599999997,-2.91994094,2.6932794600000003,3.6306316599999997
113,1715729312930,-3.4374726000000004,3.749728,4.6065993,-3.4374726000000004,3.749728,4.6065993
114,1715729312940,-3.5072473,3.85412385,4.8207173,-3.5072473,3.85412385,4.8207173
115,1715729312950,-3.779289,3.931888,5.665205,-3.779289,3.931888,5.665205
116,1715729312960,-3.9262955,3.5847454000000005,6.063614,-3.9262955,3.5847454000000005,6.063614
117,1715729312970,-3.9649112750000004,3.43324495,6.1381491,-3.9649112750000004,3.43324495,6.1381491
118,1715729312980,-4.1894155,2.3855247,6.509826,-4.1894155,2.3855247,6.509826
119,1715729312990,-4.249336749999999,1.87429815,6.5841285,-4.249336749999999,1.87429815,6.5841285
120,1715729313000,-4.2318133,0.426744636,6.717872,-4.2318133,0.426744636,6.717872
121,1715729313010,-4.185687199999999,-0.11774493,6.7666875,-4.185687199999999,-0.11774493,6.7666875
122,1715729313020,-3.8477588799999998,-0.793914364,6.980059799999999,-3.8477588799999998,-0.793914364,6.980059799999999
123,1715729313030,-2.545048,-3.1983209,7.804787,-2.545048,-3.1983209,7.804787
124,1715729313040,-1.8890053939999998,-3.4653824400000004,8.110491300000001,-1.8890053939999998,-3.4653824400000004,8.110491300000001
125,1715729313050,-0.77924037,-3.6807523000000004,8.591884,-0.77924037,-3.6807523000000004,8.591884
126,1715729313060,-0.10657963,-3.36271772,8.782353,-0.10657963,-3.36271772,8.782353
127,1715729313070,0.25379905,-2.7723486,8.764457,0.25379905,-2.7723486,8.764457
128,1715729313080,0.067377925,-1.8925741000000003,8.416116,0.067377925,-1.8925741000000003,8.416116
129,1715729313090,-0.18820546999999999,-1.47336622,8.170758600000001,-0.18820546999999999,-1.47336622,8.170758600000001
130,1715729313100,-1.3820465,-0.085354246,7.2424610000000005,-1.3820465,-0.085354246,7.2424610000000005
131,1715729313110,-1.3820465,-0.085354246,7.2424610000000005,-1.3820465,-0.085354246,7.2424610000000005
132,1715729313120,-2.75439896,1.42188724,6.6018384,-2.75439896,1.42188724,6.6018384
133,1715729313130,-3.443864,2.4941816,6.453367,-3.443864,2.4941816,6.453367
134,1715729313140,-3.6470898,3.05224664,6.42758774,-3.6470898,3.05224664,6.42758774
135,1715729313150,-3.82914346,3.6669570800000004,6.33725336,-3.82914346,3.6669570800000004,6.33725336
136,1715729313160,-3.8495965,3.765707,6.234988,-3.8495965,3.765707,6.234988
137,1715729313170,-3.746299225,3.3552142000000003,5.99756745,-3.746299225,3.3552142000000003,5.99756745
138,1715729313180,-3.596197,2.8583686,5.885715,-3.596197,2.8583686,5.885715
139,1715729313190,-3.3980579200000003,2.37852064,5.87421,-3.3980579200000003,2.37852064,5.87421
140,1715729313200,-2.3533006,0.58669394,5.9965024,-2.3533006,0.58669394,5.9965024
141,1715729313210,-1.807719175,-0.176101405,6.0588201250000004,-1.807719175,-0.176101405,6.0588201250000004
142,1715729313220,-1.2108940666666665,-0.9552308233333333,6.0589977500000005,-1.2108940666666665,-0.9552308233333333,6.0589977500000005
143,1715729313230,-1.2286484,-0.82651144,6.019938,-1.2286484,-0.82651144,6.019938
144,1715729313240,-1.460343275,-0.467084815,5.98877895,-1.460343275,-0.467084815,5.98877895
145,1715729313250,-2.1445088,0.48229810000000006,5.7642746,-2.1445088,0.48229810000000006,5.7642746
146,1715729313260,-2.26967725,0.67244765,5.6508906,-2.26967725,0.67244765,5.6508906
147,1715729313270,-2.194221033333333,1.14211795,4.1663126833333335,-2.194221033333333,1.14211795,4.1663126833333335
148,1715729313280,-1.9794995400000002,1.14859386,3.6457850200000004,-1.9794995400000002,1.14859386,3.6457850200000004
149,1715729313290,-0.003961461499999985,0.2970421,1.770568065,-0.003961461499999985,0.2970421,1.770568065
150,1715729313300,1.8555561,-0.565655,0.20186745999999997,1.8555561,-0.565655,0.20186745999999997
151,1715729313310,2.63578178,-0.78091812,-0.62416458,2.63578178,-0.78091812,-0.62416458
152,1715729313320,3.4392037,-0.832903,-1.8110813,3.4392037,-0.832903,-1.8110813
153,1715729313330,3.5244248,-0.5347623,-2.5256069,3.5244248,-0.5347623,-2.5256069
154,1715729313340,3.3684701599999998,-0.229324611,-3.08734712,3.3684701599999998,-0.229324611,-3.08734712
155,1715729313350,2.655436,0.39188385,-4.559861,2.655436,0.39188385,-4.559861
156,1715729313360,2.3624885,0.4619027416666666,-5.032904666666666,2.3624885,0.4619027416666666,-5.032904666666666
157,1715729313370,2.14501492,0.377529432,-5.43718564,2.14501492,0.377529432,-5.43718564
158,1715729313380,1.86322608,-0.340058776,-6.35752008,1.86322608,-0.340058776,-6.35752008
159,1715729313390,1.9034929999999999,-0.760518308,-6.64277084,1.9034929999999999,-0.760518308,-6.64277084
160,1715729313400,2.5798023,-2.245043,-7.524756,2.5798023,-2.245043,-7.524756
161,1715729313410,2.704305,-2.4080284,-7.6312823,2.704305,-2.4080284,-7.6312823
162,1715729313420,3.2645004,-3.0225525,-8.089212,3.2645004,-3.0225525,-8.089212
163,1715729313430,3.3294816,-3.1354704,-8.288417,3.3294816,-3.1354704,-8.288417
164,1715729313440,3.26756304,-3.12716124,-8.3631188,3.26756304,-3.12716124,-8.3631188
165,1715729313450,2.8992481,-3.114165,-8.568448,2.8992481,-3.114165,-8.568448
166,1715729313460,2.7456637600000002,-3.16995828,-8.622563600000001,2.7456637600000002,-3.16995828,-8.622563600000001
167,1715729313470,2.526113,-3.4120927799999996,-8.6749744,2.526113,-3.4120927799999996,-8.6749744
168,1715729313480,2.5329306,-3.6285543,-8.632364,2.5329306,-3.6285543,-8.632364
169,1715729313490,2.5840632666666665,-3.7208771666666665,-8.585492666666667,2.5840632666666665,-3.7208771666666665,-8.585492666666667
170,1715729313500,2.7138922,-3.9203032999999996,-8.527968,2.7138922,-3.9203032999999996,-8.527968
171,1715729313510,2.7064354,-3.9394782,-8.535425,2.7064354,-3.9394782,-8.535425
172,1715729313520,2.3369222,-3.890476,-8.6249075,2.3369222,-3.890476,-8.6249075
173,1715729313530,1.9919099,-3.7542552999999996,-8.632364,1.9919099,-3.7542552999999996,-8.632364
174,1715729313540,1.8981667000000002,-3.71207086,-8.624694000000002,1.8981667000000002,-3.71207086,-8.624694000000002
175,1715729313550,1.3837775,-3.514571,-8.464052,1.3837775,-3.514571,-8.464052
176,1715729313560,1.114831725,-3.444796325,-8.2620185,1.114831725,-3.444796325,-8.2620185
177,1715729313570,0.633965,-3.3334763,-7.887878,0.633965,-3.3334763,-7.887878
178,1715729313580,0.21118851,-3.1642325,-7.558844599999999,0.21118851,-3.1642325,-7.558844599999999
179,1715729313590,0.10790232666666666,-3.0868233333333333,-7.4935084,0.10790232666666666,-3.0868233333333333,-7.4935084
180,1715729313600,-0.58216655,-2.3270683,-7.276683,-0.58216655,-2.3270683,-7.276683
181,1715729313610,-0.6754836799999999,-2.12325682,-7.29641682,-0.6754836799999999,-2.12325682,-7.29641682
182,1715729313620,-0.8615319725,-0.96343108,-7.287302125,-0.8615319725,-0.96343108,-7.287302125
183,1715729313630,-0.88789725,-0.3930823,-7.2063756,-0.88789725,-0.3930823,-7.2063756
184,1715729313640,-0.8255793375,0.44002047499999997,-6.35889165,-0.8255793375,0.44002047499999997,-6.35889165
185,1715729313650,-0.8772446,1.4952307,-4.5289683,-0.8772446,1.4952307,-4.5289683
186,1715729313660,-0.932372,1.6549204,-4.036916325,-0.932372,1.6549204,-4.036916325
187,1715729313670,-0.9805752,2.0797942,-2.1486368,-0.9805752,2.0797942,-2.1486368
188,1715729313680,-0.9550088599999998,2.0979035,-1.9069551,-0.9550088599999998,2.0979035,-1.9069551
189,1715729313690,-0.8923713440000001,2.06602556,-1.21234992,-0.8923713440000001,2.06602556,-1.21234992
190,1715729313700,-1.0252097199999999,2.0693812800000004,-0.31390656000000006,-1.0252097199999999,2.0693812800000004,-0.31390656000000006
191,1715729313710,-1.1487536,2.107491,-0.13156006,-1.1487536,2.107491,-0.13156006
192,1715729313720,-1.6897744,2.438788,0.3423491,-1.6897744,2.438788,0.3423491
193,1715729313730,-2.0093536,2.6474464,1.0506163,-2.0093536,2.6474464,1.0506163
194,1715729313740,-2.0939753999999997,2.6985791,1.3552151000000001,-2.0939753999999997,2.6985791,1.3552151000000001
195,1715729313750,-2.2233384,2.6517074,2.583131,-2.2233384,2.6517074,2.583131
196,1715729313760,-2.2161478499999996,2.575108325,2.92418195,-2.2161478499999996,2.575108325,2.92418195
197,1715729313770,-2.1913805,2.18419,4.2988715,-2.1913805,2.18419,4.2988715
198,1715729313780,-2.2925806,1.9084198,5.045488,-2.2925806,1.9084198,5.045488
199,1715729313790,-2.375245,1.7822925600000001,5.307436399999999,-2.375245,1.7822925600000001,5.307436399999999
200,1715729313800,-2.7206833,1.2342411,6.220074,-2.7206833,1.2342411,6.220074
201,1715729313810,-2.76382645,1.1394326499999998,6.3223395,-2.76382645,1.1394326499999998,6.3223395
202,1715729313820,-2.9237227199999998,0.4806736,6.8045846,-2.9237227199999998,0.4806736,6.8045846
203,1715729313830,-2.933736,-0.20559588,7.1477857,-2.933736,-0.20559588,7.1477857
204,1715729313840,-2.76864686,-0.6332992120000001,7.33284888,-2.76864686,-0.6332992120000001,7.33284888
205,1715729313850,-2.3362563,-1.4474269,7.709047,-2.3362563,-1.4474269,7.709047
206,1715729313860,-1.89028372,-1.8307887600000001,7.9935521,-1.89028372,-1.8307887600000001,7.9935521
207,1715729313870,-0.9752489000000001,-2.389919,8.537556,-0.9752489000000001,-2.389919,8.537556
208,1715729313880,-0.69061042,-2.40781548,8.6594216,-0.69061042,-2.40781548,8.6594216
209,1715729313890,-0.35622415679999997,-2.2734324399999997,8.7452816,-0.35622415679999997,-2.2734324399999997,8.7452816
210,1715729313900,0.14514216959999998,-1.6152859,8.5599256,0.14514216959999998,-1.6152859,8.5599256
211,1715729313910,0.079734984,-1.3332307,8.3139564,0.079734984,-1.3332307,8.3139564
212,1715729313920,-0.6486923019999999,-0.61694744,7.54326488,-0.6486923019999999,-0.61694744,7.54326488
213,1715729313930,-1.6929703,0.25766066,6.6770724999999995,-1.6929703,0.25766066,6.6770724999999995
214,1715729313940,-2.10386912,0.636148836,6.3756295000000005,-2.10386912,0.636148836,6.3756295000000005
215,1715729313950,-3.0871341,1.585645,5.6502914,-3.0871341,1.585645,5.6502914
216,1715729313960,-3.3152336399999998,1.9064224000000003,5.457984560000001,-3.3152336399999998,1.9064224000000003,5.457984560000001
217,1715729313970,-3.7048538,3.102314,5.0433574,-3.7048538,3.102314,5.0433574
218,1715729313980,-3.6228285,3.530417,5.016726,-3.6228285,3.530417,5.016726
219,1715729313990,-3.6228284999999993,3.530417,5.016726,-3.6228284999999993,3.530417,5.016726
220,1715729314000,-3.2767954666666665,3.4826576,5.02808875,-3.2767954666666665,3.4826576,5.02808875
221,1715729314010,-3.107374,3.2747535999999995,5.052945,-3.107374,3.2747535999999995,5.052945
222,1715729314020,-2.5184164,2.483529,5.1849046,-2.5184164,2.483529,5.1849046
223,1715729314030,-2.043442,2.0437083,5.3191276,-2.043442,2.0437083,5.3191276
224,1715729314040,-1.8824007600000001,1.9433604599999998,5.3804602,-1.8824007600000001,1.9433604599999998,5.3804602
225,1715729314050,-0.53103393,1.205479,6.0529613,-0.53103393,1.205479,6.0529613
226,1715729314060,-0.26013737800000003,1.12281452,6.28039514,-0.26013737800000003,1.12281452,6.28039514
227,1715729314070,-0.3021354,1.3386369,6.4714766,-0.3021354,1.3386369,6.4714766
228,1715729314080,-0.6609961,1.5186665,6.26375,-0.6609961,1.5186665,6.26375
229,1715729314090,-1.878592425,1.30218495,5.38327635,-1.878592425,1.30218495,5.38327635
230,1715729314100,-3.5930011,0.7368961,3.6832821000000004,-3.5930011,0.7368961,3.6832821000000004
231,1715729314110,-3.585011725,0.597080275,3.41014185,-3.585011725,0.597080275,3.41014185
232,1715729314120,-1.8959829,-0.349406476,0.9351150479999999,-1.8959829,-0.349406476,0.9351150479999999
233,1715729314130,-1.1317095,-0.45486757,0.34021857,-1.1317095,-0.45486757,0.34021857
234,1715729314140,-0.5896234499999999,-0.3776359575,-0.0242680475,-0.5896234499999999,-0.3776359575,-0.0242680475
235,1715729314150,1.0366347,-0.14594112,-1.1177279,1.0366347,-0.14594112,-1.1177279
236,1715729314160,1.24163135,-0.050666602500000005,-1.3051477,1.24163135,-0.050666602500000005,-1.3051477
237,1715729314170,2.4519706,0.6122603,-2.7088323,2.4519706,0.6122603,-2.7088323
238,1715729314180,2.761063525,0.7504782275,-3.160137825,2.761063525,0.7504782275,-3.160137825
239,1715729314190,3.193727,0.74355401,-3.8071523750000003,3.193727,0.74355401,-3.8071523750000003
240,1715729314200,3.703389,0.5568666,-4.5779705,3.703389,0.5568666,-4.5779705
241,1715729314210,3.76852988,0.397982516,-4.71214046,3.76852988,0.397982516,-4.71214046
242,1715729314220,3.9535929199999997,-0.27699516599999996,-5.19158908,3.9535929199999997,-0.27699516599999996,-5.19158908
243,1715729314230,4.1476841,-1.2667849,-5.82352992,4.1476841,-1.2667849,-5.82352992
244,1715729314240,4.24904388,-1.76285152,-6.144733619999999,4.24904388,-1.76285152,-6.144733619999999
245,1715729314250,4.4807653,-3.0182915,-7.067891,4.4807653,-3.0182915,-7.067891
246,1715729314260,4.4807653,-3.0182915,-7.067891,4.4807653,-3.0182915,-7.067891
247,1715729314270,4.179402039999999,-3.43278556,-7.46853668,4.179402039999999,-3.43278556,-7.46853668
248,1715729314280,4.05969326,-3.5273542,-7.5690708,4.05969326,-3.5273542,-7.5690708
249,1715729314290,3.8298626,-3.6302320000000003,-7.66196186,3.8298626,-3.6302320000000003,-7.66196186
250,1715729314300,3.367831,-3.8542569999999996,-7.8187690000000005,3.367831,-3.8542569999999996,-7.8187690000000005
251,1715729314310,3.3243682,-3.89516314,-7.8264388,3.3243682,-3.89516314,-7.8264388
252,1715729314320,3.1996524,-4.137617,-7.791072,3.1996524,-4.137617,-7.791072
253,1715729314330,3.16130312,-4.395730599999999,-7.73823496,3.16130312,-4.395730599999999,-7.73823496
254,1715729314340,3.1517158,-4.460259,-7.7250257,3.1517158,-4.460259,-7.7250257
255,1715729314350,3.10537675,-4.737194125,-7.66483825,3.10537675,-4.737194125,-7.66483825
256,1715729314360,3.01727946,-5.03201244,-7.5803628000000005,3.01727946,-5.03201244,-7.5803628000000005
257,1715729314370,2.5861938,-5.5423,-7.3702927,2.5861938,-5.5423,-7.3702927
258,1715729314380,2.34416596,-5.5320736,-7.291143819999999,2.34416596,-5.5320736,-7.291143819999999
259,1715729314390,2.147338525,-5.48560825,-7.228479699999999,2.147338525,-5.48560825,-7.228479699999999
260,1715729314400,1.0323737,-5.0002146,-6.8953185,1.0323737,-5.0002146,-6.8953185
261,1715729314410,0.6290825933333334,-4.738958666666666,-6.7839095,0.6290825933333334,-4.738958666666666,-6.7839095
262,1715729314420,-0.5768403,-3.8766274,-6.481064,-0.5768403,-3.8766274,-6.481064
263,1715729314430,-1.1161832600000001,-3.37147948,-6.32681392,-1.1161832600000001,-3.37147948,-6.32681392
264,1715729314440,-1.61132225,-2.7437418333333334,-6.180948316666666,-1.61132225,-2.7437418333333334,-6.180948316666666
265,1715729314450,-1.8410419,-1.9298582,-6.1594877,-1.8410419,-1.9298582,-6.1594877
266,1715729314460,-1.8350763799999998,-1.389663,-6.193575940000001,-1.8350763799999998,-1.389663,-6.193575940000001
267,1715729314470,-1.865543,-0.18109483,-6.2148814,-1.865543,-0.18109483,-6.2148814
268,1715729314480,-2.03854172,0.34024520999999996,-5.965183479999999,-2.03854172,0.34024520999999996,-5.965183479999999
269,1715729314490,-2.270243225,0.82291618,-5.330113,-2.270243225,0.82291618,-5.330113
270,1715729314500,-2.3126074599999997,1.21381462,-4.2973534,-2.3126074599999997,1.21381462,-4.2973534
271,1715729314510,-1.9230672,1.435576,-3.253049,-1.9230672,1.435576,-3.253049
272,1715729314520,-0.9294425000000001,1.3535507,-2.0719378,-0.9294425000000001,1.3535507,-2.0719378
273,1715729314530,-0.60666764,1.1937611,-1.6512917999999999,-0.60666764,1.1937611,-1.6512917999999999
274,1715729314540,-0.22117536,0.82744354,-0.54794496,-0.22117536,0.82744354,-0.54794496
275,1715729314550,-0.298726544,1.016527828,0.31768823999999996,-0.298726544,1.016527828,0.31768823999999996
276,1715729314560,-0.31811434,1.0637989,0.53409654,-0.31811434,1.0637989,0.53409654
277,1715729314570,-0.9491498666666667,2.10416195,1.7161175499999999,-0.9491498666666667,2.10416195,1.7161175499999999
278,1715729314580,-1.2989558,2.560228,2.18166,-1.2989558,2.560228,2.18166
279,1715729314590,-1.9518293,3.2342737,3.261571,-1.9518293,3.2342737,3.261571
280,1715729314600,-2.108423,3.42176,3.9485328,-2.108423,3.42176,3.9485328
281,1715729314610,-2.10309675,3.4286842,4.1764327,-2.10309675,3.4286842,4.1764327
282,1715729314620,-2.0253325,3.1895325,5.0794435,-2.0253325,3.1895325,5.0794435
283,1715729314630,-2.01510602,2.73626274,5.5514615,-2.01510602,2.73626274,5.5514615
284,1715729314640,-2.0415245200000003,2.27705434,5.92001608,-2.0415245200000003,2.27705434,5.92001608
285,1715729314650,-2.1711404,1.3748559,6.3756027,-2.1711404,1.3748559,6.3756027
286,1715729314660,-2.1864092,1.2630032,6.414662466666667,-2.1864092,1.2630032,6.414662466666667
287,1715729314670,-2.27660168,0.360298784,6.7168068000000005,-2.27660168,0.360298784,6.7168068000000005
288,1715729314680,-2.2429391599999997,-0.33686299399999997,7.003762280000001,-2.2429391599999997,-0.33686299399999997,7.003762280000001
289,1715729314690,-2.182092625,-0.631135425,7.173851600000001,-2.182092625,-0.631135425,7.173851600000001
290,1715729314700,-1.675926,-1.6146734000000003,8.15952,-1.675926,-1.6146734000000003,8.15952
291,1715729314710,-1.59776228,-1.6585356199999999,8.2773116,-1.59776228,-1.6585356199999999,8.2773116
292,1715729314720,-0.6503435,-1.8446372,9.488569,-0.6503435,-1.8446372,9.488569
293,1715729314730,-0.212866316,-1.502607588,9.8799206,-0.212866316,-1.502607588,9.8799206
294,1715729314740,0.16644745,-0.8084019399999999,10.214946,0.16644745,-0.8084019399999999,10.214946
295,1715729314750,-0.14021532,-0.21518325999999996,10.02533,-0.14021532,-0.21518325999999996,10.02533
296,1715729314760,-0.35426671000000004,-0.004327629999999999,9.853356,-0.35426671000000004,-0.004327629999999999,9.853356
297,1715729314770,-1.2616717,0.6101298,8.747413,-1.2616717,0.6101298,8.747413
298,1715729314780,-2.1105535,1.0808431,7.8292885,-2.1105535,1.0808431,7.8292885
299,1715729314790,-2.5828648,1.50079005,7.080907325,-2.5828648,1.50079005,7.080907325
300,1715729314800,-2.9731507,1.9361167,6.477867999999999,-2.9731507,1.9361167,6.477867999999999
301,1715729314810,-3.09967746,2.22557546,6.41011726,-3.09967746,2.22557546,6.41011726
302,1715729314820,-3.40658,2.9531772000000003,6.299969,-3.40658,2.9531772000000003,6.299969
303,1715729314830,-3.5365422000000004,3.3141685,6.369211,-3.5365422000000004,3.3141685,6.369211
304,1715729314840,-3.6675696,3.7593155,6.44378,-3.6675696,3.7593155,6.44378
305,1715729314850,-3.6718307,3.8573195999999994,6.3819942,-3.6718307,3.8573195999999994,6.3819942
306,1715729314860,-3.5802180000000003,3.7178366,6.2839901000000005,-3.5802180000000003,3.7178366,6.2839901000000005
307,1715729314870,-3.1188522599999997,3.06542928,5.96707432,-3.1188522599999997,3.06542928,5.96707432
308,1715729314880,-2.2734058,1.5664701,5.587574,-2.2734058,1.5664701,5.587574
309,1715729314890,-1.9682743,0.921120115,5.44056775,-1.9682743,0.921120115,5.44056775
310,1715729314900,-1.2861727,-0.7849662,4.749345,-1.2861727,-0.7849662,4.749345
311,1715729314910,-1.25613226,-0.9907751399999999,4.55256402,-1.25613226,-0.9907751399999999,4.55256402
312,1715729314920,-1.5769897,-1.3962944,3.641737,-1.5769897,-1.3962944,3.641737
313,1715729314930,-2.3359679166666667,-0.7871632553333333,3.131986133333333,-2.3359679166666667,-0.7871632553333333,3.131986133333333
314,1715729314940,-3.16615002,0.27635600720000003,2.53394258,-3.16615002,0.27635600720000003,2.53394258
315,1715729314950,-3.4822137,1.2289147,2.0090873,-3.4822137,1.2289147,2.0090873
316,1715729314960,-3.4028515500000003,1.5649388499999999,1.7076842,-3.4028515500000003,1.5649388499999999,1.7076842
317,1715729314970,-2.0551598,2.0819247,0.2720417,-2.0551598,2.0819247,0.2720417
318,1715729314980,-0.7776424749999999,1.5185999575,-0.525108385,-0.7776424749999999,1.5185999575,-0.525108385
319,1715729314990,1.4636723,0.36951333,-1.9282603000000003,1.4636723,0.36951333,-1.9282603000000003
320,1715729315000,3.0217535,-0.38242966,-3.0644972,3.0217535,-0.38242966,-3.0644972
321,1715729315010,3.3961271,-0.49321708000000003,-3.4271528499999997,3.3961271,-0.49321708000000003,-3.4271528499999997
322,1715729315020,4.1251,-0.33342752,-4.676907,4.1251,-0.33342752,-4.676907
323,1715729315030,3.90019636,0.10112015200000002,-5.0334771599999995,3.90019636,0.10112015200000002,-5.0334771599999995
324,1715729315040,3.6635481399999996,0.5024316000000001,-5.338728399999999,3.6635481399999996,0.5024316000000001,-5.338728399999999
325,1715729315050,3.242496075,1.03107535,-5.660012125,3.242496075,1.03107535,-5.660012125
326,1715729315060,3.0797038,1.18928696,-5.79119938,3.0797038,1.18928696,-5.79119938
327,1715729315070,2.8692076999999996,1.30795738,-6.2085960799999995,2.8692076999999996,1.30795738,-6.2085960799999995
328,1715729315080,2.9770124,1.0787126,-6.408626,2.9770124,1.0787126,-6.408626
329,1715729315090,3.7218980000000004,-0.069535084,-6.900431639999999,3.7218980000000004,-0.069535084,-6.900431639999999
330,1715729315100,4.1751676,-0.7306377,-7.104110199999999,4.1751676,-0.7306377,-7.104110199999999
331,1715729315110,4.1751676,-0.7306377,-7.1041102,4.1751676,-0.7306377,-7.1041102
332,1715729315120,5.037765,-1.9458370999999999,-7.419295,5.037765,-1.9458370999999999,-7.419295
333,1715729315130,5.2454915,-2.337721,-7.503451000000001,5.2454915,-2.337721,-7.503451000000001
334,1715729315140,5.3434954,-2.963963,-7.6099772,5.3434954,-2.963963,-7.6099772
335,1715729315150,5.264666,-3.2696936,-7.635543299999999,5.264666,-3.2696936,-7.635543299999999
336,1715729315160,5.2261034,-3.3634101800000002,-7.63533024,5.2261034,-3.3634101800000002,-7.63533024
337,1715729315170,4.87169028,-4.1097337,-7.638739119999999,4.87169028,-4.1097337,-7.638739119999999
338,1715729315180,4.7293265333333325,-4.359458,-7.655428400000001,4.7293265333333325,-4.359458,-7.655428400000001
339,1715729315190,4.181559,-5.0492163,-7.734613,4.181559,-5.0492163,-7.734613
340,1715729315200,3.675692,-5.3805137,-7.686676,3.675692,-5.3805137,-7.686676
341,1715729315210,3.55382592,-5.419235899999999,-7.6504572,3.55382592,-5.419235899999999,-7.6504572
342,1715729315220,2.9567723,-5.438038,-7.4299474000000005,2.9567723,-5.438038,-7.4299474000000005
343,1715729315230,2.5141818999999996,-5.23779484,-7.22893248,2.5141818999999996,-5.23779484,-7.22893248
344,1715729315240,1.7079372400000001,-4.8090262,-6.863173860000001,1.7079372400000001,-4.8090262,-6.863173860000001
345,1715729315250,1.1813774,-4.4698462,-6.6238093,1.1813774,-4.4698462,-6.6238093
346,1715729315260,0.9193891175,-4.176732275,-6.45526465,0.9193891175,-4.176732275,-6.45526465
347,1715729315270,0.13342427,-3.2973905,-5.9496307,0.13342427,-3.2973905,-5.9496307
348,1715729315280,-0.013049479599999997,-3.0732590600000003,-5.79282374,-0.013049479599999997,-3.0732590600000003,-5.79282374
349,1715729315290,-0.45659864,-2.1322584,-5.211536,-0.45659864,-2.1322584,-5.211536
350,1715729315300,-0.7376951,-1.4985596,-4.907004,-0.7376951,-1.4985596,-4.907004
351,1715729315310,-0.83753025,-1.3662338900000002,-4.8627955499999995,-0.83753025,-1.3662338900000002,-4.8627955499999995
352,1715729315320,-1.6546208,-0.59335184,-4.7088647,-1.6546208,-0.59335184,-4.7088647
353,1715729315330,-1.9241325,-0.37390754,-4.7312355,-1.9241325,-0.37390754,-4.7312355
354,1715729315340,-2.6336513999999998,0.40336207999999996,-4.6070524399999995,-2.6336513999999998,0.40336207999999996,-4.6070524399999995
355,1715729315350,-2.8091002,0.687894,-4.340417,-2.8091002,0.687894,-4.340417
356,1715729315360,-2.5496197,0.7886945666666666,-3.701436266666667,-2.5496197,0.7886945666666666,-3.701436266666667
357,1715729315370,-2.0306587,0.9902957000000001,-2.4234748,-2.0306587,0.9902957000000001,-2.4234748
358,1715729315380,-1.89430498,0.99498286,-2.1005401200000002,-1.89430498,0.99498286,-2.1005401200000002
359,1715729315390,-0.866592,1.245959,1.0442247,-0.866592,1.245959,1.0442247
360,1715729315400,-0.72704244,1.8498303,2.37647,-0.72704244,1.8498303,2.37647
361,1715729315410,-0.78328836,2.1280238999999996,2.6367671599999998,-0.78328836,2.1280238999999996,2.6367671599999998
362,1715729315420,-1.11100342,3.1709569499999994,3.3685633,-1.11100342,3.1709569499999994,3.3685633
363,1715729315430,-1.4502233,3.9872818,3.83881065,-1.4502233,3.9872818,3.83881065
364,1715729315440,-1.9369156,4.6657214,4.964528,-1.9369156,4.6657214,4.964528
365,1715729315450,-2.0711389,4.4633217,5.788776,-2.0711389,4.4633217,5.788776
366,1715729315460,-2.13605335,4.26045535,6.1748675,-2.13605335,4.26045535,6.1748675
367,1715729315470,-2.4172163,3.5165683999999997,7.1051755,-2.4172163,3.5165683999999997,7.1051755
368,1715729315480,-2.49125215,3.3439957,7.18819925,-2.49125215,3.3439957,7.18819925
369,1715729315490,-3.0658288,1.9020281999999997,7.4672318,-3.0658288,1.9020281999999997,7.4672318
370,1715729315500,-3.2563777,1.1756516,7.4938636,-3.2563777,1.1756516,7.4938636
371,1715729315510,-3.27406112,0.9641435007999999,7.527952020000001,-3.27406112,0.9641435007999999,7.527952020000001
372,1715729315520,-3.22303512,-0.5753755152,7.92071442,-3.22303512,-0.5753755152,7.92071442
373,1715729315530,-2.8832025999999997,-1.282843735,8.3085903,-2.8832025999999997,-1.282843735,8.3085903
374,1715729315540,-1.0338384,-2.6668875,9.635576,-1.0338384,-2.6668875,9.635576
375,1715729315550,-1.0338384,-2.6668875,9.635576,-1.0338384,-2.6668875,9.635576
376,1715729315560,-0.05717801800000001,-2.38017178,10.1137456,-0.05717801800000001,-2.38017178,10.1137456
377,1715729315570,0.32836753,-1.1843069,10.327864,0.32836753,-1.1843069,10.327864
378,1715729315580,0.13662006,-0.7029408,10.252231,0.13662006,-0.7029408,10.252231
379,1715729315590,-1.1423621,0.65806663,9.563138,-1.1423621,0.65806663,9.563138
380,1715729315600,-2.06679794,1.286891726,9.0067508,-2.06679794,1.286891726,9.0067508
381,1715729315610,-2.6667544333333333,1.6741062,8.637290666666667,-2.6667544333333333,1.6741062,8.637290666666667
382,1715729315620,-4.538689,2.8285413,7.42036,-4.538689,2.8285413,7.42036
383,1715729315630,-4.7572012,2.9550946199999997,7.2676813,-4.7572012,2.9550946199999997,7.2676813
384,1715729315640,-5.5046167,3.4079115,6.76003,-5.5046167,3.4079115,6.76003
385,1715729315650,-5.63159614,3.4547831,6.6519056800000005,-5.63159614,3.4547831,6.6519056800000005
386,1715729315660,-5.663341,3.466501,6.6248746,-5.663341,3.466501,6.6248746
387,1715729315670,-5.3948946,2.9371982,6.6238093,-5.3948946,2.9371982,6.6238093
388,1715729315680,-5.23600365,2.6560685,6.6014386,-5.23600365,2.6560685,6.6014386
389,1715729315690,-4.6707816,1.7752619,6.424605,-4.6707816,1.7752619,6.424605
390,1715729315700,-4.0328217,1.0765821,6.1444407,-4.0328217,1.0765821,6.1444407
391,1715729315710,-3.8270261000000003,0.90460859,6.0371486249999995,-3.8270261000000003,0.90460859,6.0371486249999995
392,1715729315720,-2.339452,-0.31105697,5.311671,-2.339452,-0.31105697,5.311671
393,1715729315730,-1.6722308575,-0.8624640675,5.10557575,-1.6722308575,-0.8624640675,5.10557575
394,1715729315740,-0.92092043,-1.4389049,4.898482,-0.92092043,-1.4389049,4.898482
395,1715729315750,-0.86978778,-1.467667,4.880905,-0.86978778,-1.467667,4.880905
396,1715729315760,-0.705524134,-1.40375118,4.6307542,-0.705524134,-1.40375118,4.6307542
397,1715729315770,-0.6396908,-0.8733830499999999,3.9826211999999996,-0.6396908,-0.8733830499999999,3.9826211999999996
398,1715729315780,-0.6103960500000001,-0.72164956,3.8217664,-0.6103960500000001,-0.72164956,3.8217664
399,1715729315790,0.02476738,0.37270913,2.5884576,0.02476738,0.37270913,2.5884576
400,1715729315800,0.7383609,0.63143504,1.7258602,0.7383609,0.63143504,1.7258602
401,1715729315810,0.7383609,0.63143504,1.7258602,0.7383609,0.63143504,1.7258602
402,1715729315820,2.7075007,0.55367076,-0.48615968,2.7075007,0.55367076,-0.48615968
403,1715729315830,2.8868911400000004,0.555375192,-0.723447168,2.8868911400000004,0.555375192,-0.723447168
404,1715729315840,3.7097363333333333,0.7297943466666666,-2.1521876,3.7097363333333333,0.7297943466666666,-2.1521876
405,1715729315850,4.1421447,1.1213231,-3.3286827000000003,4.1421447,1.1213231,-3.3286827000000003
406,1715729315860,4.124834025,1.216664225,-3.546462525,4.124834025,1.216664225,-3.546462525
407,1715729315870,3.8172389999999994,1.4281191,-4.7781067,3.8172389999999994,1.4281191,-4.7781067
408,1715729315880,3.7528572000000002,1.3636705999999998,-4.91286255,3.7528572000000002,1.3636705999999998,-4.91286255
409,1715729315890,3.5340119999999997,0.83916146,-5.708881,3.5340119999999997,0.83916146,-5.708881
410,1715729315900,3.6575828,0.37164384,-6.2488365,3.6575828,0.37164384,-6.2488365
411,1715729315910,3.6575828,0.37164384,-6.2488365,3.6575828,0.37164384,-6.2488365
412,1715729315920,3.9386792,-0.024634222,-6.7377925,3.9386792,-0.024634222,-6.7377925
413,1715729315930,4.27010924,-0.6126864087999999,-7.213166340000001,4.27010924,-0.6126864087999999,-7.213166340000001
414,1715729315940,4.645881,-1.4804502,-7.8326173,4.645881,-1.4804502,-7.8326173
415,1715729315950,4.674856,-1.8461018800000002,-7.99653472,4.674856,-1.8461018800000002,-7.99653472
416,1715729315960,4.658664,-2.3505042,-8.196804,4.658664,-2.3505042,-8.196804
417,1715729315970,4.61152635,-2.70433815,-8.33731875,4.61152635,-2.70433815,-8.33731875
418,1715729315980,4.522310525,-3.075515975,-8.4771015,4.522310525,-3.075515975,-8.4771015
419,1715729315990,4.374239,-3.542268,-8.630234,4.374239,-3.542268,-8.630234
420,1715729316000,4.3072605,-3.7191017,-8.656865,4.3072605,-3.7191017,-8.656865
421,1715729316010,4.1623845,-4.3496046,-8.683496,4.1623845,-4.3496046,-8.683496
422,1715729316020,4.12318274,-4.7159486799999994,-8.648556,4.12318274,-4.7159486799999994,-8.648556
423,1715729316030,4.104061225,-4.90124465,-8.61931475,4.104061225,-4.90124465,-8.61931475
424,1715729316040,3.9450707,-5.7319174,-8.357659,3.9450707,-5.7319174,-8.357659
425,1715729316050,3.7649745333333335,-5.9467456499999996,-8.1854415,3.7649745333333335,-5.9467456499999996,-8.1854415
426,1715729316060,3.4221593999999995,-6.0684075,-7.893204,3.4221593999999995,-6.0684075,-7.893204
427,1715729316070,3.0377324,-5.96521,-7.613173000000001,3.0377324,-5.96521,-7.613173000000001
428,1715729316080,2.8705525499999998,-5.87466265,-7.5045161,2.8705525499999998,-5.87466265,-7.5045161
429,1715729316090,2.0014973,-5.314467,-7.032737299999999,2.0014973,-5.314467,-7.032737299999999
430,1715729316100,1.135571,-4.5806336,-6.688790299999999,1.135571,-4.5806336,-6.688790299999999
431,1715729316110,0.69423232,-4.148669119999999,-6.5422100599999995,0.69423232,-4.148669119999999,-6.5422100599999995
432,1715729316120,-0.08695214,-3.1684935,-6.3020997,-0.08695214,-3.1684935,-6.3020997
433,1715729316130,-0.258885698,-2.8815914400000002,-6.24337692,-0.258885698,-2.8815914400000002,-6.24337692
434,1715729316140,-0.9624657,-1.5507575,-5.8516264,-0.9624657,-1.5507575,-5.8516264
435,1715729316150,-1.0476202,-1.3441629499999999,-5.7675372,-1.0476202,-1.3441629499999999,-5.7675372
436,1715729316160,-1.4448969,-0.17683376,-4.920852,-1.4448969,-0.17683376,-4.920852
437,1715729316170,-1.550358,0.22996380000000002,-4.3233724,-1.550358,0.22996380000000002,-4.3233724
438,1715729316180,-1.54354036,0.278539812,-4.15937512,-1.54354036,0.278539812,-4.15937512
439,1715729316190,-1.2116042,0.5185171,-3.2668972,-1.2116042,0.5185171,-3.2668972
440,1715729316200,-1.2116042,0.5185171,-3.2668972,-1.2116042,0.5185171,-3.2668972
441,1715729316210,-0.79415405,0.7230477,-2.5351944,-0.79415405,0.7230477,-2.5351944
442,1715729316220,-0.9060067249999999,0.86126565,-1.9305906,-0.9060067249999999,0.86126565,-1.9305906
443,1715729316230,-0.9882650374999999,0.98853135,-1.5272218499999999,-0.9882650374999999,0.98853135,-1.5272218499999999
444,1715729316240,-1.3042822,1.6953671,-0.002663159,-1.3042822,1.6953671,-0.002663159
445,1715729316250,-1.4312616400000002,2.26027646,0.9575655282,-1.4312616400000002,2.26027646,0.9575655282
446,1715729316260,-1.52452535,2.851444375,2.20156705,-1.52452535,2.851444375,2.20156705
447,1715729316270,-1.5556844,3.1374676,2.970754,-1.5556844,3.1374676,2.970754
448,1715729316280,-1.5556844,3.1374676,2.970754,-1.5556844,3.1374676,2.970754
449,1715729316290,-1.73478185,3.5698317250000002,4.63143335,-1.73478185,3.5698317250000002,4.63143335
450,1715729316300,-1.8421071333333332,3.6929583666666663,5.209805033333333,-1.8421071333333332,3.6929583666666663,5.209805033333333
451,1715729316310,-2.3735406,3.7870122999999998,6.5396533,-2.3735406,3.7870122999999998,6.5396533
452,1715729316320,-2.43426054,3.7697550399999997,6.65334376,-2.43426054,3.7697550399999997,6.65334376
453,1715729316330,-2.90207775,3.4835119249999997,7.5486576,-2.90207775,3.4835119249999997,7.5486576
454,1715729316340,-3.2145995,3.045289175,8.328264,-3.2145995,3.045289175,8.328264
455,1715729316350,-3.3139021,2.5783374,8.774044,-3.3139021,2.5783374,8.774044
456,1715729316360,-3.3192284,1.6463649,9.047684,-3.3192284,1.6463649,9.047684
457,1715729316370,-3.2817310399999995,0.773914044,9.1959688,-3.2817310399999995,0.773914044,9.1959688
458,1715729316380,-3.2723567,0.55580133,9.23304,-3.2723567,0.55580133,9.23304
459,1715729316390,-2.755837,-1.584846,9.574856,-2.755837,-1.584846,9.574856
460,1715729316400,-2.365284775,-2.040645675,9.55887675,-2.365284775,-2.040645675,9.55887675
461,1715729316410,-1.6833829000000002,-2.6349297,9.483243,-1.6833829000000002,-2.6349297,9.483243
462,1715729316420,-1.33152626,-2.60851114,9.4184758,-1.33152626,-2.60851114,9.4184758
463,1715729316430,-1.0934598,-2.3478410750000003,9.359240375,-1.0934598,-2.3478410750000003,9.359240375
464,1715729316440,-1.0890989,-1.3377048,9.09562,-1.0890989,-1.3377048,9.09562
465,1715729316450,-1.35754538,-0.69875968,8.744615999999999,-1.35754538,-0.69875968,8.744615999999999
466,1715729316460,-1.9241325,0.21185431000000002,8.05619,-1.9241325,0.21185431000000002,8.05619
467,1715729316470,-2.4907196,0.8636625,7.432078,-2.4907196,0.8636625,7.432078
468,1715729316480,-2.6861289,1.0643981,7.24039725,-2.6861289,1.0643981,7.24039725
469,1715729316490,-3.3075104,1.6506261,6.717419,-3.3075104,1.6506261,6.717419
470,1715729316500,-3.5290854000000005,1.8306556,6.617417999999999,-3.5290854000000005,1.8306556,6.617417999999999
471,1715729316510,-3.68994,2.1618195,6.557762999999999,-3.68994,2.1618195,6.557762999999999
472,1715729316520,-3.6792874,2.2758026,6.5247397000000005,-3.6792874,2.2758026,6.5247397000000005
473,1715729316530,-3.6792874,2.2758026,6.5247397000000005,-3.6792874,2.2758026,6.5247397000000005
474,1715729316540,-3.3916662000000004,2.100034,6.3819942,-3.3916662000000004,2.100034,6.3819942
475,1715729316550,-3.3916662000000004,2.100034,6.3819942,-3.3916662000000004,2.100034,6.3819942
476,1715729316560,-3.3916662,2.100034,6.3819942,-3.3916662,2.100034,6.3819942
477,1715729316570,-3.0197228000000003,1.5500585,6.27440285,-3.0197228000000003,1.5500585,6.27440285
478,1715729316580,-2.31015745,0.485027855,5.8484306,-2.31015745,0.485027855,5.8484306
479,1715729316590,-1.4932333,-0.45742423,5.14303942,-1.4932333,-0.45742423,5.14303942
480,1715729316600,-1.0412952,-0.72424614,4.4810314,-1.0412952,-0.72424614,4.4810314
481,1715729316610,-0.911333,-0.7988146,3.8047223000000003,-0.911333,-0.7988146,3.8047223000000003
482,1715729316620,-0.83143824,-0.53369707,3.0176256,-0.83143824,-0.53369707,3.0176256
483,1715729316630,-0.8154592920000001,-0.44890208600000003,2.86428092,-0.8154592920000001,-0.44890208600000003,2.86428092
484,1715729316640,-0.515953785,0.62191425,1.054378,-0.515953785,0.62191425,1.054378
485,1715729316650,-0.23821959,1.2779169,-0.020772642,-0.23821959,1.2779169,-0.020772642
486,1715729316660,0.5083971,2.1224046,-2.088982,0.5083971,2.1224046,-2.088982
487,1715729316670,0.9056072,2.018142,-2.7961838,0.9056072,2.018142,-2.7961838
488,1715729316680,1.2364603333333333,1.8441488666666668,-3.1930833333333335,1.2364603333333333,1.8441488666666668,-3.1930833333333335
489,1715729316690,1.69030702,1.58591122,-3.65907414,1.69030702,1.58591122,-3.65907414
490,1715729316700,2.619217,1.0840389,-4.475705,2.619217,1.0840389,-4.475705
491,1715729316710,3.1985872,0.82531303,-5.1189914,3.1985872,0.82531303,-5.1189914
492,1715729316720,3.2823769,0.8740488325,-5.33620535,3.2823769,0.8740488325,-5.33620535
493,1715729316730,3.3103068000000007,0.8902940999999999,-5.40861,3.3103068000000007,0.8902940999999999,-5.40861
494,1715729316740,3.3092415,0.99562204,-5.8953023,3.3092415,0.99562204,-5.8953023
495,1715729316750,3.4620735500000004,0.7698860125,-6.16611225,3.4620735500000004,0.7698860125,-6.16611225
496,1715729316760,3.812978,0.27790067,-6.6973123999999995,3.812978,0.27790067,-6.6973123999999995
497,1715729316770,4.069440275,-0.092711215,-6.992024225000001,4.069440275,-0.092711215,-6.992024225000001
498,1715729316780,4.20837736,-0.314013088,-7.16565556,4.20837736,-0.314013088,-7.16565556
499,1715729316790,4.6107273,-1.1535474,-7.851659,4.6107273,-1.1535474,-7.851659
500,1715729316800,4.6780521,-1.42614836,-8.0698254,4.6780521,-1.42614836,-8.0698254
501,1715729316810,4.6714473,-2.1098878,-8.49601,4.6714473,-2.1098878,-8.49601
502,1715729316820,4.556399,-2.5177505,-8.712258,4.556399,-2.5177505,-8.712258
503,1715729316830,4.4427710000000005,-2.7079889666666666,-8.824466000000001,4.4427710000000005,-2.7079889666666666,-8.824466000000001
504,1715729316840,4.184755,-2.9586365,-8.990159,4.184755,-2.9586365,-8.990159
505,1715729316850,4.1472045,-2.970088125,-9.001877,4.1472045,-2.970088125,-9.001877
506,1715729316860,3.84261908,-3.01573482,-8.9554583,3.84261908,-3.01573482,-8.9554583
507,1715729316870,3.6852796,-2.9969862,-8.801741,3.6852796,-2.9969862,-8.801741
508,1715729316880,3.6487943,-2.963164075,-8.742352499999999,3.6487943,-2.963164075,-8.742352499999999
509,1715729316890,3.3614395000000004,-2.7265422,-8.302265,3.3614395000000004,-2.7265422,-8.302265
510,1715729316900,3.2757522999999997,-2.6812686,-8.205326,3.2757522999999997,-2.6812686,-8.205326
511,1715729316910,2.8896608,-2.5571654,-7.8782907,2.8896608,-2.5571654,-7.8782907
512,1715729316920,2.80577135,-2.54837705,-7.837644075,2.80577135,-2.54837705,-7.837644075
513,1715729316930,2.61977624,-2.45894808,-7.854295400000001,2.61977624,-2.45894808,-7.854295400000001
514,1715729316940,2.0121498,-1.8222666,-7.974164,2.0121498,-1.8222666,-7.974164
515,1715729316950,1.8076192,-1.3803153,-7.900661,1.8076192,-1.3803153,-7.900661
516,1715729316960,1.27801675,0.02463423000000002,-7.19938475,1.27801675,0.02463423000000002,-7.19938475
517,1715729316970,0.6201166,1.5632744,-5.5939655,0.6201166,1.5632744,-5.5939655
518,1715729316980,0.6201166,1.5632744,-5.5939655,0.6201166,1.5632744,-5.5939655
519,1715729316990,0.51798445,2.1586237,-2.0101526,0.51798445,2.1586237,-2.0101526
520,1715729317000,0.723214165,2.023701325,-1.463872025,0.723214165,2.023701325,-1.463872025
521,1715729317010,1.8885792,0.8988161700000001,-0.30200225,1.8885792,0.8988161700000001,-0.30200225
522,1715729317020,2.2293305,-0.08322372,-0.5245092,2.2293305,-0.08322372,-0.5245092
523,1715729317030,2.2293305,-0.08322372,-0.5245092,2.2293305,-0.08322372,-0.5245092
524,1715729317040,1.43403128,-0.926646192,-0.9202546080000001,1.43403128,-0.926646192,-0.9202546080000001
525,1715729317050,0.532032575,-0.6827674065,-0.7194191375000001,0.532032575,-0.6827674065,-0.7194191375000001
526,1715729317060,-1.0178595,0.006258424,-0.15499586,-1.0178595,0.006258424,-0.15499586
527,1715729317070,-1.659947,0.67191505,0.69069034,-1.659947,0.67191505,0.69069034
528,1715729317080,-1.659947,0.67191505,0.6906903400000001,-1.659947,0.67191505,0.6906903400000001
529,1715729317090,-1.9156103000000002,1.537708,2.978211,-1.9156103000000002,1.537708,2.978211
530,1715729317100,-1.891641875,1.6335817750000001,3.435109125,-1.891641875,1.6335817750000001,3.435109125
531,1715729317110,-1.88620904,1.7899625000000001,4.708704900000001,-1.88620904,1.7899625000000001,4.708704900000001
532,1715729317120,-1.9843198499999999,1.783517725,5.70149075,-1.9843198499999999,1.783517725,5.70149075
533,1715729317130,-2.0633823749999998,1.729988225,6.123734675,-2.0633823749999998,1.729988225,6.123734675
534,1715729317140,-2.4182816,1.266199,7.346857,-2.4182816,1.266199,7.346857
535,1715729317150,-2.46749672,1.11152272,7.5149555800000005,-2.46749672,1.11152272,7.5149555800000005
536,1715729317160,-2.54121296,0.541606664,7.8791693800000004,-2.54121296,0.541606664,7.8791693800000004
537,1715729317170,-2.5418522,-0.038482647,8.073234,-2.5418522,-0.038482647,8.073234
538,1715729317180,-2.1991036,-1.05570288,8.2811194,-2.1991036,-1.05570288,8.2811194
539,1715729317190,-1.9550250999999998,-1.5049512,8.388418,-1.9550250999999998,-1.5049512,8.388418
540,1715729317200,-1.7224513600000002,-1.75158636,8.5034668,-1.7224513600000002,-1.75158636,8.5034668
541,1715729317210,-0.8101330000000001,-2.0310583,9.098816,-0.8101330000000001,-2.0310583,9.098816
542,1715729317220,-0.810133,-2.0310583,9.098816,-0.810133,-2.0310583,9.098816
543,1715729317230,-0.8101330000000001,-2.0310583,9.098816,-0.8101330000000001,-2.0310583,9.098816
544,1715729317240,-0.6751441149999999,-1.3625054825,9.35814125,-0.6751441149999999,-1.3625054825,9.35814125
545,1715729317250,-0.70946557,-0.08954872999999999,9.5104075,-0.70946557,-0.08954872999999999,9.5104075
546,1715729317260,-1.3554149,0.77418035,8.755935,-1.3554149,0.77418035,8.755935
547,1715729317270,-1.9837872,1.2171968,8.044472,-1.9837872,1.2171968,8.044472
548,1715729317280,-2.6238775,1.723064,7.294659,-2.6238775,1.723064,7.294659
549,1715729317290,-3.2265503000000004,2.3588932,6.613156999999999,-3.2265503000000004,2.3588932,6.613156999999999
550,1715729317300,-3.37249145,2.5244751,6.4640199,-3.37249145,2.5244751,6.4640199
551,1715729317310,-4.3341584,3.7177700000000002,5.6439,-4.3341584,3.7177700000000002,5.6439
552,1715729317320,-4.42790152,3.8498627999999995,5.5817952,-4.42790152,3.8498627999999995,5.5817952
553,1715729317330,-4.9572043,4.715789,5.243494,-4.9572043,4.715789,5.243494
554,1715729317340,-4.834699,4.7710495,5.220058,-4.834699,4.7710495,5.220058
555,1715729317350,-4.74782676,4.71869182,5.23198904,-4.74782676,4.71869182,5.23198904
556,1715729317360,-3.5748916,3.660379,5.4469595,-3.5748916,3.660379,5.4469595
557,1715729317370,-2.3591061600000005,2.33636276,5.689732940000001,-2.3591061600000005,2.33636276,5.689732940000001
558,1715729317380,-0.6748445,0.44727758,6.0220685,-0.6748445,0.44727758,6.0220685
559,1715729317390,0.24527696,-0.6189182,6.211552,0.24527696,-0.6189182,6.211552
560,1715729317400,0.356297395,-0.7594664250000001,6.22353625,0.356297395,-0.7594664250000001,6.22353625
561,1715729317410,1.2312583,-1.7758477400000001,5.9621742,1.2312583,-1.7758477400000001,5.9621742
562,1715729317420,1.4417277599999998,-1.86061614,5.6459239000000006,1.4417277599999998,-1.86061614,5.6459239000000006
563,1715729317430,1.4604764,-1.1979689,4.787934,1.4604764,-1.1979689,4.787934
564,1715729317440,1.5425018,0.2906838,3.3041816000000006,1.5425018,0.2906838,3.3041816000000006
565,1715729317450,1.692604025,0.6908567250000001,2.7929549,1.692604025,0.6908567250000001,2.7929549
566,1715729317460,2.4636884,0.9637972999999999,1.3881717,2.4636884,0.9637972999999999,1.3881717
567,1715729317470,3.059503775,0.76805507,0.484062465,3.059503775,0.76805507,0.484062465
568,1715729317480,3.9120476,0.29814067,-1.12625,3.9120476,0.29814067,-1.12625
569,1715729317490,4.1613193,0.09147952,-2.0463715,4.1613193,0.09147952,-2.0463715
570,1715729317500,4.13745738,0.0454601288,-2.46214394,4.13745738,0.0454601288,-2.46214394
571,1715729317510,3.6756657000000006,-0.06703171960000001,-3.90030292,3.6756657000000006,-0.06703171960000001,-3.90030292
572,1715729317520,3.465302625,-0.08428898875,-4.2405483749999995,3.465302625,-0.08428898875,-4.2405483749999995
573,1715729317530,2.430399075,-0.3137201425,-5.6469292499999995,2.430399075,-0.3137201425,-5.6469292499999995
574,1715729317540,2.2410483,-0.51345706,-6.032721,2.2410483,-0.51345706,-6.032721
575,1715729317550,2.1679891000000002,-0.7867859533333333,-6.438852799999999,2.1679891000000002,-0.7867859533333333,-6.438852799999999
576,1715729317560,2.2943115,-1.4175996,-7.2670956,2.2943115,-1.4175996,-7.2670956
577,1715729317570,2.4104252,-1.5816501,-7.4778843,2.4104252,-1.5816501,-7.4778843
578,1715729317580,2.7511766,-1.9394455999999998,-7.907052500000001,2.7511766,-1.9394455999999998,-7.907052500000001
579,1715729317590,2.8853998,-2.1365194,-8.089212,2.8853998,-2.1365194,-8.089212
580,1715729317600,2.8853998,-2.1365194,-8.089212,2.8853998,-2.1365194,-8.089212
581,1715729317610,2.9865997000000006,-2.4772706,-8.425703,2.9865997000000006,-2.4772706,-8.425703
582,1715729317620,2.9873987,-2.4857927,-8.435823,2.9873987,-2.4857927,-8.435823
583,1715729317630,2.9525113,-2.6796706,-8.681366,2.9525113,-2.6796706,-8.681366
584,1715729317640,2.91735765,-2.7164222000000002,-8.7154545,2.91735765,-2.7164222000000002,-8.7154545
585,1715729317650,2.8649467,-2.7665695,-8.738251199999999,2.8649467,-2.7665695,-8.738251199999999
586,1715729317660,2.7193251,-2.9897423,-8.541390400000001,2.7193251,-2.9897423,-8.541390400000001
587,1715729317670,2.68792645,-3.08859875,-8.463519999999999,2.68792645,-3.08859875,-8.463519999999999
588,1715729317680,2.6341307,-3.5529206,-8.1861515,2.6341307,-3.5529206,-8.1861515
589,1715729317690,2.6565013,-3.7723649000000004,-8.082821,2.6565013,-3.7723649000000004,-8.082821
590,1715729317700,2.6565013,-3.7723649,-8.082821,2.6565013,-3.7723649,-8.082821
591,1715729317710,2.709398175,-4.0942075749999995,-7.82992095,2.709398175,-4.0942075749999995,-7.82992095
592,1715729317720,2.7010025200000003,-4.16190528,-7.7320564,2.7010025200000003,-4.16190528,-7.7320564
593,1715729317730,2.4471769500000002,-4.298472175,-7.3157979,2.4471769500000002,-4.298472175,-7.3157979
594,1715729317740,2.0355856,-4.315516,-6.779205,2.0355856,-4.315516,-6.779205
595,1715729317750,1.973800325,-4.3019339,-6.6990771250000005,1.973800325,-4.3019339,-6.6990771250000005
596,1715729317760,1.5020218,-4.1067243,-5.830321,1.5020218,-4.1067243,-5.830321
597,1715729317770,1.4608315333333335,-4.0328661,-5.669909999999999,1.4608315333333335,-4.0328661,-5.669909999999999
598,1715729317780,1.3326448,-3.3005862,-5.1104693,1.3326448,-3.3005862,-5.1104693
599,1715729317790,1.1259837,-2.4623568,-4.928309,1.1259837,-2.4623568,-4.928309
600,1715729317800,1.0445243149999999,-2.293279525,-4.879040625,1.0445243149999999,-2.293279525,-4.879040625
601,1715729317810,0.33795488,-1.1546127,-4.4405513,0.33795488,-1.1546127,-4.4405513
602,1715729317820,0.33795488,-1.1546127,-4.4405513,0.33795488,-1.1546127,-4.4405513
603,1715729317830,-0.5544697,0.2384859,-2.6704829,-0.5544697,0.2384859,-2.6704829
604,1715729317840,-0.27017748,0.66339296,-2.0655463,-0.27017748,0.66339296,-2.0655463
605,1715729317850,-0.27017748,0.66339296,-2.0655463,-0.27017748,0.66339296,-2.0655463
606,1715729317860,0.15899059,0.97977626,-0.8599341,0.15899059,0.97977626,-0.8599341
607,1715729317870,0.15046848333333332,0.9882539733333333,-0.8063602099999999,0.15046848333333332,0.9882539733333333,-0.8063602099999999
608,1715729317880,-0.24993747,1.3780516,0.30826068,-0.24993747,1.3780516,0.30826068
609,1715729317890,-0.6428866,1.9254640000000003,0.91426253,-0.6428866,1.9254640000000003,0.91426253
610,1715729317900,-0.8117308999999999,2.1842565,1.118193915,-0.8117308999999999,2.1842565,1.118193915
611,1715729317910,-1.4523538,3.3344083000000007,2.0783293,-1.4523538,3.3344083000000007,2.0783293
612,1715729317920,-1.549825375,3.5780873499999997,2.3346916749999997,-1.549825375,3.5780873499999997,2.3346916749999997
613,1715729317930,-1.8069534,4.385557,3.3766193,-1.8069534,4.385557,3.3766193
614,1715729317940,-1.942774575,4.713824799999999,3.95965145,-1.942774575,4.713824799999999,3.95965145
615,1715729317950,-2.14936915,4.9414917,4.5470111499999994,-2.14936915,4.9414917,4.5470111499999994
616,1715729317960,-2.7611635,5.0128646,5.648161,-2.7611635,5.0128646,5.648161
617,1715729317970,-3.019223425,4.87384745,5.97253375,-3.019223425,4.87384745,5.97253375
618,1715729317980,-3.6878095,4.1087217,6.609961,-3.6878095,4.1087217,6.609961
619,1715729317990,-3.9539923999999997,3.4196292999999995,6.783466,-3.9539923999999997,3.4196292999999995,6.783466
620,1715729318000,-3.9843523750000003,3.260938325,6.8050375,-3.9843523750000003,3.260938325,6.8050375
621,1715729318010,-4.091411,1.5176013,7.182939500000001,-4.091411,1.5176013,7.182939500000001
622,1715729318020,-4.065845,1.2427632,7.296789599999999,-4.065845,1.2427632,7.296789599999999
623,1715729318030,-3.6068494,-0.69122297,8.449139,-3.6068494,-0.69122297,8.449139
624,1715729318040,-3.22005228,-1.372885154,8.979959000000001,-3.22005228,-1.372885154,8.979959000000001
625,1715729318050,-3.0260589,-1.6533335666666666,9.210269,-3.0260589,-1.6533335666666666,9.210269
626,1715729318060,-2.027463,-2.2855232,9.929456,-2.027463,-2.2855232,9.929456
627,1715729318070,-2.005092475,-2.2770011,9.93771175,-2.005092475,-2.2770011,9.93771175
628,1715729318080,-1.920403975,-1.82020265,9.88588,-1.920403975,-1.82020265,9.88588
629,1715729318090,-2.258492,-1.2034816,9.522658,-2.258492,-1.2034816,9.522658
630,1715729318100,-2.3583605,-1.119359065,9.38607125,-2.3583605,-1.119359065,9.38607125
631,1715729318110,-2.8589811999999997,-0.677800644,8.5826958,-2.8589811999999997,-0.677800644,8.5826958
632,1715729318120,-3.0206882,-0.2531776833333333,7.990498,-3.0206882,-0.2531776833333333,7.990498
633,1715729318130,-3.2435946,0.50147283,7.00291,-3.2435946,0.50147283,7.00291
634,1715729318140,-3.2915316,1.0627337,6.4278007,-3.2915316,1.0627337,6.4278007
635,1715729318150,-3.2945143000000003,1.17775554,6.33451026,-3.2945143000000003,1.17775554,6.33451026
636,1715729318160,-3.29206415,1.8279923500000002,5.823130325,-3.29206415,1.8279923500000002,5.823130325
637,1715729318170,-3.2540609000000003,1.97891356,5.7282952,-3.2540609000000003,1.97891356,5.7282952
638,1715729318180,-2.9917929,2.3983079,5.5300498000000005,-2.9917929,2.3983079,5.5300498000000005
639,1715729318190,-2.588724,2.44731,5.5865088,-2.588724,2.44731,5.5865088
640,1715729318200,-2.588724,2.44731,5.5865088,-2.588724,2.44731,5.5865088
641,1715729318210,-1.4193306,1.5952322,6.1349864,-1.4193306,1.5952322,6.1349864
642,1715729318220,-1.3175979500000001,1.470663,6.2105537,-1.3175979500000001,1.470663,6.2105537
643,1715729318230,-0.789893,0.60693395,6.54498,-0.789893,0.60693395,6.54498
644,1715729318240,-0.69401926,0.16178691,6.4469757,-0.69401926,0.16178691,6.4469757
645,1715729318250,-0.739612556,0.065487078,6.32303222,-0.739612556,0.065487078,6.32303222
646,1715729318260,-1.3713938,-0.043808967,5.204079,-1.3713938,-0.043808967,5.204079
647,1715729318270,-1.46508372,0.0226634838,5.0324118,-1.46508372,0.0226634838,5.0324118
648,1715729318280,-1.6705997,0.8114646,3.4957957,-1.6705997,0.8114646,3.4957957
649,1715729318290,-1.0146636,1.16926,2.631068,-1.0146636,1.16926,2.631068
650,1715729318300,-0.821884175,1.19003265,2.448142275,-0.821884175,1.19003265,2.448142275
651,1715729318310,1.3017522,1.1138663,0.44674495,1.3017522,1.1138663,0.44674495
652,1715729318320,1.7695094,1.02608862,-0.10112014600000001,1.7695094,1.02608862,-0.10112014600000001
653,1715729318330,3.007905,0.7731151,-1.992043,3.007905,0.7731151,-1.992043
654,1715729318340,3.2922306,0.598944475,-2.9649616,3.2922306,0.598944475,-2.9649616
655,1715729318350,3.3907342,0.3034003925,-3.8430719,3.3907342,0.3034003925,-3.8430719
656,1715729318360,3.2156315,-0.5677855,-5.3020835,3.2156315,-0.5677855,-5.3020835
657,1715729318370,3.0739515,-0.9969536,-5.8953023,3.0739515,-0.9969536,-5.8953023
658,1715729318380,2.9290755,-1.4879069,-6.735662,2.9290755,-1.4879069,-6.735662
659,1715729318390,2.8719775,-1.6140341800000002,-7.23228792,2.8719775,-1.6140341800000002,-7.23228792
660,1715729318400,2.857703,-1.645566,-7.3564444,2.857703,-1.645566,-7.3564444
661,1715729318410,2.691655,-1.3174648,-7.7942677,2.691655,-1.3174648,-7.7942677
662,1715729318420,2.6085643750000003,-1.161769825,-7.874062675,2.6085643750000003,-1.161769825,-7.874062675
663,1715729318430,2.4498400250000003,-1.025183075,-8.025296749999999,2.4498400250000003,-1.025183075,-8.025296749999999
664,1715729318440,2.3752716,-1.099219,-8.237285,2.3752716,-1.099219,-8.237285
665,1715729318450,2.3752716,-1.099219,-8.237285,2.3752716,-1.099219,-8.237285
666,1715729318460,2.6863286,-1.6434355,-8.57697,2.6863286,-1.6434355,-8.57697
667,1715729318470,2.8164572750000003,-1.842273625,-8.643282750000001,2.8164572750000003,-1.842273625,-8.643282750000001
668,1715729318480,3.1549115,-2.4101589,-8.704802,3.1549115,-2.4101589,-8.704802
669,1715729318490,3.3731573,-2.7467823,-8.710128,3.3731573,-2.7467823,-8.710128
670,1715729318500,3.3731573,-2.7467823,-8.710128,3.3731573,-2.7467823,-8.710128
671,1715729318510,3.4210942,-3.0310745,-8.695214,3.4210942,-3.0310745,-8.695214
672,1715729318520,3.2070206333333338,-2.9714198,-8.669293000000001,3.2070206333333338,-2.9714198,-8.669293000000001
673,1715729318530,2.9141619999999997,-2.8648934,-8.63343,2.9141619999999997,-2.8648934,-8.63343
674,1715729318540,2.84513272,-2.82654388,-8.6257596,2.84513272,-2.82654388,-8.6257596
675,1715729318550,2.8278754,-2.8169565,-8.623842,2.8278754,-2.8169565,-8.623842
676,1715729318560,2.4160622666666667,-2.978876566666667,-8.473284333333334,2.4160622666666667,-2.978876566666667,-8.473284333333334
677,1715729318570,2.2101557,-3.0598366,-8.3980055,2.2101557,-3.0598366,-8.3980055
678,1715729318580,2.6810024,-4.957604,-8.066842,2.6810024,-4.957604,-8.066842
679,1715729318590,3.3124373,-6.0364494,-8.021036,3.3124373,-6.0364494,-8.021036
680,1715729318600,3.3124373,-6.0364494,-8.021036,3.3124373,-6.0364494,-8.021036
681,1715729318610,5.05592774,-6.4201575,-7.28283452,5.05592774,-6.4201575,-7.28283452
682,1715729318620,5.350553000000001,-6.342890466666667,-6.962474366666666,5.350553000000001,-6.342890466666667,-6.962474366666666
683,1715729318630,5.199685,-5.433777,-5.138166,5.199685,-5.433777,-5.138166
684,1715729318640,3.1016483,-4.4826293,-4.07743,3.1016483,-4.4826293,-4.07743
685,1715729318650,1.5520891,-3.615771,-3.6726296,1.5520891,-3.615771,-3.6726296
686,1715729318660,-0.21584904,-2.4932497,-3.2850068,-0.21584904,-2.4932497,-3.2850068
687,1715729318670,-0.5136789933333333,-2.2958651666666667,-3.2253520000000004,-0.5136789933333333,-2.2958651666666667,-3.2253520000000004
688,1715729318680,-1.8197366,-1.1938943,-3.0059078,-1.8197366,-1.1938943,-3.0059078
689,1715729318690,-1.87427812,-0.969869308,-2.9148277200000003,-1.87427812,-0.969869308,-2.9148277200000003
690,1715729318700,-1.525857,-0.5368929,-2.0346537,-1.525857,-0.5368929,-2.0346537
691,1715729318710,-1.525857,-0.5368929,-2.0346537,-1.525857,-0.5368929,-2.0346537
692,1715729318720,-1.525857,-0.5368929,-2.0346537,-1.525857,-0.5368929,-2.0346537
693,1715729318730,-1.1717234,1.242829765,2.1038957,-1.1717234,1.242829765,2.1038957
694,1715729318740,-1.287238,1.5112096,2.3094916,-1.287238,1.5112096,2.3094916
695,1715729318750,-1.655686,2.353567,2.5969796,-1.655686,2.353567,2.5969796
696,1715729318760,-1.86660826,2.85067222,2.71969802,-1.86660826,2.85067222,2.71969802
697,1715729318770,-2.1656276599999997,3.61318786,2.98633358,-2.1656276599999997,3.61318786,2.98633358
698,1715729318780,-2.3841932,4.5048666,3.6278884,-2.3841932,4.5048666,3.6278884
699,1715729318790,-2.48725745,4.8123618,4.14071305,-2.48725745,4.8123618,4.14071305
700,1715729318800,-2.7441192,5.0554748,5.0847697,-2.7441192,5.0554748,5.0847697
701,1715729318810,-2.8634286,5.0256476,5.482113,-2.8634286,5.0256476,5.482113
702,1715729318820,-3.00851748,4.81033106,6.04952562,-3.00851748,4.81033106,6.04952562
703,1715729318830,-3.2350726,3.9574544000000005,7.156308,-3.2350726,3.9574544000000005,7.156308
704,1715729318840,-3.2968578,3.2097726,7.597194,-3.2968578,3.2097726,7.597194
705,1715729318850,-3.3224241999999995,2.3833942,7.9645767,-3.3224241999999995,2.3833942,7.9645767
706,1715729318860,-3.281944,1.4579464,8.31172,-3.281944,1.4579464,8.31172
707,1715729318870,-3.2508183500000003,1.25611225,8.389484249999999,-3.2508183500000003,1.25611225,8.389484249999999
708,1715729318880,-2.75019116,-0.35478603999999997,9.1229178,-2.75019116,-0.35478603999999997,9.1229178
709,1715729318890,-2.535726875,-0.7522425749999999,9.34053075,-2.535726875,-0.7522425749999999,9.34053075
710,1715729318900,-1.577988325,-1.29539385,9.8682365,-1.577988325,-1.29539385,9.8682365
711,1715729318910,-0.7643267,-1.2673974,10.125464,-0.7643267,-1.2673974,10.125464
712,1715729318920,-0.6934866500000001,-1.0884996999999998,10.084983999999999,-0.6934866500000001,-1.0884996999999998,10.084983999999999
713,1715729318930,-0.8207856400000001,-0.101200044,9.616402,-0.8207856400000001,-0.101200044,9.616402
714,1715729318940,-0.9574056849999999,0.170342304,9.432643,-0.9574056849999999,0.170342304,9.432643
715,1715729318950,-1.58990594,1.138420644,8.584160399999998,-1.58990594,1.138420644,8.584160399999998
716,1715729318960,-2.17996215,1.8522604500000002,7.90099375,-2.17996215,1.8522604500000002,7.90099375
717,1715729318970,-2.50669848,2.24325876,7.596341839999999,-2.50669848,2.24325876,7.596341839999999
718,1715729318980,-3.341599,3.3237557000000004,7.132872000000001,-3.341599,3.3237557000000004,7.132872000000001
719,1715729318990,-3.7133758,3.7870123,7.040194,-3.7133758,3.7870123,7.040194
720,1715729319000,-4.1329565,4.484627,6.9208846,-4.1329565,4.484627,6.9208846
721,1715729319010,-4.143609,4.607132,6.850577400000001,-4.143609,4.607132,6.850577400000001
722,1715729319020,-4.11804275,4.581033,6.8417889249999995,-4.11804275,4.581033,6.8417889249999995
723,1715729319030,-3.6782221999999996,3.7848818,6.7621603,-3.6782221999999996,3.7848818,6.7621603
724,1715729319040,-3.3043146,3.0021791,6.6568327,-3.3043146,3.0021791,6.6568327
725,1715729319050,-2.6118267,1.6642413500000002,6.564154674999999,-2.6118267,1.6642413500000002,6.564154674999999
726,1715729319060,-1.3543496,-0.5741771,6.4384537,-1.3543496,-0.5741771,6.4384537
727,1715729319070,-1.1924961,-0.8665254,6.364417850000001,-1.1924961,-0.8665254,6.364417850000001
728,1715729319080,-0.63329923,-2.0747342,5.4895697,-0.63329923,-2.0747342,5.4895697
729,1715729319090,-0.6972151,-2.0843215,4.7482796,-0.6972151,-2.0843215,4.7482796
730,1715729319100,-0.9944235999999999,-1.25781,3.5384064,-0.9944235999999999,-1.25781,3.5384064
731,1715729319110,-0.89428884,-0.22370536999999996,2.8068366,-0.89428884,-0.22370536999999996,2.8068366
732,1715729319120,-0.43179796,0.22969747499999998,2.35739515,-0.43179796,0.22969747499999998,2.35739515
733,1715729319130,0.59028924,0.8924246400000001,1.4616749,0.59028924,0.8924246400000001,1.4616749
734,1715729319140,1.1664637,0.708134,0.952612,1.1664637,0.708134,0.952612
735,1715729319150,2.8651597,-0.6656566,-1.0122668,2.8651597,-0.6656566,-1.0122668
736,1715729319160,3.4200290000000004,-1.2716584,-2.1315925,3.4200290000000004,-1.2716584,-2.1315925
737,1715729319170,3.476221625,-1.366200575,-2.476937625,3.476221625,-1.366200575,-2.476937625
738,1715729319180,3.339069,-1.4612755,-4.5694485,3.339069,-1.4612755,-4.5694485
739,1715729319190,2.9599681749999998,-1.128447155,-4.98823025,2.9599681749999998,-1.128447155,-4.98823025
740,1715729319200,2.098436,-0.38029911999999993,-5.843104399999999,2.098436,-0.38029911999999993,-5.843104399999999
741,1715729319210,1.5978955,0.07017424,-6.233923,1.5978955,0.07017424,-6.233923
742,1715729319220,1.5978955,0.07017424,-6.233923,1.5978955,0.07017424,-6.233923
743,1715729319230,1.426388,0.25979117,-6.844185999999999,1.426388,0.25979117,-6.844185999999999
744,1715729319240,1.539732,0.1490037508,-6.9592339999999995,1.539732,0.1490037508,-6.9592339999999995
745,1715729319250,2.2772675,-0.5837645,-7.3521833,2.2772675,-0.5837645,-7.3521833
746,1715729319260,2.8046795,-1.09146906,-7.5345564199999995,2.8046795,-1.09146906,-7.5345564199999995
747,1715729319270,2.99213924,-1.2776238599999998,-7.603159359999999,2.99213924,-1.2776238599999998,-7.603159359999999
748,1715729319280,3.4083111,-1.7998961000000002,-7.8219647,3.4083111,-1.7998961000000002,-7.8219647
749,1715729319290,3.4743574,-2.0310583,-7.9422064,3.4743574,-2.0310583,-7.9422064
750,1715729319300,3.48287948,-2.15292446,-7.997599679999999,3.48287948,-2.15292446,-7.997599679999999
751,1715729319310,3.4977932000000003,-2.36821428,-8.0779208,3.4977932000000003,-2.36821428,-8.0779208
752,1715729319320,3.5009889999999997,-2.4144201,-8.094539,3.5009889999999997,-2.4144201,-8.094539
753,1715729319330,3.56224155,-2.80956625,-8.1323565,3.56224155,-2.80956625,-8.1323565
754,1715729319340,3.683149,-3.3155,-8.074299,3.683149,-3.3155,-8.074299
755,1715729319350,3.9770286,-3.8947370000000006,-7.897465,3.9770286,-3.8947370000000006,-7.897465
756,1715729319360,4.0681089,-4.1208392,-7.7769238750000005,4.0681089,-4.1208392,-7.7769238750000005
757,1715729319370,4.098469,-4.1962066,-7.7367435,4.098469,-4.1962066,-7.7367435
758,1715729319380,3.93889214,-4.4830822800000005,-7.3800934400000004,3.93889214,-4.4830822800000005,-7.3800934400000004
759,1715729319390,3.87316535,-4.5081958250000005,-7.31200305,3.87316535,-4.5081958250000005,-7.31200305
760,1715729319400,3.376353,-4.334691,-7.123285,3.376353,-4.334691,-7.123285
761,1715729319410,2.9919262,-4.216447,-7.050847,2.9919262,-4.216447,-7.050847
762,1715729319420,2.77892668,-4.184489,-7.011219200000001,2.77892668,-4.184489,-7.011219200000001
763,1715729319430,1.9678082799999999,-4.1288820799999995,-6.827354700000001,1.9678082799999999,-4.1288820799999995,-6.827354700000001
764,1715729319440,1.4274533,-4.197272,-6.644049,1.4274533,-4.197272,-6.644049
765,1715729319450,1.0036116,-4.3165812,-6.3660154,1.0036116,-4.3165812,-6.3660154
766,1715729319460,0.9705883,-4.1099205,-6.12966,0.9705883,-4.1099205,-6.12966
767,1715729319470,0.99828515,-3.8921405,-6.0316557,0.99828515,-3.8921405,-6.0316557
768,1715729319480,1.0398304,-2.6370602,-5.4725256,1.0398304,-2.6370602,-5.4725256
769,1715729319490,0.9934914775,-2.26964405,-5.2640004000000005,0.9934914775,-2.26964405,-5.2640004000000005
770,1715729319500,0.4934834,-0.5837645,-4.1369514,0.4934834,-0.5837645,-4.1369514
771,1715729319510,0.07600656400000001,0.28016432399999996,-3.6147590800000002,0.07600656400000001,0.28016432399999996,-3.6147590800000002
772,1715729319520,-0.28165570300000004,1.017166998,-3.2633019599999997,-0.28165570300000004,1.017166998,-3.2633019599999997
773,1715729319530,-0.9006804,2.2949774,-2.7141585,-0.9006804,2.2949774,-2.7141585
774,1715729319540,-0.9973530749999999,2.4627563749999997,-2.5727448,-0.9973530749999999,2.4627563749999997,-2.5727448
775,1715729319550,-1.2233222,2.6953833,-1.9451714,-1.2233222,2.6953833,-1.9451714
776,1715729319560,-1.1917903600000002,2.6187908999999996,-1.3198616399999998,-1.1917903600000002,2.6187908999999996,-1.3198616399999998
777,1715729319570,-1.1684611,2.5889901,-0.97238595,-1.1684611,2.5889901,-0.97238595
778,1715729319580,-1.287238,2.924415,0.5149218,-1.287238,2.924415,0.5149218
779,1715729319590,-1.302950625,2.9497150000000003,0.574576575,-1.302950625,2.9497150000000003,0.574576575
780,1715729319600,-1.72868985,3.5048839000000003,1.9173081749999998,-1.72868985,3.5048839000000003,1.9173081749999998
781,1715729319610,-2.1658142,3.9851513,3.294594,-2.1658142,3.9851513,3.294594
782,1715729319620,-2.1658142,3.9851513,3.294594,-2.1658142,3.9851513,3.294594
783,1715729319630,-2.1658142,3.9851513,3.294594,-2.1658142,3.9851513,3.294594
784,1715729319640,-2.6323996,4.2950096,4.879307,-2.6323996,4.2950096,4.879307
785,1715729319650,-3.3671653,4.1087217,5.885715,-3.3671653,4.1087217,5.885715
786,1715729319660,-3.6324157999999995,3.9798249999999995,6.0348516,-3.6324157999999995,3.9798249999999995,6.0348516
787,1715729319670,-3.85845135,3.8368466249999997,6.0928752,-3.85845135,3.8368466249999997,6.0928752
788,1715729319680,-4.938329100000001,2.8910922,6.213416475000001,-4.938329100000001,2.8910922,6.213416475000001
789,1715729319690,-5.255178525,1.9643128650000001,6.1727034750000005,-5.255178525,1.9643128650000001,6.1727034750000005
790,1715729319700,-5.45415,0.11113362800000001,6.26630684,-5.45415,0.11113362800000001,6.26630684
791,1715729319710,-5.20115,-1.0715221,6.566285,-5.20115,-1.0715221,6.566285
792,1715729319720,-4.9974516,-1.40990975,6.7204486249999995,-4.9974516,-1.40990975,6.7204486249999995
793,1715729319730,-3.4257548,-3.1972556,7.7207646,-3.4257548,-3.1972556,7.7207646
794,1715729319740,-2.8591677,-3.3979913,7.990209800000001,-2.8591677,-3.3979913,7.990209800000001
795,1715729319750,-0.40333545,-3.0630324,8.926244,-0.40333545,-3.0630324,8.926244
796,1715729319760,0.05672529,-2.0236015,8.932635,0.05672529,-2.0236015,8.932635
797,1715729319770,0.05672529,-2.0236015,8.932635,0.05672529,-2.0236015,8.932635
798,1715729319780,-0.887031675,-0.2631866975,8.076396125,-0.887031675,-0.2631866975,8.076396125
799,1715729319790,-2.595548075,0.8641285750000001,6.99834945,-2.595548075,0.8641285750000001,6.99834945
800,1715729319800,-3.779289,1.5440997,6.294643,-3.779289,1.5440997,6.294643
801,1715729319810,-5.0424256,2.1703415,5.700359,-5.0424256,2.1703415,5.700359
802,1715729319820,-5.1855704,2.24554912,5.64989214,-5.1855704,2.24554912,5.64989214
803,1715729319830,-6.2320585,2.892457,5.3905005,-6.2320585,2.892457,5.3905005
804,1715729319840,-6.17133844,3.01773202,5.5049097,-6.17133844,3.01773202,5.5049097
805,1715729319850,-5.34496,3.2992547,6.360689,-5.34496,3.2992547,6.360689
806,1715729319860,-4.4342933,3.135337,7.307442,-4.4342933,3.135337,7.307442
807,1715729319870,-4.00406,2.8700867,7.6483264,-4.00406,2.8700867,7.6483264
808,1715729319880,-3.6238937,2.220409,7.861246,-3.6238937,2.220409,7.861246
809,1715729319890,-3.5518818199999997,1.9205372400000003,7.8237488,-3.5518818199999997,1.9205372400000003,7.8237488
810,1715729319900,-3.212702,-0.33342752,6.6557674,-3.212702,-0.33342752,6.6557674
811,1715729319910,-3.212702,-0.33342752000000003,6.655767399999999,-3.212702,-0.33342752000000003,6.655767399999999
812,1715729319920,-3.1790663,-0.5419528760000001,6.28300502,-3.1790663,-0.5419528760000001,6.28300502
813,1715729319930,-2.8304055,-1.0938926,3.961316,-2.8304055,-1.0938926,3.961316
814,1715729319940,-2.755604,-0.96875741,3.85319175,-2.755604,-0.96875741,3.85319175
815,1715729319950,-1.4416212800000001,0.598917872,2.8595937200000003,-1.4416212800000001,0.598917872,2.8595937200000003
816,1715729319960,-0.5384908,1.435576,2.3552978,-0.5384908,1.435576,2.3552978
817,1715729319970,-0.30570406000000006,1.6441013599999998,2.12930214,-0.30570406000000006,1.6441013599999998,2.12930214
818,1715729319980,1.6563518,3.0192235,-0.3519365,1.6563518,3.0192235,-0.3519365
819,1715729319990,1.6563518,3.0192235,-0.3519365,1.6563518,3.0192235,-0.3519365
820,1715729320000,3.3212524,2.4790016799999997,-2.96782428,3.3212524,2.4790016799999997,-2.96782428
821,1715729320010,4.2602892500000005,2.0535287,-4.34600925,4.2602892500000005,2.0535287,-4.34600925
822,1715729320020,4.827934600000001,1.7776053600000001,-5.508691600000001,4.827934600000001,1.7776053600000001,-5.508691600000001
823,1715729320030,4.926478025,1.73105335,-5.9149765,4.926478025,1.73105335,-5.9149765
824,1715729320040,4.789052379999999,1.80935032,-6.413712799999999,4.789052379999999,1.80935032,-6.413712799999999
825,1715729320050,4.1378837,2.116013,-7.572692999999999,4.1378837,2.116013,-7.572692999999999
826,1715729320060,4.1378837,2.116013,-7.572693,4.1378837,2.116013,-7.572693
827,1715729320070,4.3273673,1.3343759,-8.191478,4.3273673,1.3343759,-8.191478
828,1715729320080,4.6906223,0.72091717,-8.355529,4.6906223,0.72091717,-8.355529
829,1715729320090,4.85991932,0.428901772,-8.3886853,4.85991932,0.428901772,-8.3886853
830,1715729320100,5.4456277,-0.735964,-8.391614,5.4456277,-0.735964,-8.391614
831,1715729320110,5.608613,-1.1343726,-8.312918,5.608613,-1.1343726,-8.312918
832,1715729320120,5.64003825,-1.2509857,-8.273237,5.64003825,-1.2509857,-8.273237
833,1715729320130,5.7769246,-2.0353193,-7.9272923,5.7769246,-2.0353193,-7.9272923
834,1715729320140,5.7909862599999995,-2.25894476,-7.80401492,5.7909862599999995,-2.25894476,-7.80401492
835,1715729320150,5.880255,-3.2483883,-7.338335,5.880255,-3.2483883,-7.338335
836,1715729320160,6.113415,-4.2313604,-6.926211,6.113415,-4.2313604,-6.926211
837,1715729320170,6.271074,-4.779838,-6.679202999999999,6.271074,-4.779838,-6.679202999999999
838,1715729320180,6.417015,-5.4177976,-6.3969083,6.417015,-5.4177976,-6.3969083
839,1715729320190,6.41666,-5.528895733333333,-6.3376529999999995,6.41666,-5.528895733333333,-6.3376529999999995
840,1715729320200,6.137916,-6.0769296,-5.950696,6.137916,-6.0769296,-5.950696
841,1715729320210,5.6853123,-6.162150999999999,-5.7674704,5.6853123,-6.162150999999999,-5.7674704
842,1715729320220,5.0686574,-5.9833198,-5.562008,5.0686574,-5.9833198,-5.562008
843,1715729320230,4.359325,-5.598759,-5.277582,4.359325,-5.598759,-5.277582
844,1715729320240,4.09467365,-5.4145351999999995,-5.15034975,4.09467365,-5.4145351999999995,-5.15034975
845,1715729320250,3.1910771,-4.55386908,-4.6491035,3.1910771,-4.55386908,-4.6491035
846,1715729320260,2.4821530666666667,-3.6779116333333337,-4.347518399999999,2.4821530666666667,-3.6779116333333337,-4.347518399999999
847,1715729320270,1.8353161,-2.8606324,-4.1539955,1.8353161,-2.8606324,-4.1539955
848,1715729320280,1.3777853800000002,-2.30264728,-4.13013382,1.3777853800000002,-2.30264728,-4.13013382
849,1715729320290,1.09088326,-1.9740134400000002,-4.14121248,1.09088326,-1.9740134400000002,-4.14121248
850,1715729320300,-0.07736477,-0.77537876,-4.402202,-0.07736477,-0.77537876,-4.402202
851,1715729320310,-0.16940355199999999,-0.6763891639999999,-4.4207374999999995,-0.16940355199999999,-0.6763891639999999,-4.4207374999999995
852,1715729320320,-1.0125331,0.4599276,-4.3808966,-1.0125331,0.4599276,-4.3808966
853,1715729320330,-1.3692633,1.0456895,-3.9559896,-1.3692633,1.0456895,-3.9559896
854,1715729320340,-1.49262078,1.24127186,-3.6473562,-1.49262078,1.24127186,-3.6473562
855,1715729320350,-1.7515597,1.4792517,-2.473409,-1.7515597,1.4792517,-2.473409
856,1715729320360,-1.7686039399999998,1.4502765,-2.22466988,-1.7686039399999998,1.4502765,-2.22466988
857,1715729320370,-1.8144103,1.2630032,-1.5607444,-1.8144103,1.2630032,-1.5607444
858,1715729320380,-1.8836524666666667,1.28608395,-1.2998658166666666,-1.8836524666666667,1.28608395,-1.2998658166666666
859,1715729320390,-1.9546700666666668,1.3684643333333335,-1.14187389,-1.9546700666666668,1.3684643333333335,-1.14187389
860,1715729320400,-2.5237427,2.176733,-0.085753724,-2.5237427,2.176733,-0.085753724
861,1715729320410,-2.6455023,2.337801,0.28570369519999994,-2.6455023,2.337801,0.28570369519999994
862,1715729320420,-2.8581023,2.5027037,1.6449002,-2.8581023,2.5027037,1.6449002
863,1715729320430,-2.6876602,2.3152173,2.897384,-2.6876602,2.3152173,2.897384
864,1715729320440,-2.6876602,2.3152173,2.897384,-2.6876602,2.3152173,2.897384
865,1715729320450,-2.5535368,2.1889836000000003,3.409309625,-2.5535368,2.1889836000000003,3.409309625
866,1715729320460,-2.3334156333333333,1.8093502333333333,4.729859266666666,-2.3334156333333333,1.8093502333333333,4.729859266666666
867,1715729320470,-2.4992416,1.4781865,5.466134,-2.4992416,1.4781865,5.466134
868,1715729320480,-2.7377276,1.1916305,5.840974,-2.7377276,1.1916305,5.840974
869,1715729320490,-2.8336012999999998,1.0223202,5.96401175,-2.8336012999999998,1.0223202,5.96401175
870,1715729320500,-3.0605025,0.3173154,6.399039,-3.0605025,0.3173154,6.399039
871,1715729320510,-3.0051088,-0.12250532,6.6728115,-3.0051088,-0.12250532,6.6728115
872,1715729320520,-2.5525048,-0.84675145,7.3276825,-2.5525048,-0.84675145,7.3276825
873,1715729320530,-1.615206,-1.3398353,8.194674,-1.615206,-1.3398353,8.194674
874,1715729320540,-1.21972686,-1.3609275200000002,8.4994722,-1.21972686,-1.3609275200000002,8.4994722
875,1715729320550,-0.25952485,-0.9948231,9.234105,-0.25952485,-0.9948231,9.234105
876,1715729320560,-0.10506162499999999,-0.6983247083333333,9.356499166666667,-0.10506162499999999,-0.6983247083333333,9.356499166666667
877,1715729320570,-0.3639207,0.7954856,9.321456,-0.3639207,0.7954856,9.321456
878,1715729320580,-1.06337278,1.66282328,8.9788672,-1.06337278,1.66282328,8.9788672
879,1715729320590,-1.60713668,2.1910343,8.7023784,-1.60713668,2.1910343,8.7023784
880,1715729320600,-3.746099525,3.5766893,7.6197645,-3.746099525,3.5766893,7.6197645
881,1715729320610,-4.81472542,4.1223572,7.097052639999999,-4.81472542,4.1223572,7.097052639999999
882,1715729320620,-6.0531476,4.6141893199999995,6.56668466,-6.0531476,4.6141893199999995,6.56668466
883,1715729320630,-6.81587648,4.815417760000001,6.338318599999999,-6.81587648,4.815417760000001,6.338318599999999
884,1715729320640,-7.1404624,4.877576,6.263749999999999,-7.1404624,4.877576,6.263749999999999
885,1715729320650,-7.166294925,4.807568175,6.305827925,-7.166294925,4.807568175,6.305827925
886,1715729320660,-7.08460225,4.4143193499999995,6.42460485,-7.08460225,4.4143193499999995,6.42460485
887,1715729320670,-6.0214292,3.34255768,6.042282,-6.0214292,3.34255768,6.042282
888,1715729320680,-5.12570238,2.29899872,5.6180139,-5.12570238,2.29899872,5.6180139
889,1715729320690,-4.70905124,1.7004536600000002,5.43907628,-4.70905124,1.7004536600000002,5.43907628
890,1715729320700,-3.3394682,-0.65287346,5.114597,-3.3394682,-0.65287346,5.114597
891,1715729320710,-2.62431035,-1.82173395,5.0297753499999995,-2.62431035,-1.82173395,5.0297753499999995
892,1715729320720,-2.3703449,-2.110953,4.9826374,-2.3703449,-2.110953,4.9826374
893,1715729320730,-2.45130474,-1.8936393200000001,4.969002120000001,-2.45130474,-1.8936393200000001,4.969002120000001
894,1715729320740,-2.4715447,-1.8393109,4.9655933,-2.4715447,-1.8393109,4.9655933
895,1715729320750,-3.831487,-0.21837904999999996,4.894221,-3.831487,-0.21837904999999996,4.894221
896,1715729320760,-4.06328836,0.05507413400000001,4.8098519600000005,-4.06328836,0.05507413400000001,4.8098519600000005
897,1715729320770,-3.7984637999999995,0.62717396,4.261587,-3.7984637999999995,0.62717396,4.261587
898,1715729320780,-2.2968416,0.76778877,3.6609116,-2.2968416,0.76778877,3.6609116
899,1715729320790,-1.63824236,0.780571942,3.4381117199999998,-1.63824236,0.780571942,3.4381117199999998
900,1715729320800,2.263419,0.46099284,1.9781945999999997,2.263419,0.46099284,1.9781945999999997
901,1715729320810,3.06935745,0.2525673525,1.583614275,3.06935745,0.2525673525,1.583614275
902,1715729320820,5.406745519999999,-0.481419242,-0.16668714,5.406745519999999,-0.481419242,-0.16668714
903,1715729320830,6.733265,-0.86699146,-1.7375782,6.733265,-0.86699146,-1.7375782
904,1715729320840,6.944134,-0.922811276,-2.3241655999999997,6.944134,-0.922811276,-2.3241655999999997
905,1715729320850,7.025014400000001,-1.192829,-4.646014,7.025014400000001,-1.192829,-4.646014
906,1715729320860,6.825037760000001,-1.2247869200000001,-4.9035949,6.825037760000001,-1.2247869200000001,-4.9035949
907,1715729320870,5.632049,-1.1693932,-5.935782,5.632049,-1.1693932,-5.935782
908,1715729320880,4.9344344,-0.9831052,-6.509826000000001,4.9344344,-0.9831052,-6.509826000000001
909,1715729320890,4.77640264,-0.906406224,-6.71686,4.77640264,-0.906406224,-6.71686
910,1715729320900,4.440285,-0.71678925,-7.4672318,4.440285,-0.71678925,-7.4672318
911,1715729320910,4.470822666666667,-0.7565591,-7.562040200000001,4.470822666666667,-0.7565591,-7.562040200000001
912,1715729320920,4.920586,-1.3313133,-8.176564,4.920586,-1.3313133,-8.176564
913,1715729320930,5.24527824,-1.70703178,-8.3852496,5.24527824,-1.70703178,-8.3852496
914,1715729320940,5.3916188400000005,-1.8982998600000003,-8.4770488,5.3916188400000005,-1.8982998600000003,-8.4770488
915,1715729320950,5.7769246,-2.6615613,-8.772979,5.7769246,-2.6615613,-8.772979
916,1715729320960,5.76584596,-2.92564018,-8.8633134,5.76584596,-2.92564018,-8.8633134
917,1715729320970,5.4200616,-3.6210973,-8.986963,5.4200616,-3.6210973,-8.986963
918,1715729320980,5.356252,-3.6960920199999996,-8.995485400000002,5.356252,-3.6960920199999996,-8.995485400000002
919,1715729320990,5.17708135,-3.8543570249999997,-8.98563175,5.17708135,-3.8543570249999997,-8.98563175
920,1715729321000,4.238018,-4.5316315,-8.742086,4.238018,-4.5316315,-8.742086
921,1715729321010,4.0143127,-4.64668,-8.590818,4.0143127,-4.64668,-8.590818
922,1715729321020,3.5105762000000005,-4.925779,-8.008252,3.5105762000000005,-4.925779,-8.008252
923,1715729321030,3.38381,-5.022585,-7.6813498,3.38381,-5.022585,-7.6813498
924,1715729321040,3.3216518,-5.04815124,-7.430427079999999,3.3216518,-5.04815124,-7.430427079999999
925,1715729321050,3.10399186,-5.07030892,-6.59054644,3.10399186,-5.07030892,-6.59054644
926,1715729321060,3.03453668,-5.05773872,-6.34774618,3.03453668,-5.05773872,-6.34774618
927,1715729321070,2.6863286,-5.005541,-5.13497,2.6863286,-5.005541,-5.13497
928,1715729321080,2.617619125,-4.99488825,-4.9733495,2.617619125,-4.99488825,-4.9733495
929,1715729321090,2.4114907,-4.96293,-4.488488,2.4114907,-4.96293,-4.488488
930,1715729321100,1.7561759333333333,-4.666564733333334,-3.8626016,1.7561759333333333,-4.666564733333334,-3.8626016
931,1715729321110,1.3954954,-4.465585,-3.6950002,1.3954954,-4.465585,-3.6950002
932,1715729321120,-0.555535,-2.8212175,-3.7844822000000002,-0.555535,-2.8212175,-3.7844822000000002
933,1715729321130,-1.4779202,-1.5496923,-3.8654423,-1.4779202,-1.5496923,-3.8654423
934,1715729321140,-1.762026,-1.040176692,-3.8535113800000005,-1.762026,-1.040176692,-3.8535113800000005
935,1715729321150,-2.5237427,0.83916146,-3.7408063,-2.5237427,0.83916146,-3.7408063
936,1715729321160,-2.512823775,1.01406442,-3.6699995750000003,-2.512823775,1.01406442,-3.6699995750000003
937,1715729321170,-1.9976356,2.38659,-2.6118932,-1.9976356,2.38659,-2.6118932
938,1715729321180,-1.4150696,2.6474464,-1.7492961,-1.4150696,2.6474464,-1.7492961
939,1715729321190,-1.13647652,2.52033388,-1.2182355,-1.13647652,2.52033388,-1.2182355
940,1715729321200,-0.7964976399999999,2.11611964,-0.11446257200000001,-0.7964976399999999,2.11611964,-0.11446257200000001
941,1715729321210,-0.79330184,2.0338813,0.47550707000000003,-0.79330184,2.0338813,0.47550707000000003
942,1715729321220,-0.9092025,2.1106868,1.1560774,-0.9092025,2.1106868,1.1560774
943,1715729321230,-1.1253179,2.2640848,1.9302577,-1.1253179,2.2640848,1.9302577
944,1715729321240,-1.27445478,2.3194784,2.49261034,-1.27445478,2.3194784,2.49261034
945,1715729321250,-1.5727286,2.3269353,3.864377,-1.5727286,2.3269353,3.864377
946,1715729321260,-1.636577825,2.251834225,4.431729825,-1.636577825,2.251834225,4.431729825
947,1715729321270,-1.7430376,2.0776637,5.4714603,-1.7430376,2.0776637,5.4714603
948,1715729321280,-1.8868482,1.7955018,6.111551000000001,-1.8868482,1.7955018,6.111551000000001
949,1715729321290,-1.9686605199999998,1.65110536,6.3300898000000005,-1.9686605199999998,1.65110536,6.3300898000000005
950,1715729321300,-2.2861888,0.9913609600000001,7.096653,-2.2861888,0.9913609600000001,7.096653
951,1715729321310,-2.3799322,0.60480344,7.383076,-2.3799322,0.60480344,7.383076
952,1715729321320,-2.31069,-0.115048476,7.8495283,-2.31069,-0.115048476,7.8495283
953,1715729321330,-2.0747341599999998,-0.5793968952,8.18103846,-2.0747341599999998,-0.5793968952,8.18103846
954,1715729321340,-1.6318174875,-1.01419755,8.6307995,-1.6318174875,-1.01419755,8.6307995
955,1715729321350,-0.9614004499999999,-1.4708627000000003,9.242627,-0.9614004499999999,-1.4708627000000003,9.242627
956,1715729321360,-0.5438171,-1.3845764,9.514136,-0.5438171,-1.3845764,9.514136
957,1715729321370,-0.08375636,-0.69654924,9.63025,-0.08375636,-0.69654924,9.63025
958,1715729321380,-0.23928484,0.015845796,9.419328,-0.23928484,0.015845796,9.419328
959,1715729321390,-0.9036099,0.720677472,8.9921034,-0.9036099,0.720677472,8.9921034
960,1715729321400,-1.6524903,1.3290496,8.535425,-1.6524903,1.3290496,8.535425
961,1715729321410,-2.4651532,1.848765,8.05832,-2.4651532,1.848765,8.05832
962,1715729321420,-4.0424094,2.665556,7.0828047,-4.0424094,2.665556,7.0828047
963,1715729321430,-4.672912,3.0075057,6.655767399999999,-4.672912,3.0075057,6.655767399999999
964,1715729321440,-5.125915600000001,3.40050792,6.35280616,-5.125915600000001,3.40050792,6.35280616
965,1715729321450,-5.768802,4.1651807,5.994372,-5.768802,4.1651807,5.994372
966,1715729321460,-5.841506475,4.2953093,5.981588475,-5.841506475,4.2953093,5.981588475
967,1715729321470,-5.90196,4.5400205,6.1753335,-5.90196,4.5400205,6.1753335
968,1715729321480,-5.84124,4.4041993999999995,6.30636095,-5.84124,4.4041993999999995,6.30636095
969,1715729321490,-5.703022,4.094274225,6.490118799999999,-5.703022,4.094274225,6.490118799999999
970,1715729321500,-4.907137,2.4089606,6.703570999999999,-4.907137,2.4089606,6.703570999999999
971,1715729321510,-4.7229795,2.0447736,6.683331,-4.7229795,2.0447736,6.683331
972,1715729321520,-3.2883358,-0.15552849,6.1881166,-3.2883358,-0.15552849,6.1881166
973,1715729321530,-2.4129553,-1.3174648,5.44909,-2.4129553,-1.3174648,5.44909
974,1715729321540,-2.0061576,-1.8286582,4.5778375,-2.0061576,-1.8286582,4.5778375
975,1715729321550,-2.20035528,-1.68218444,4.00110366,-2.20035528,-1.68218444,4.00110366
976,1715729321560,-2.601939675,-1.280546775,3.5661031249999997,-2.601939675,-1.280546775,3.5661031249999997
977,1715729321570,-3.0958224999999997,-0.32577094,3.151282825,-3.0958224999999997,-0.32577094,3.151282825
978,1715729321580,-2.9113655,0.67404556,2.6491776,-2.9113655,0.67404556,2.6491776
979,1715729321590,-1.9426147,0.9066991119999999,2.11494784,-1.9426147,0.9066991119999999,2.11494784
980,1715729321600,0.2793654,0.87857616,1.0527468,0.2793654,0.87857616,1.0527468
981,1715729321610,1.4878737,0.69322032,0.39221676,1.4878737,0.69322032,0.39221676
982,1715729321620,4.067576,0.23529011,-1.4073465,4.067576,0.23529011,-1.4073465
983,1715729321630,5.0612006,-0.049135286,-2.667287,5.0612006,-0.049135286,-2.667287
984,1715729321640,5.0612006,-0.049135286,-2.667287,5.0612006,-0.049135286,-2.667287
985,1715729321650,5.4040823,-0.3195791,-4.847349,5.4040823,-0.3195791,-4.847349
986,1715729321660,5.4040823,-0.3195791,-4.847349,5.4040823,-0.3195791,-4.847349
987,1715729321670,4.557508466666667,-0.5723129,-6.042974133333334,4.557508466666667,-0.5723129,-6.042974133333334
988,1715729321680,3.8449359999999997,-0.68163556,-6.728205,3.8449359999999997,-0.68163556,-6.728205
989,1715729321690,3.304481,-0.6824344975,-7.330445225,3.304481,-0.6824344975,-7.330445225
990,1715729321700,3.1687598,-0.71998507,-7.555649,3.1687598,-0.71998507,-7.555649
991,1715729321710,3.1723106,-0.7853212233333333,-7.679219333333333,3.1723106,-0.7853212233333333,-7.679219333333333
992,1715729321720,3.4264205,-1.2237216,-7.974164,3.4264205,-1.2237216,-7.974164
993,1715729321730,3.6980627,-1.6114776,-8.044472,3.6980627,-1.6114776,-8.044472
994,1715729321740,4.1219044,-2.1972394,-8.05619,4.1219044,-2.1972394,-8.05619
995,1715729321750,4.5148535,-2.7839334,-7.97736,4.5148535,-2.7839334,-7.97736
996,1715729321760,4.5148535,-2.7839334,-7.97736,4.5148535,-2.7839334,-7.97736
997,1715729321770,4.8651924,-3.5795522,-7.646196,4.8651924,-3.5795522,-7.646196
998,1715729321780,4.82780168,-3.69545284,-7.5251824,4.82780168,-3.69545284,-7.5251824
999,1715729321790,4.329498,-3.615771,-7.324486300000001,4.329498,-3.615771,-7.324486300000001
1000,1715729321800,3.9273608799999997,-3.4529988400000002,-7.30499198,3.9273608799999997,-3.4529988400000002,-7.30499198
1001,1715729321810,3.74908898,-3.37334378,-7.3017962,3.74908898,-3.37334378,-7.3017962
1002,1715729321820,2.870486,-2.8563714,-7.3692274,2.870486,-2.8563714,-7.3692274
1003,1715729321830,2.68651496,-2.63916404,-7.406724679999999,2.68651496,-2.63916404,-7.406724679999999
1004,1715729321840,2.4178822,-2.1173446,-7.448057,2.4178822,-2.1173446,-7.448057
1005,1715729321850,2.2815285,-1.7945696999999998,-7.3702927,2.2815285,-1.7945696999999998,-7.3702927
1006,1715729321860,2.25809265,-1.7525251000000002,-7.3404986,2.25809265,-1.7525251000000002,-7.3404986
1007,1715729321870,2.081392,-1.4751239,-6.8804045,2.081392,-1.4751239,-6.8804045
1008,1715729321880,2.075799375,-1.47272705,-6.8330336250000006,2.075799375,-1.47272705,-6.8330336250000006
1009,1715729321890,1.9887141,-1.6956333999999997,-6.0998325,1.9887141,-1.6956333999999997,-6.0998325
1010,1715729321900,1.9887141,-1.7347286,-6.02824706,1.9887141,-1.7347286,-6.02824706
1011,1715729321910,1.9887141,-1.7445024,-6.0103507,1.9887141,-1.7445024,-6.0103507
1012,1715729321920,1.92820708,-1.46167482,-5.11896454,1.92820708,-1.46167482,-5.11896454
1013,1715729321930,1.7977655750000001,-1.1902656999999999,-4.8670565,1.7977655750000001,-1.1902656999999999,-4.8670565
1014,1715729321940,0.87577987,-0.13315795,-3.9421413000000003,0.87577987,-0.13315795,-3.9421413000000003
1015,1715729321950,0.28983160360000004,0.29427907999999997,-3.4251421199999994,0.28983160360000004,0.29427907999999997,-3.4251421199999994
1016,1715729321960,-0.455999402,0.861998,-2.74185535,-0.455999402,0.861998,-2.74185535
1017,1715729321970,-1.557815,2.1703415,-1.5202644,-1.557815,2.1703415,-1.5202644
1018,1715729321980,-1.6286816000000002,2.37934622,-1.36438974,-1.6286816000000002,2.37934622,-1.36438974
1019,1715729321990,-1.5002906,3.0426593,-0.5777724,-1.5002906,3.0426593,-0.5777724
1020,1715729322000,-1.26763708,2.8756258600000004,-0.150069024,-1.26763708,2.8756258600000004,-0.150069024
1021,1715729322010,-1.07029035,2.538889425,0.46778388000000004,-1.07029035,2.538889425,0.46778388000000004
1022,1715729322020,-0.9763141000000001,2.2097564,1.1592731,-0.9763141000000001,2.2097564,1.1592731
1023,1715729322030,-0.9938909499999999,2.1666131,1.3005870499999999,-0.9938909499999999,2.1666131,1.3005870499999999
1024,1715729322040,-1.3660674,1.8285250999999998,2.6076322,-1.3660674,1.8285250999999998,2.6076322
1025,1715729322050,-1.6799541,1.59133745,3.4087771,-1.6799541,1.59133745,3.4087771
1026,1715729322060,-1.8757695600000002,1.41725338,3.91481724,-1.8757695600000002,1.41725338,3.91481724
1027,1715729322070,-2.26640164,0.927977788,4.9974714,-2.26640164,0.927977788,4.9974714
1028,1715729322080,-2.37220895,0.77178349,5.3063445,-2.37220895,0.77178349,5.3063445
1029,1715729322090,-2.3863237,0.748614,5.348955,-2.3863237,0.748614,5.348955
1030,1715729322100,-2.85767622,-0.23971094600000004,6.84676908,-2.85767622,-0.23971094600000004,6.84676908
1031,1715729322110,-2.888995,-0.32384014,6.951777500000001,-2.888995,-0.32384014,6.951777500000001
1032,1715729322120,-2.9326708,-1.1610042,7.7952,-2.9326708,-1.1610042,7.7952
1033,1715729322130,-2.7750118,-1.7924392,8.224501,-2.7750118,-1.7924392,8.224501
1034,1715729322140,-2.3533006,-2.4644876,8.588688,-2.3533006,-2.4644876,8.588688
1035,1715729322150,-1.6897744,-2.939462,8.881502,-1.6897744,-2.939462,8.881502
1036,1715729322160,-1.5630612799999999,-2.95352344,8.909199,-1.5630612799999999,-2.95352344,8.909199
1037,1715729322170,-0.7547393,-2.7158897,8.942223,-0.7547393,-2.7158897,8.942223
1038,1715729322180,-0.7713573979999999,-2.5803880999999995,8.877667800000001,-0.7713573979999999,-2.5803880999999995,8.877667800000001
1039,1715729322190,-1.6205323,-1.7020249,8.360722,-1.6205323,-1.7020249,8.360722
1040,1715729322200,-2.578071,-1.2237216,8.131824,-2.578071,-1.2237216,8.131824
1041,1715729322210,-2.8496244666666666,-1.1062319,8.080336,-2.8496244666666666,-1.1062319,8.080336
1042,1715729322220,-3.762245,-0.65500396,7.807983,-3.762245,-0.65500396,7.807983
1043,1715729322230,-3.7769456,-0.621208504,7.7690742,-3.7769456,-0.621208504,7.7690742
1044,1715729322240,-3.4321463000000003,-0.31531805,7.773895,-3.4321463000000003,-0.31531805,7.773895
1045,1715729322250,-3.09033,0.050999496,7.821831,-3.09033,0.050999496,7.821831
1046,1715729322260,-3.064763625,0.161220992,7.788574875,-3.064763625,0.161220992,7.788574875
1047,1715729322270,-3.1841395833333332,0.9525010799999999,7.321290666666667,-3.1841395833333332,0.9525010799999999,7.321290666666667
1048,1715729322280,-3.39379676,1.3045485199999998,6.991378299999999,-3.39379676,1.3045485199999998,6.991378299999999
1049,1715729322290,-4.3437457,2.4696805,5.875062,-4.3437457,2.4696805,5.875062
1050,1715729322300,-4.801276339999999,2.9698218599999997,5.49337824,-4.801276339999999,2.9698218599999997,5.49337824
1051,1715729322310,-5.0370991499999995,3.2274159,5.34948765,-5.0370991499999995,3.2274159,5.34948765
1052,1715729322320,-4.8496127,2.657034,5.4586773,-4.8496127,2.657034,5.4586773
1053,1715729322330,-4.503768425,2.109954375,5.49542895,-4.503768425,2.109954375,5.49542895
1054,1715729322340,-2.0061576,-0.82651144,5.2232537,-2.0061576,-0.82651144,5.2232537
1055,1715729322350,-0.733434,-2.038515,4.8537407,-0.733434,-2.038515,4.8537407
1056,1715729322360,0.09966873,-2.7493787999999997,4.412821175,0.09966873,-2.7493787999999997,4.412821175
1057,1715729322370,0.5374787839999999,-2.98377676,3.76570696,0.5374787839999999,-2.98377676,3.76570696
1058,1715729322380,0.35926017,-2.2919147,3.2871373,0.35926017,-2.2919147,3.2871373
1059,1715729322390,-0.20413113999999996,0.03395528,2.845186,-0.20413113999999996,0.03395528,2.845186
1060,1715729322400,-0.27017748,1.092561,2.6694176,-0.27017748,1.092561,2.6694176
1061,1715729322410,-0.19111494750000002,1.304515175,2.5695824,-0.19111494750000002,1.304515175,2.5695824
1062,1715729322420,0.9270456499999999,1.9131069799999998,1.5790402399999999,0.9270456499999999,1.9131069799999998,1.5790402399999999
1063,1715729322430,1.636944025,1.73371655,1.068426125,1.636944025,1.73371655,1.068426125
1064,1715729322440,3.6511912,0.87218463,-0.65979767,3.6511912,0.87218463,-0.65979767
1065,1715729322450,4.273172,0.76565826,-1.4851105999999998,4.273172,0.76565826,-1.4851105999999998
1066,1715729322460,4.485093,0.8939559300000001,-1.9750654,4.485093,0.8939559300000001,-1.9750654
1067,1715729322470,4.62138,1.4483591,-3.3190950999999997,4.62138,1.4483591,-3.3190950999999997
1068,1715729322480,4.489340400000001,1.5292659,-3.5414689000000004,4.489340400000001,1.5292659,-3.5414689000000004
1069,1715729322490,3.5425344,1.6314512,-4.785564,3.5425344,1.6314512,-4.785564
1070,1715729322500,3.0537114,1.3503548,-5.7674704,3.0537114,1.3503548,-5.7674704
1071,1715729322510,3.0537113999999996,1.3503548,-5.7674704,3.0537113999999996,1.3503548,-5.7674704
1072,1715729322520,3.1868694000000004,0.88496774,-6.965626,3.1868694000000004,0.88496774,-6.965626
1073,1715729322530,3.2429289333333333,0.84626316,-7.0611445,3.2429289333333333,0.84626316,-7.0611445
1074,1715729322540,3.8971338,0.4844286400000001,-7.916639999999999,3.8971338,0.4844286400000001,-7.916639999999999
1075,1715729322550,4.0814247,0.24487746999999999,-8.192543,4.0814247,0.24487746999999999,-8.192543
1076,1715729322560,4.0776962,0.15702651,-8.24018025,4.0776962,0.15702651,-8.24018025
1077,1715729322570,3.9727676,-0.44634548,-8.631299,3.9727676,-0.44634548,-8.631299
1078,1715729322580,3.93697464,-0.5878125040000001,-8.762539,3.93697464,-0.5878125040000001,-8.762539
1079,1715729322590,3.8278918000000006,-1.2503532,-9.222386,3.8278918000000006,-1.2503532,-9.222386
1080,1715729322600,3.7768922,-1.6168039,-9.398155,3.7768922,-1.6168039,-9.398155
1081,1715729322610,3.7630437999999997,-1.66684466,-9.406890399999998,3.7630437999999997,-1.66684466,-9.406890399999998
1082,1715729322620,3.6980627,-2.0470374,-9.321456,3.6980627,-2.0470374,-9.321456
1083,1715729322630,3.7079164,-2.06541315,-9.2889655,3.7079164,-2.06541315,-9.2889655
1084,1715729322640,3.90246,-2.2121532,-8.79961,3.90246,-2.2121532,-8.79961
1085,1715729322650,3.94507064,-2.23175408,-8.6641092,3.94507064,-2.23175408,-8.6641092
1086,1715729322660,3.8745302749999997,-2.42780245,-8.319243175,3.8745302749999997,-2.42780245,-8.319243175
1087,1715729322670,3.6735616000000006,-2.7489128,-7.9017262,3.6735616000000006,-2.7489128,-7.9017262
1088,1715729322680,3.5649048399999996,-2.84342828,-7.84747768,3.5649048399999996,-2.84342828,-7.84747768
1089,1715729322690,2.7309365,-3.3016515,-7.8326173,2.7309365,-3.3016515,-7.8326173
1090,1715729322700,2.16528154,-3.3288157400000005,-8.089026659999998,2.16528154,-3.3288157400000005,-8.089026659999998
1091,1715729322710,1.9139592,-3.3081496199999996,-8.1908394,1.9139592,-3.3081496199999996,-8.1908394
1092,1715729322720,0.8012114,-2.8840683,-8.292678,0.8012114,-2.8840683,-8.292678
1093,1715729322730,0.7349320375,-2.837762575,-8.239681000000001,0.7349320375,-2.837762575,-8.239681000000001
1094,1715729322740,0.24740748,-2.0736687,-6.3542976,0.24740748,-2.0736687,-6.3542976
1095,1715729322750,0.5083971,-1.5869765,-4.6141896,0.5083971,-1.5869765,-4.6141896
1096,1715729322760,1.0057421,-0.9990840999999999,-2.8792744,1.0057421,-0.9990840999999999,-2.8792744
1097,1715729322770,1.4562154,-0.4218444,-1.5191991,1.4562154,-0.4218444,-1.5191991
1098,1715729322780,1.47283352,-0.266369172,-1.2554931,1.47283352,-0.266369172,-1.2554931
1099,1715729322790,0.7937546,0.55580133,-0.39987335,0.7937546,0.55580133,-0.39987335
1100,1715729322800,-0.4608597,1.1159968,-0.5042692,-0.4608597,1.1159968,-0.5042692
1101,1715729322810,-0.6195174,1.197755775,-0.5210471,-0.6195174,1.197755775,-0.5210471
1102,1715729322820,-1.5109433,1.707085,-0.5223787,-1.5109433,1.707085,-0.5223787
1103,1715729322830,-1.5109433,1.707085,-0.5223787,-1.5109433,1.707085,-0.5223787
1104,1715729322840,-1.7100144399999997,1.4756031799999998,0.795858486,-1.7100144399999997,1.4756031799999998,0.795858486
1105,1715729322850,-1.3863075,0.8242477000000001,2.5511732,-1.3863075,0.8242477000000001,2.5511732
1106,1715729322860,-0.89641935,0.37270913,4.0815578,-0.89641935,0.37270913,4.0815578
1107,1715729322870,-0.4810997,0.16285218,5.316997,-0.4810997,0.16285218,5.316997
1108,1715729322880,-0.43337588,0.152625652,5.525309399999999,-0.43337588,0.152625652,5.525309399999999
1109,1715729322890,-0.43742388,0.34607753,7.115827999999999,-0.43742388,0.34607753,7.115827999999999
1110,1715729322900,-0.58832514,0.5297356325,7.584710375,-0.58832514,0.5297356325,7.584710375
1111,1715729322910,-0.9395891839999999,0.8746613400000001,8.0362162,-0.9395891839999999,0.8746613400000001,8.0362162
1112,1715729322920,-1.6120101999999998,1.3333106,8.6877575,-1.6120101999999998,1.3333106,8.6877575
1113,1715729322930,-1.6120102,1.3333106,8.6877575,-1.6120102,1.3333106,8.6877575
1114,1715729322940,-1.9646124,1.020868744,9.3984752,-1.9646124,1.020868744,9.3984752
1115,1715729322950,-1.6184018,0.1681785,9.929456,-1.6184018,0.1681785,9.929456
1116,1715729322960,-1.1956253,-0.32064435,9.988045,-1.1956253,-0.32064435,9.988045
1117,1715729322970,-0.59388447,-0.9010799,9.885913,-0.59388447,-0.9010799,9.885913
1118,1715729322980,-0.445226934,-1.0531462600000001,9.8360586,-0.445226934,-1.0531462600000001,9.8360586
1119,1715729322990,0.16431692,-1.6040207,9.454481,0.16431692,-1.6040207,9.454481
1120,1715729323000,0.17603482,-1.600825,9.398022,0.17603482,-1.600825,9.398022
1121,1715729323010,-0.08375636000000002,-1.3068122,9.074315,-0.08375636000000002,-1.3068122,9.074315
1122,1715729323020,-0.405039864,-0.9012663199999998,8.8392118,-0.405039864,-0.9012663199999998,8.8392118
1123,1715729323030,-0.48536074000000007,-0.79987985,8.780436,-0.48536074000000007,-0.79987985,8.780436
1124,1715729323040,-1.36034165,0.506426332,8.2302272,-1.36034165,0.506426332,8.2302272
1125,1715729323050,-1.7504945,1.1863042,8.022101,-1.7504945,1.1863042,8.022101
1126,1715729323060,-1.7504945,1.1863042,8.022101,-1.7504945,1.1863042,8.022101
1127,1715729323070,-2.884734,3.1076403,7.800526,-2.884734,3.1076403,7.800526
1128,1715729323080,-2.98699932,3.2192266599999995,7.77160416,-2.98699932,3.2192266599999995,7.77160416
1129,1715729323090,-3.531216,3.6028547,7.4821453,-3.531216,3.6028547,7.4821453
1130,1715729323100,-3.795268,3.5762231,7.027410999999999,-3.795268,3.5762231,7.027410999999999
1131,1715729323110,-3.822965,3.5293517000000003,6.916623599999999,-3.822965,3.5293517000000003,6.916623599999999
1132,1715729323120,-3.8325524,3.4897238,6.845037840000001,-3.8325524,3.4897238,6.845037840000001
1133,1715729323130,-3.727490766666667,3.0525573,6.448351433333333,-3.727490766666667,3.0525573,6.448351433333333
1134,1715729323140,-3.139332,1.1831084,5.3308454,-3.139332,1.1831084,5.3308454
1135,1715729323150,-3.139332,1.1831084,5.3308454,-3.139332,1.1831084,5.3308454
1136,1715729323160,-3.079677,0.95847094,5.2903657,-3.079677,0.95847094,5.2903657
1137,1715729323170,-2.0210714,-1.6136081,4.5597277,-2.0210714,-1.6136081,4.5597277
1138,1715729323180,-1.908186775,-1.671365375,4.4851925249999995,-1.908186775,-1.671365375,4.4851925249999995
1139,1715729323190,-1.1285137,-1.4207954,3.9527938,-1.1285137,-1.4207954,3.9527938
1140,1715729323200,-1.0677936,-0.5720466,3.9517286,-1.0677936,-0.5720466,3.9517286
1141,1715729323210,-1.1434274,0.23635536,3.9740992,-1.1434274,0.23635536,3.9740992
1142,1715729323220,-1.03101542,0.48362966400000007,3.83731942,-1.03101542,0.48362966400000007,3.83731942
1143,1715729323230,-0.68929214,0.6229129,3.50172145,-0.68929214,0.6229129,3.50172145
1144,1715729323240,0.68143588,0.26827998999999997,2.3107566,0.68143588,0.26827998999999997,2.3107566
1145,1715729323250,1.6712655,-0.039547913,1.4243907,1.6712655,-0.039547913,1.4243907
1146,1715729323260,3.071821,-0.33555806,-0.31158963,3.071821,-0.33555806,-0.31158963
1147,1715729323270,3.3220246,-0.25353274,-1.0804436,3.3220246,-0.25353274,-1.0804436
1148,1715729323280,3.3111589,-0.20093534899999996,-1.27639884,3.3111589,-0.20093534899999996,-1.27639884
1149,1715729323290,2.95418906,0.358008475,-3.0852165200000004,2.95418906,0.358008475,-3.0852165200000004
1150,1715729323300,2.7138922,0.5792371,-3.8579855,2.7138922,0.5792371,-3.8579855
1151,1715729323310,2.558497,0.6729803,-5.041227,2.558497,0.6729803,-5.041227
1152,1715729323320,2.7181532,0.5472792,-5.830321,2.7181532,0.5472792,-5.830321
1153,1715729323330,2.80657015,0.47647245,-5.988479375,2.80657015,0.47647245,-5.988479375
1154,1715729323340,3.521229,-0.14913692,-7.0007796,3.521229,-0.14913692,-7.0007796
1155,1715729323350,3.7053064399999998,-0.291456128,-7.19678792,3.7053064399999998,-0.291456128,-7.19678792
1156,1715729323360,4.2156477,-0.7103977,-7.8495283,4.2156477,-0.7103977,-7.8495283
1157,1715729323370,4.2565538599999995,-0.7666436200000001,-7.97735926,4.2565538599999995,-0.7666436200000001,-7.97735926
1158,1715729323380,4.207125700000001,-0.82384828,-8.2015305,4.207125700000001,-0.82384828,-8.2015305
1159,1715729323390,3.8854160000000006,-0.950082,-8.564187,3.8854160000000006,-0.950082,-8.564187
1160,1715729323400,3.7610996,-0.99780584,-8.6204334,3.7610996,-0.99780584,-8.6204334
1161,1715729323410,3.3081763000000004,-1.3281175,-8.728238,3.3081763000000004,-1.3281175,-8.728238
1162,1715729323420,3.20260854,-1.5173083,-8.7222716,3.20260854,-1.5173083,-8.7222716
1163,1715729323430,3.1762166,-1.5646060000000002,-8.72078,3.1762166,-1.5646060000000002,-8.72078
1164,1715729323440,3.2783932666666664,-1.6526678,-8.768362000000002,3.2783932666666664,-1.6526678,-8.768362000000002
1165,1715729323450,3.3619721,-1.681785,-8.8283725,3.3619721,-1.681785,-8.8283725
1166,1715729323460,3.3497214,-1.7636771,-8.960332,3.3497214,-1.7636771,-8.960332
1167,1715729323470,3.24330164,-1.9059963,-8.998680799999999,3.24330164,-1.9059963,-8.998680799999999
1168,1715729323480,3.2166967,-1.9415761,-9.008268,3.2166967,-1.9415761,-9.008268
1169,1715729323490,2.7341323,-2.2695441,-9.100946,2.7341323,-2.2695441,-9.100946
1170,1715729323500,2.63578174,-2.3008628399999997,-9.113090600000001,2.63578174,-2.3008628399999997,-9.113090600000001
1171,1715729323510,2.222772475,-2.3632873500000002,-9.115593875,2.222772475,-2.3632873500000002,-9.115593875
1172,1715729323520,1.9120151000000003,-2.2961757,-9.014661,1.9120151000000003,-2.2961757,-9.014661
1173,1715729323530,1.880323525,-2.26824585,-8.9838015,1.880323525,-2.26824585,-8.9838015
1174,1715729323540,1.6021565,-2.021471,-8.661126,1.6021565,-2.021471,-8.661126
1175,1715729323550,1.5318490999999999,-1.9817011333333332,-8.567383333333334,1.5318490999999999,-1.9817011333333332,-8.567383333333334
1176,1715729323560,1.0653968,-1.7572855,-7.9677725,1.0653968,-1.7572855,-7.9677725
1177,1715729323570,0.6384036333333333,-1.4830910833333333,-7.518697083333333,0.6384036333333333,-1.4830910833333333,-7.518697083333333
1178,1715729323580,0.46802358999999993,-1.3688371199999998,-7.3741541999999995,0.46802358999999993,-1.3688371199999998,-7.3741541999999995
1179,1715729323590,-0.506666,-0.71998507,-6.769617,-0.506666,-0.71998507,-6.769617
1180,1715729323600,-0.7373222,-0.596068264,-6.470571000000001,-0.7373222,-0.596068264,-6.470571000000001
1181,1715729323610,-0.963530968,-0.245862844,-5.0741702,-0.963530968,-0.245862844,-5.0741702
1182,1715729323620,-0.5162534,0.0009321057,-3.6353452000000006,-0.5162534,0.0009321057,-3.6353452000000006
1183,1715729323630,-0.34652139049999997,0.07408021046666667,-3.3641468666666667,-0.34652139049999997,0.07408021046666667,-3.3641468666666667
1184,1715729323640,0.51585394,0.51638657,-1.6555529,0.51585394,0.51638657,-1.6555529
1185,1715729323650,0.48629287,0.5755086724999999,-1.341666275,0.48629287,0.5755086724999999,-1.341666275
1186,1715729323660,-0.06458161,0.9350351700000001,-0.28176224,-0.06458161,0.9350351700000001,-0.28176224
1187,1715729323670,-0.6279729,1.3823128,0.35619754,-0.6279729,1.3823128,0.35619754
1188,1715729323680,-0.6279729,1.3823128,0.35619754,-0.6279729,1.3823128,0.35619754
1189,1715729323690,-1.4065474,2.3397183,1.4414349,-1.4065474,2.3397183,1.4414349
1190,1715729323700,-1.46513695,2.40789515,1.62359495,-1.46513695,2.40789515,1.62359495
1191,1715729323710,-1.6610123,2.479268,3.294594,-1.6610123,2.479268,3.294594
1192,1715729323720,-1.6610123,2.228931,4.3755703,-1.6610123,2.228931,4.3755703
1193,1715729323730,-1.6578165500000002,2.08465435,4.87078465,-1.6578165500000002,2.08465435,4.87078465
1194,1715729323740,-1.7291891999999998,1.6836492000000003,6.211552,-1.7291891999999998,1.6836492000000003,6.211552
1195,1715729323750,-1.8002955,1.58617755,6.48798805,-1.8002955,1.58617755,6.48798805
1196,1715729323760,-2.3042984,1.1586074,7.487471600000001,-2.3042984,1.1586074,7.487471600000001
1197,1715729323770,-2.6929865,0.87218463,7.9560547,-2.6929865,0.87218463,7.9560547
1198,1715729323780,-2.76819412,0.793142064,8.02654856,-2.76819412,0.793142064,8.02654856
1199,1715729323790,-3.2870841200000003,0.08080024799999999,8.536064,-3.2870841200000003,0.08080024799999999,8.536064
1200,1715729323800,-3.3698284999999997,-0.19660771999999999,8.672844000000001,-3.3698284999999997,-0.19660771999999999,8.672844000000001
1201,1715729323810,-3.0370667,-1.730654,9.15208,-3.0370667,-1.730654,9.15208
1202,1715729323820,-2.49516694,-2.3841932,9.3505384,-2.49516694,-2.3841932,9.3505384
1203,1715729323830,-2.359692,-2.547578,9.400153,-2.359692,-2.547578,9.400153
1204,1715729323840,-1.4624737749999999,-2.7126606,9.667800249999999,-1.4624737749999999,-2.7126606,9.667800249999999
1205,1715729323850,-0.8780968080000001,-2.64132122,9.8239144,-0.8780968080000001,-2.64132122,9.8239144
1206,1715729323860,-0.6972150540000001,-1.9705246600000002,9.6087312,-0.6972150540000001,-1.9705246600000002,9.6087312
1207,1715729323870,-0.9036631400000001,-1.47211446,9.221721599999999,-0.9036631400000001,-1.47211446,9.221721599999999
1208,1715729323880,-1.03785972,-1.32558746,9.034075399999999,-1.03785972,-1.32558746,9.034075399999999
1209,1715729323890,-1.6269239,-0.94262516,8.1861515,-1.6269239,-0.94262516,8.1861515
1210,1715729323900,-1.6979415,-0.8779991633333334,8.049797833333333,-1.6979415,-0.8779991633333334,8.049797833333333
1211,1715729323910,-2.1062925,-0.124635845,7.120089,-2.1062925,-0.124635845,7.120089
1212,1715729323920,-2.2467742,0.39721018,6.78027,-2.2467742,0.39721018,6.78027
1213,1715729323930,-2.2619009599999997,0.473030316,6.7432254,-2.2619009599999997,0.473030316,6.7432254
1214,1715729323940,-2.3490396,1.3258537,6.421409,-2.3490396,1.3258537,6.421409
1215,1715729323950,-2.3433581333333335,1.5164915666666667,6.368856,-2.3433581333333335,1.5164915666666667,6.368856
1216,1715729323960,-2.3479743,1.7188029,6.308491,-2.3479743,1.7188029,6.308491
1217,1715729323970,-2.4342606,1.677257625,6.2413795,-2.4342606,1.677257625,6.2413795
1218,1715729323980,-2.4630227,1.6634092,6.219009,-2.4630227,1.6634092,6.219009
1219,1715729323990,-2.5961807,1.3034832,5.9166074,-2.5961807,1.3034832,5.9166074
1220,1715729324000,-2.5631575250000003,1.248622125,5.9187379,-2.5631575250000003,1.248622125,5.9187379
1221,1715729324010,-1.8453029,0.4854939,6.2967734,-1.8453029,0.4854939,6.2967734
1222,1715729324020,-1.5505445,0.138750588,6.611985080000001,-1.5505445,0.138750588,6.611985080000001
1223,1715729324030,-1.4768549,0.05206476,6.690788,-1.4768549,0.05206476,6.690788
1224,1715729324040,-1.4885728,-0.38029912,6.6728115,-1.4885728,-0.38029912,6.6728115
1225,1715729324050,-1.700427,-0.41225702,6.2243357,-1.700427,-0.41225702,6.2243357
1226,1715729324060,-1.5823159,-0.22903168,5.203014,-1.5823159,-0.22903168,5.203014
1227,1715729324070,-0.96883062,-0.010120003999999998,4.673897439999999,-0.96883062,-0.010120003999999998,4.673897439999999
1228,1715729324080,0.07531414000000006,0.274225497,4.00573746,0.07531414000000006,0.274225497,4.00573746
1229,1715729324090,2.83690366,0.710690646,2.2382786799999996,2.83690366,0.710690646,2.2382786799999996
1230,1715729324100,3.5695652800000004,0.6320741759999999,1.6113977,3.5695652800000004,0.6320741759999999,1.6113977
1231,1715729324110,4.22512856,-0.045646551999999986,-0.05845632399999996,4.22512856,-0.045646551999999986,-0.05845632399999996
1232,1715729324120,4.1943426,-0.48149917,-1.1614037,4.1943426,-0.48149917,-1.1614037
1233,1715729324130,3.1708903,-0.55180657,-3.6513243,3.1708903,-0.55180657,-3.6513243
1234,1715729324140,2.6117379666666665,-0.39911876166666665,-4.578769383333333,2.6117379666666665,-0.39911876166666665,-4.578769383333333
1235,1715729324150,2.418414825,-0.357129625,-4.876610400000001,2.418414825,-0.357129625,-4.876610400000001
1236,1715729324160,1.5318491,-0.3888212,-6.096637,1.5318491,-0.3888212,-6.096637
1237,1715729324170,1.446628,-0.4154528,-6.250967,1.446628,-0.4154528,-6.250967
1238,1715729324180,1.4466279999999998,-0.4154528,-6.250967,1.4466279999999998,-0.4154528,-6.250967
1239,1715729324190,1.4753902000000003,-0.91066724,-7.589737,1.4753902000000003,-0.91066724,-7.589737
1240,1715729324200,1.54737538,-1.004383792,-7.6591656,1.54737538,-1.004383792,-7.6591656
1241,1715729324210,2.1591563,-1.8936392999999998,-8.148868,2.1591563,-1.8936392999999998,-8.148868
1242,1715729324220,2.1591563,-1.8936392999999998,-8.148868,2.1591563,-1.8936392999999998,-8.148868
1243,1715729324230,2.9919262,-3.6892743,-8.956071,2.9919262,-3.6892743,-8.956071
1244,1715729324240,3.1123009,-4.3357563,-9.370459,3.1123009,-4.3357563,-9.370459
1245,1715729324250,3.1112356500000002,-4.41641665,-9.4463255,3.1112356500000002,-4.41641665,-9.4463255
1246,1715729324260,3.056640925,-4.6868936,-9.797728750000001,3.056640925,-4.6868936,-9.797728750000001
1247,1715729324270,2.86223025,-4.744684475,-10.214680000000001,2.86223025,-4.744684475,-10.214680000000001
1248,1715729324280,2.32368612,-4.247952,-10.5770824,2.32368612,-4.247952,-10.5770824
1249,1715729324290,1.0100031,-2.8542407,-11.067024,1.0100031,-2.8542407,-11.067024
1250,1715729324300,0.40503986000000003,-2.12240462,-11.1316856,0.40503986000000003,-2.12240462,-11.1316856
1251,1715729324310,-0.448475996,-1.01162762,-11.1063055,-0.448475996,-1.01162762,-11.1063055
1252,1715729324320,-1.219939872,0.038882116,-10.9951985,-1.219939872,0.038882116,-10.9951985
1253,1715729324330,-1.890044,1.1990874,-10.589786,-1.890044,1.1990874,-10.589786
1254,1715729324340,-1.825063,1.3418328,-10.376866,-1.825063,1.3418328,-10.376866
1255,1715729324350,-1.73582052,1.2932567799999999,-10.3086892,-1.73582052,1.2932567799999999,-10.3086892
1256,1715729324360,-0.60879815,0.42064598,-9.468329,-0.60879815,0.42064598,-9.468329
1257,1715729324370,0.08828373999999997,-0.29057730400000004,-8.844671,0.08828373999999997,-0.29057730400000004,-8.844671
1258,1715729324380,0.7588339,-0.9915940200000001,-8.18342225,0.7588339,-0.9915940200000001,-8.18342225
1259,1715729324390,1.8662087999999997,-2.0843215,-6.7260747,1.8662087999999997,-2.0843215,-6.7260747
1260,1715729324400,2.0696075,-2.1652149,-6.28352435,2.0696075,-2.1652149,-6.28352435
1261,1715729324410,2.28387196,-2.10046022,-5.1917488,2.28387196,-2.10046022,-5.1917488
1262,1715729324420,2.2666147,-1.95595725,-4.651407,2.2666147,-1.95595725,-4.651407
1263,1715729324430,1.6277228999999998,-0.9990840999999999,-3.2285478,1.6277228999999998,-0.9990840999999999,-3.2285478
1264,1715729324440,1.2271837,-0.48895600000000006,-2.7152238,1.2271837,-0.48895600000000006,-2.7152238
1265,1715729324450,1.1920633,-0.430366505,-2.67181435,1.1920633,-0.430366505,-2.67181435
1266,1715729324460,1.01596858,0.262587476,-2.28858584,1.01596858,0.262587476,-2.28858584
1267,1715729324470,1.01319885,0.42430782499999997,-2.19604095,1.01319885,0.42430782499999997,-2.19604095
1268,1715729324480,1.4295838,0.8508793000000001,-1.3148017,1.4295838,0.8508793000000001,-1.3148017
1269,1715729324490,1.579786,1.0914958,-0.568185,1.579786,1.0914958,-0.568185
1270,1715729324500,1.5499586,1.339935225,-0.07909583500000003,1.5499586,1.339935225,-0.07909583500000003
1271,1715729324510,1.4359754,1.9190724999999997,0.9962877999999998,1.4359754,1.9190724999999997,0.9962877999999998
1272,1715729324520,1.1387669,2.454767,1.7865803,1.1387669,2.454767,1.7865803
1273,1715729324530,0.7095987,2.9979181,2.6491776,0.7095987,2.9979181,2.6491776
1274,1715729324540,0.48597325199999997,3.22473946,3.07925112,0.48597325199999997,3.22473946,3.07925112
1275,1715729324550,0.33688962,3.3759537,3.3659668000000003,0.33688962,3.3759537,3.3659668000000003
1276,1715729324560,-0.240849458,3.719468,4.408793225,-0.240849458,3.719468,4.408793225
1277,1715729324570,-0.5752423820000001,3.7663062,4.9165244,-0.5752423820000001,3.7663062,4.9165244
1278,1715729324580,-2.1519656,3.534678,6.8995795,-2.1519656,3.534678,6.8995795
1279,1715729324590,-2.1519656,3.534678,6.899579499999999,-2.1519656,3.534678,6.899579499999999
