id,timestamp,acc_x,acc_y,acc_z,gyro_x,gyro_y,gyro_z
0,1715729207800,-0.23867611857142856,0.556714386,0.9513945828571428,-0.23867611857142856,0.556714386,0.9513945828571428
1,1715729207810,-0.08002793500000001,-0.041678440000000004,0.009454214649999999,-0.08002793500000001,-0.041678440000000004,0.009454214649999999
2,1715729207820,-0.03483032028571429,-0.016644744285714285,-0.007133461971428572,-0.03483032028571429,-0.016644744285714285,-0.007133461971428572
3,1715729207830,0.050999496,-0.04221107,-0.025699485,0.050999496,-0.04221107,-0.025699485
4,1715729207840,-0.002872407857142857,-0.042363252571428575,-0.028743095142857143,-0.002872407857142857,-0.042363252571428575,-0.028743095142857143
5,1715729207850,-0.04700476,-0.040080544,-0.031025803,-0.04700476,-0.040080544,-0.031025803
6,1715729207860,-0.09448508285714285,-0.02181888142857143,-0.03193888557142858,-0.09448508285714285,-0.02181888142857143,-0.03193888557142858
7,1715729207870,-0.11092057628571429,-0.011470606428571428,-0.03635212142857142,-0.11092057628571429,-0.011470606428571428,-0.03635212142857142
8,1715729207880,-0.09494162,-0.008122635,-0.049002126,-0.09494162,-0.008122635,-0.049002126
9,1715729207890,-0.08926021666666667,-0.008122635,-0.04833633733333333,-0.08926021666666667,-0.008122635,-0.04833633733333333
10,1715729207900,-0.07789741,-0.008122635,-0.04700476,-0.07789741,-0.008122635,-0.04700476
11,1715729207910,-0.07789741,0.09662829416666667,-0.036352120833333335,-0.07789741,0.09662829416666667,-0.036352120833333335
12,1715729207920,-0.10437682,0.15044946714285715,-0.031938885714285714,-0.10437682,0.15044946714285715,-0.031938885714285714
13,1715729207930,-0.1396827,0.19427745,-0.028895276,-0.1396827,0.19427745,-0.028895276
14,1715729207940,-0.15109622857142857,0.19884287142857143,-0.027373471000000003,-0.15109622857142857,0.19884287142857143,-0.027373471000000003
15,1715729207950,-0.19387798,0.20706062,-0.020373167,-0.19387798,0.20706062,-0.020373167
16,1715729207960,-0.19707377,0.18895113,-0.01824264,-0.19707377,0.18895113,-0.01824264
17,1715729207970,-0.19088193333333334,0.16498270666666667,-0.021083343,-0.19088193333333334,0.16498270666666667,-0.021083343
18,1715729207980,-0.17270587,0.1346227,-0.032091066,-0.17270587,0.1346227,-0.032091066
19,1715729207990,-0.12530163833333333,0.12166198416666667,-0.03848264966666667,-0.12530163833333333,0.12166198416666667,-0.03848264966666667
20,1715729208000,-0.015401936666666664,0.09449776,-0.04096826666666666,-0.015401936666666664,0.09449776,-0.04096826666666666
21,1715729208010,0.03715107,0.07603319,-0.041678440000000004,0.03715107,0.07603319,-0.041678440000000004
22,1715729208020,0.03715107,0.070706875,-0.0422110725,0.03715107,0.070706875,-0.0422110725
23,1715729208030,0.011407198333333333,0.05739108083333334,-0.03830510583333333,0.011407198333333333,0.05739108083333334,-0.03830510583333333
24,1715729208040,-0.03635212266666667,0.06555809750000001,-0.02942790766666667,-0.03635212266666667,0.06555809750000001,-0.02942790766666667
25,1715729208050,-0.074701615,0.10586057600000001,-0.019307904,-0.074701615,0.10586057600000001,-0.019307904
26,1715729208060,-0.11092058,0.16231954,-0.00652474,-0.11092058,0.16231954,-0.00652474
27,1715729208070,-0.16520463666666665,0.21238693666666666,0.006613511333333333,-0.16520463666666665,0.21238693666666666,0.006613511333333333
28,1715729208080,-0.27377275,0.31252173,0.032890014,-0.27377275,0.31252173,0.032890014
29,1715729208090,-0.32916647,0.33049804,0.046738442,-0.32916647,0.33049804,0.046738442
30,1715729208100,-0.396810715,0.2294089566666667,0.0721272295,-0.396810715,0.2294089566666667,0.0721272295
31,1715729208110,-0.3600591,0.04301002,0.066978455,-0.3600591,0.04301002,0.066978455
32,1715729208120,-0.2684730626,-0.039654441,0.077844141,-0.2684730626,-0.039654441,0.077844141
33,1715729208130,-0.016112113,-0.20306589,0.1063932,-0.016112113,-0.20306589,0.1063932
34,1715729208140,0.04940160425000001,-0.195875355,0.10479531,0.04940160425000001,-0.195875355,0.10479531
35,1715729208150,0.105327945,-0.16817849899999998,0.101865835,0.105327945,-0.16817849899999998,0.101865835
36,1715729208160,0.202479984,-0.0784300378,0.107458464,0.202479984,-0.0784300378,0.107458464
37,1715729208170,0.173238495,-0.040346860250000005,0.16737954500000002,0.173238495,-0.040346860250000005,0.16737954500000002
38,1715729208180,0.1564606,-0.63862556,-0.010785795,0.1564606,-0.63862556,-0.010785795
39,1715729208190,0.32423962399999995,-0.9887777520000001,-0.157259543,0.32423962399999995,-0.9887777520000001,-0.157259543
40,1715729208200,0.36618438,-1.0763158,-0.19387798,0.36618438,-1.0763158,-0.19387798
41,1715729208210,1.487141325,-3.073452,-1.334808615,1.487141325,-3.073452,-1.334808615
42,1715729208220,2.04767638,-3.7149205199999997,-1.72772442,2.04767638,-3.7149205199999997,-1.72772442
43,1715729208230,3.2140335999999996,-5.304347,-2.2216072,3.2140335999999996,-5.304347,-2.2216072
44,1715729208240,3.56344,-5.789974,-2.29298,3.56344,-5.789974,-2.29298
45,1715729208250,4.32510368,-6.774064559999999,-2.3824620800000003,4.32510368,-6.774064559999999,-2.3824620800000003
46,1715729208260,4.961732,-7.6985273,-2.470879,4.961732,-7.6985273,-2.470879
47,1715729208270,4.987298324999999,-7.991641225,-2.47993375,4.987298324999999,-7.991641225,-2.47993375
48,1715729208280,5.0639973,-8.870983,-2.507098,5.0639973,-8.870983,-2.507098
49,1715729208290,4.71208718,-9.1760482,-2.44744324,4.71208718,-9.1760482,-2.44744324
50,1715729208300,4.0586543,-9.480181,-2.349439,4.0586543,-9.480181,-2.349439
51,1715729208310,3.1373346,-9.512138,-2.3291988,3.1373346,-9.512138,-2.3291988
52,1715729208320,2.8617642,-9.44505975,-2.3513031,2.8617642,-9.44505975,-2.3513031
53,1715729208330,1.326466278,-8.8993992,-2.5269120000000003,1.326466278,-8.8993992,-2.5269120000000003
54,1715729208340,0.46212468500000004,-8.441348999999999,-2.7099641500000002,0.46212468500000004,-8.441348999999999,-2.7099641500000002
55,1715729208350,-0.6383592525,-8.105025,-3.34972145,-0.6383592525,-8.105025,-3.34972145
56,1715729208360,-0.5368929,-8.522775,-3.5071142,-0.5368929,-8.522775,-3.5071142
57,1715729208370,0.42376186800000004,-9.442470199999999,-3.5365155600000002,0.42376186800000004,-9.442470199999999,-3.5365155600000002
58,1715729208380,1.1458242,-9.949829,-3.5443985,1.1458242,-9.949829,-3.5443985
59,1715729208390,1.4296503500000002,-9.995635,-3.5593122499999996,1.4296503500000002,-9.995635,-3.5593122499999996
60,1715729208400,1.7134764999999998,-10.041441,-3.574226,1.7134764999999998,-10.041441,-3.574226
61,1715729208410,1.894005425,-8.613288749999999,-3.7707669,1.894005425,-8.613288749999999,-3.7707669
62,1715729208420,1.52564396,-7.4322378,-4.1316782000000005,1.52564396,-7.4322378,-4.1316782000000005
63,1715729208430,1.1191926,-5.985983,-4.7105956,1.1191926,-5.985983,-4.7105956
64,1715729208440,1.0861695,-5.4673324,-5.0172586,1.0861695,-5.4673324,-5.0172586
65,1715729208450,1.3026310200000002,-4.69629472,-5.838576519999999,1.3026310200000002,-4.69629472,-5.838576519999999
66,1715729208460,1.62934736,-4.408939859999999,-6.5576828,1.62934736,-4.408939859999999,-6.5576828
67,1715729208470,1.9543592799999998,-4.4074485999999995,-6.9585683000000005,1.9543592799999998,-4.4074485999999995,-6.9585683000000005
68,1715729208480,2.5515728,-4.444946,-7.526487,2.5515728,-4.444946,-7.526487
69,1715729208490,2.74571705,-4.26122125,-7.5695638,2.74571705,-4.26122125,-7.5695638
70,1715729208500,2.976613,-3.831487,-7.549923,2.976613,-3.831487,-7.549923
71,1715729208510,2.8093665,-3.3352072,-7.396525,2.8093665,-3.3352072,-7.396525
72,1715729208520,2.7481138499999997,-3.2393335,-7.351783999999999,2.7481138499999997,-3.2393335,-7.351783999999999
73,1715729208530,2.0446403,-2.2851236,-6.780936,2.0446403,-2.2851236,-6.780936
74,1715729208540,1.884151775,-2.0933762,-6.625140975,1.884151775,-2.0933762,-6.625140975
75,1715729208550,1.3173317,-1.356347,-5.9300566,1.3173317,-1.356347,-5.9300566
76,1715729208560,1.1404979,-0.91333044,-5.559345,1.1404979,-0.91333044,-5.559345
77,1715729208570,1.1053442,-0.6361954350000001,-5.371691775,1.1053442,-0.6361954350000001,-5.371691775
78,1715729208580,1.0680599,-0.010253162,-4.865059,1.0680599,-0.010253162,-4.865059
79,1715729208590,1.0510157,0.14847112,-4.6722465,1.0510157,0.14847112,-4.6722465
80,1715729208600,0.7409441,0.360751532,-3.88986344,0.7409441,0.360751532,-3.88986344
81,1715729208610,0.4886897,0.37097806,-3.486874,0.4886897,0.37097806,-3.486874
82,1715729208620,0.363055165,0.36352122,-3.2866711,0.363055165,0.36352122,-3.2866711
83,1715729208630,-0.1599227,0.18788588,-2.3430474,-0.1599227,0.18788588,-2.3430474
84,1715729208640,-0.255263788,0.02024001799999999,-1.8521206,-0.255263788,0.02024001799999999,-1.8521206
85,1715729208650,-0.31425276,-0.3787012,-0.8914925,-0.31425276,-0.3787012,-0.8914925
86,1715729208660,-0.1631185,-0.86219776,-0.103330575,-0.1631185,-0.86219776,-0.103330575
87,1715729208670,-0.091106676,-1.028804976,0.117338787,-0.091106676,-1.028804976,0.117338787
88,1715729208680,0.30772802,-1.7941703,1.1042789,0.30772802,-1.7941703,1.1042789
89,1715729208690,0.39820886,-1.9549585,1.3183969,0.39820886,-1.9549585,1.3183969
90,1715729208700,0.63676137,-2.4639547,2.1501014,0.63676137,-2.4639547,2.1501014
91,1715729208710,0.6682931539999999,-2.5295750999999997,2.54882956,0.6682931539999999,-2.5295750999999997,2.54882956
92,1715729208720,0.6836329466666666,-2.4501508333333333,2.970176933333333,0.6836329466666666,-2.4501508333333333,2.970176933333333
93,1715729208730,0.6964161,-2.318147,3.3280167999999994,0.6964161,-2.318147,3.3280167999999994
94,1715729208740,0.71292768,-2.211088,3.4840779,0.71292768,-2.211088,3.4840779
95,1715729208750,0.7349786399999999,-1.55429952,4.27764624,0.7349786399999999,-1.55429952,4.27764624
96,1715729208760,0.6506098,-1.1871032,4.6167192,0.6506098,-1.1871032,4.6167192
97,1715729208770,0.6506098,-1.1871032,4.6167192,0.6506098,-1.1871032,4.6167192
98,1715729208780,0.4780370725,-0.772549175,4.881071325000001,0.4780370725,-0.772549175,4.881071325000001
99,1715729208790,-0.11777821666666666,-0.00561482833333334,5.2819322500000006,-0.11777821666666666,-0.00561482833333334,5.2819322500000006
100,1715729208800,-0.818788295,0.45090612500000005,5.620464350000001,-0.818788295,0.45090612500000005,5.620464350000001
101,1715729208810,-0.9809747,0.3071954,5.740306399999999,-0.9809747,0.3071954,5.740306399999999
102,1715729208820,-0.9899229,0.10311752040000002,5.9141041,-0.9899229,0.10311752040000002,5.9141041
103,1715729208830,-0.9852357000000002,-0.361657,6.353765,-0.9852357000000002,-0.361657,6.353765
104,1715729208840,-0.97085465,-0.4101265,6.4349581,-0.97085465,-0.4101265,6.4349581
105,1715729208850,-0.82296055,-0.7117736416666668,7.158682566666667,-0.82296055,-0.7117736416666668,7.158682566666667
106,1715729208860,-0.77963984,-0.76845455,7.6252904,-0.77963984,-0.76845455,7.6252904
107,1715729208870,-0.77963984,-0.76845455,7.6252904,-0.77963984,-0.76845455,7.6252904
108,1715729208880,-1.09644927,-0.56725289,7.89757168,-1.09644927,-0.56725289,7.89757168
109,1715729208890,-1.2248535,-0.45273705,7.92675995,-1.2248535,-0.45273705,7.92675995
110,1715729208900,-1.8616813,0.13355742,8.0832205,-1.8616813,0.13355742,8.0832205
111,1715729208910,-2.0406456,0.3071954,8.156724,-2.0406456,0.3071954,8.156724
112,1715729208920,-2.0406456,0.3071954,8.156724,-2.0406456,0.3071954,8.156724
113,1715729208930,-3.0108345,1.2869717,8.276033,-3.0108345,1.2869717,8.276033
114,1715729208940,-3.0636716,1.3265728600000002,8.2694285,-3.0636716,1.3265728600000002,8.2694285
115,1715729208950,-3.9446448000000003,1.8572871799999997,8.0488125,-3.9446448000000003,1.8572871799999997,8.0488125
116,1715729208960,-4.4051649500000005,2.098968775,7.88441575,-4.4051649500000005,2.098968775,7.88441575
117,1715729208970,-5.1850376,2.3764034499999998,7.4314789999999995,-5.1850376,2.3764034499999998,7.4314789999999995
118,1715729208980,-6.223936,2.3711438,6.542183400000001,-6.223936,2.3711438,6.542183400000001
119,1715729208990,-6.165133280000001,1.7150478,6.16646508,-6.165133280000001,1.7150478,6.16646508
120,1715729209000,-4.0087204,-1.2233222,5.3695946,-4.0087204,-1.2233222,5.3695946
121,1715729209010,-2.881538166,-1.90405224,5.272549,-2.881538166,-1.90405224,5.272549
122,1715729209020,-0.15885743,-3.2563777000000003,5.0980854,-0.15885743,-3.2563777000000003,5.0980854
123,1715729209030,2.4313312,-3.5140383000000006,4.9979506,2.4313312,-3.5140383000000006,4.9979506
124,1715729209040,2.6236378599999997,-3.36199872,4.94745724,2.6236378599999997,-3.36199872,4.94745724
125,1715729209050,2.46318254,-2.23441708,4.24283868,2.46318254,-2.23441708,4.24283868
126,1715729209060,2.1096215,-1.8313213999999998,3.782751,2.1096215,-1.8313213999999998,3.782751
127,1715729209070,1.8711356,-1.651425,3.2662315,1.8711356,-1.651425,3.2662315
128,1715729209080,1.8353428,-1.59773572,2.76779462,1.8353428,-1.59773572,2.76779462
129,1715729209090,1.8735324,-1.575524975,2.349272475,1.8735324,-1.575524975,2.349272475
130,1715729209100,1.9201377999999998,-1.4799175,1.6474302,1.9201377999999998,-1.4799175,1.6474302
131,1715729209110,1.924931425,-1.45195435,1.554053175,1.924931425,-1.45195435,1.554053175
132,1715729209120,1.95715562,-1.223668356,1.09565026,1.95715562,-1.223668356,1.09565026
133,1715729209130,2.0403793,-0.25193486,-0.33129698,2.0403793,-0.25193486,-0.33129698
134,1715729209140,2.00714308,0.017710000000000004,-0.717268652,2.00714308,0.017710000000000004,-0.717268652
135,1715729209150,1.7933713,0.66072977,-2.1013658,1.7933713,0.66072977,-2.1013658
136,1715729209160,1.7978099666666667,0.7228701283333333,-2.88233705,1.7978099666666667,0.7228701283333333,-2.88233705
137,1715729209170,1.7986977,0.7352982,-3.0385313,1.7986977,0.7352982,-3.0385313
138,1715729209180,2.3782454333333334,0.25071423333333337,-4.746371150000001,2.3782454333333334,0.25071423333333337,-4.746371150000001
139,1715729209190,2.6153287,0.0447144376,-5.2423755,2.6153287,0.0447144376,-5.2423755
140,1715729209200,2.91291018,-0.2654104356,-5.9975141800000005,2.91291018,-0.2654104356,-5.9975141800000005
141,1715729209210,3.07347212,-0.46626588,-6.53938732,3.07347212,-0.46626588,-6.53938732
142,1715729209220,3.10665504,-0.570661724,-6.970073479999999,3.10665504,-0.570661724,-6.970073479999999
143,1715729209230,3.0648966,-0.7673893,-8.011049,3.0648966,-0.7673893,-8.011049
144,1715729209240,3.05722674,-0.8287484800000001,-8.3446094,3.05722674,-0.8287484800000001,-8.3446094
145,1715729209250,3.1043115,-0.9932252,-9.039827,3.1043115,-0.9932252,-9.039827
146,1715729209260,3.139465,-1.0795115,-9.259138,3.139465,-1.0795115,-9.259138
147,1715729209270,3.1275342,-1.45949102,-9.714112400000001,3.1275342,-1.45949102,-9.714112400000001
148,1715729209280,3.0489178,-2.1157467,-10.040909,3.0489178,-2.1157467,-10.040909
149,1715729209290,3.0106747599999997,-2.4761253400000003,-10.1099378,3.0106747599999997,-2.4761253400000003,-10.1099378
150,1715729209300,2.79509208,-3.22418024,-10.2682096,2.79509208,-3.22418024,-10.2682096
151,1715729209310,2.576074,-3.508712,-10.337984,2.576074,-3.508712,-10.337984
152,1715729209320,2.37780168,-3.67063214,-10.3884778,2.37780168,-3.67063214,-10.3884778
153,1715729209330,2.0041604,-3.8943377,-10.458359,2.0041604,-3.8943377,-10.458359
154,1715729209340,1.677790225,-3.9289586,-10.4181455,1.677790225,-3.9289586,-10.4181455
155,1715729209350,1.2630031599999998,-3.83596106,-10.2634426,1.2630031599999998,-3.83596106,-10.2634426
156,1715729209360,1.1863042,-3.6706321,-10.152761,1.1863042,-3.6706321,-10.152761
157,1715729209370,1.18310842,-3.44506256,-10.0157948,1.18310842,-3.44506256,-10.0157948
158,1715729209380,1.185239,-2.9240155,-9.662873,1.185239,-2.9240155,-9.662873
159,1715729209390,1.1884347499999999,-2.8244799499999997,-9.5046815,1.1884347499999999,-2.8244799499999997,-9.5046815
160,1715729209400,1.2001526,-2.5055,-8.774576,1.2001526,-2.5055,-8.774576
161,1715729209410,1.14902,-2.4149528,-8.463653,1.14902,-2.4149528,-8.463653
162,1715729209420,0.599077638,-2.40685656,-7.72579784,0.599077638,-2.40685656,-7.72579784
163,1715729209430,0.19267955,-2.395778,-7.2111692,0.19267955,-2.395778,-7.2111692
164,1715729209440,-0.0037018019999999984,-2.35705564,-7.0083961200000005,-0.0037018019999999984,-2.35705564,-7.0083961200000005
165,1715729209450,-1.1705916,-1.8451698,-5.9385786,-1.1705916,-1.8451698,-5.9385786
166,1715729209460,-1.26641208,-1.74253164,-5.81202524,-1.26641208,-1.74253164,-5.81202524
167,1715729209470,-1.1663306,-0.7217161,-4.197272,-1.1663306,-0.7217161,-4.197272
168,1715729209480,-0.46762412,-0.476279364,-2.8971176,-0.46762412,-0.476279364,-2.8971176
169,1715729209490,-0.2929475,-0.41492018,-2.572079,-0.2929475,-0.41492018,-2.572079
170,1715729209500,1.115597354,-0.36911386,1.0291778800000002,1.115597354,-0.36911386,1.0291778800000002
171,1715729209510,1.34438938,-0.30157613000000005,2.22046216,1.34438938,-0.30157613000000005,2.22046216
172,1715729209520,0.8091565133333333,0.3864465816666667,4.073235416666667,0.8091565133333333,0.3864465816666667,4.073235416666667
173,1715729209530,0.12876374,1.0249168,5.1161947,0.12876374,1.0249168,5.1161947
174,1715729209540,-0.12576769,1.27092615,5.39948835,-0.12576769,1.27092615,5.39948835
175,1715729209550,-0.8946883,2.1879184,6.4324613,-0.8946883,2.1879184,6.4324613
176,1715729209560,-0.9208937800000001,2.2409684800000003,6.51107792,-0.9208937800000001,2.2409684800000003,6.51107792
177,1715729209570,-0.9383640999999999,2.2763352,6.563489,-0.9383640999999999,2.2763352,6.563489
178,1715729209580,-0.820972048,2.34216856,7.839008959999999,-0.820972048,2.34216856,7.839008959999999
179,1715729209590,-0.7897598299999999,2.2694111,8.060383850000001,-0.7897598299999999,2.2694111,8.060383850000001
180,1715729209600,-0.8446209,1.9121482,8.383625,-0.8446209,1.9121482,8.383625
181,1715729209610,-0.92664623,1.7534239,8.380429,-0.92664623,1.7534239,8.380429
182,1715729209620,-1.3004206,1.3615401,8.171638,-1.3004206,1.3615401,8.171638
183,1715729209630,-1.7520924,1.0089378,7.9320865,-1.7520924,1.0089378,7.9320865
184,1715729209640,-1.94336044,0.8428099400000001,7.877118779999999,-1.94336044,0.8428099400000001,7.877118779999999
185,1715729209650,-2.5646222,0.19853851,7.8042545,-2.5646222,0.19853851,7.8042545
186,1715729209660,-2.548110575,-0.11568096000000001,8.01913845,-2.548110575,-0.11568096000000001,8.01913845
187,1715729209670,-2.3515694,-0.5214465,8.411322,-2.3515694,-0.5214465,8.411322
188,1715729209680,-1.9927087999999997,-0.6013413,8.864991,-1.9927087999999997,-0.6013413,8.864991
189,1715729209690,-1.82660758,-0.44562639600000004,9.13144,-1.82660758,-0.44562639600000004,9.13144
190,1715729209700,-1.6391745,-0.07416898,9.571128,-1.6391745,-0.07416898,9.571128
191,1715729209710,-1.926462775,0.21658141749999998,9.6081125,-1.926462775,0.21658141749999998,9.6081125
192,1715729209720,-2.88755694,0.97484942,9.5626056,-2.88755694,0.97484942,9.5626056
193,1715729209730,-3.7148407,1.3839107,9.315464,-3.7148407,1.3839107,9.315464
194,1715729209740,-4.07905442,1.5440730200000001,9.1770332,-4.07905442,1.5440730200000001,9.1770332
195,1715729209750,-6.244176,2.5968463,8.350602,-6.244176,2.5968463,8.350602
196,1715729209760,-7.0970527599999995,3.03056852,8.139067,-7.0970527599999995,3.03056852,8.139067
197,1715729209770,-8.585093,3.7811532,7.919303000000001,-8.585093,3.7811532,7.919303000000001
198,1715729209780,-9.3791402,4.08443384,7.949982680000001,-9.3791402,4.08443384,7.949982680000001
199,1715729209790,-9.92859,4.243877149999999,7.9240968,-9.92859,4.243877149999999,7.9240968
200,1715729209800,-11.218824,4.038947,7.499589,-11.218824,4.038947,7.499589
201,1715729209810,-11.194776000000001,2.81525212,6.93728974,-11.194776000000001,2.81525212,6.93728974
202,1715729209820,-10.659694,-0.8994820000000001,5.3333755,-10.659694,-0.8994820000000001,5.3333755
203,1715729209830,-7.926893,-4.963596,3.8424059999999995,-7.926893,-4.963596,3.8424059999999995
204,1715729209840,-7.135601825,-5.52455725,3.6507251,-7.135601825,-5.52455725,3.6507251
205,1715729209850,0.27790067,-8.031821,2.7955182,0.27790067,-8.031821,2.7955182
206,1715729209860,0.878096822,-7.40454072,3.2287875400000003,0.878096822,-7.40454072,3.2287875400000003
207,1715729209870,2.0670109,-5.238301,4.7466817,2.0670109,-5.238301,4.7466817
208,1715729209880,1.173521,-3.3064451,5.7371106,1.173521,-3.3064451,5.7371106
209,1715729209890,1.02361845,-2.980541025,5.7570842,1.02361845,-2.980541025,5.7570842
210,1715729209900,0.54940975,0.11864374,4.2525325,0.54940975,0.11864374,4.2525325
211,1715729209910,0.8033153399999999,0.40083208800000003,3.6175287799999998,0.8033153399999999,0.40083208800000003,3.6175287799999998
212,1715729209920,1.5462302,1.0440916,1.8594177,1.5462302,1.0440916,1.8594177
213,1715729209930,2.317348,1.1655316,0.4547344,2.317348,1.1655316,0.4547344
214,1715729209940,2.6964487,1.2646011000000001,-0.15499588000000003,2.6964487,1.2646011000000001,-0.15499588000000003
215,1715729209950,3.6155047000000002,1.9100177,-1.7263928999999998,3.6155047000000002,1.9100177,-1.7263928999999998
216,1715729209960,3.7088218599999996,2.11127264,-1.9347583799999999,3.7088218599999996,2.11127264,-1.9347583799999999
217,1715729209970,3.9105828,2.9622319000000004,-2.843588,3.9105828,2.9622319000000004,-2.843588
218,1715729209980,4.124701,3.2156314999999998,-3.3611732000000005,4.124701,3.2156314999999998,-3.3611732000000005
219,1715729209990,4.20402975,3.218028325,-3.474856775,4.20402975,3.218028325,-3.474856775
220,1715729210000,4.921704399999999,3.01909024,-4.37229478,4.921704399999999,3.01909024,-4.37229478
221,1715729210010,5.5442977,2.582998,-5.0769134,5.5442977,2.582998,-5.0769134
222,1715729210020,6.4516363,1.5712639,-6.2985044,6.4516363,1.5712639,-6.2985044
223,1715729210030,6.917023,1.07818,-7.076946000000001,6.917023,1.07818,-7.076946000000001
224,1715729210040,6.995586250000001,1.000449035,-7.2625349,6.995586250000001,1.000449035,-7.2625349
225,1715729210050,7.3335414,0.54461604,-8.5137205,7.3335414,0.54461604,-8.5137205
226,1715729210060,7.25045075,0.3627555615,-8.92188275,7.25045075,0.3627555615,-8.92188275
227,1715729210070,7.04592,-0.025166854,-9.689505,7.04592,-0.025166854,-9.689505
228,1715729210080,6.763758,-0.6013413,-10.209221,6.763758,-0.6013413,-10.209221
229,1715729210090,6.763758,-0.6013413,-10.209221,6.763758,-0.6013413,-10.209221
230,1715729210100,6.483638233333333,-1.4313148333333334,-10.506340333333334,6.483638233333333,-1.4313148333333334,-10.506340333333334
231,1715729210110,6.117276449999999,-2.6130917,-10.782132500000001,6.117276449999999,-2.6130917,-10.782132500000001
232,1715729210120,5.7966323,-3.6972636999999997,-10.85983,5.7966323,-3.6972636999999997,-10.85983
233,1715729210130,5.770888216666667,-3.799351533333333,-10.858054166666667,5.770888216666667,-3.799351533333333,-10.858054166666667
234,1715729210140,5.5985729,-4.15034702,-10.791946,5.5985729,-4.15034702,-10.791946
235,1715729210150,5.2683945,-4.5077963,-10.690586,5.2683945,-4.5077963,-10.690586
236,1715729210160,4.89589846,-4.57163224,-10.589386399999999,4.89589846,-4.57163224,-10.589386399999999
237,1715729210170,3.9127133,-4.671714,-10.335854,3.9127133,-4.671714,-10.335854
238,1715729210180,3.0872672,-4.5524044,-10.131456,3.0872672,-4.5524044,-10.131456
239,1715729210190,3.0872672,-4.5524044,-10.131456,3.0872672,-4.5524044,-10.131456
240,1715729210200,1.96963915,-4.223370699999999,-9.57921675,1.96963915,-4.223370699999999,-9.57921675
241,1715729210210,1.6354016333333332,-3.888256533333333,-9.232550999999999,1.6354016333333332,-3.888256533333333,-9.232550999999999
242,1715729210220,1.4185317,-3.4193629999999997,-8.84808,1.4185317,-3.4193629999999997,-8.84808
243,1715729210230,1.20228318,-2.78441266,-8.3232778,1.20228318,-2.78441266,-8.3232778
244,1715729210240,0.9466199,-2.3405173,-7.889609,0.9466199,-2.3405173,-7.889609
245,1715729210250,0.39554570749999995,-1.98418675,-7.398356,0.39554570749999995,-1.98418675,-7.398356
246,1715729210260,-0.23282669500000003,-1.7610806,-6.944387300000001,-0.23282669500000003,-1.7610806,-6.944387300000001
247,1715729210270,-2.0236015,-0.9165262000000001,-5.6008897,-2.0236015,-0.9165262000000001,-5.6008897
248,1715729210280,-2.4527695,0.030226856,-4.695682,-2.4527695,0.030226856,-4.695682
249,1715729210290,-2.0491679,0.7640603,-3.5433332999999996,-2.0491679,0.7640603,-3.5433332999999996
250,1715729210300,-1.0502168,0.8567382699999999,-1.8733992999999998,-1.0502168,0.8567382699999999,-1.8733992999999998
251,1715729210310,-0.42450756,0.6868287275,-0.67820678,-0.42450756,0.6868287275,-0.67820678
252,1715729210320,0.65167505,0.40932757,1.4462285,0.65167505,0.40932757,1.4462285
253,1715729210330,0.91610455,0.40400124500000006,2.1251120833333332,0.91610455,0.40400124500000006,2.1251120833333332
254,1715729210340,0.96899045,0.40293597999999997,2.2608888,0.96899045,0.40293597999999997,2.2608888
255,1715729210350,0.96451633,0.7639804480000001,4.64372364,0.96451633,0.7639804480000001,4.64372364
256,1715729210360,0.71830726,1.0562355399999999,5.943904399999999,0.71830726,1.0562355399999999,5.943904399999999
257,1715729210370,0.015879085,1.539305975,7.800992225,0.015879085,1.539305975,7.800992225
258,1715729210380,-0.20453063,1.7246618000000002,8.606132,-0.20453063,1.7246618000000002,8.606132
259,1715729210390,-0.23542327,1.7587503,9.187633,-0.23542327,1.7587503,9.187633
260,1715729210400,-0.10985532,1.6415713,9.504016,-0.10985532,1.6415713,9.504016
261,1715729210410,-0.083223725,1.5659376,9.540767500000001,-0.083223725,1.5659376,9.540767500000001
262,1715729210420,-0.102753555,0.9117325166666667,9.5047265,-0.102753555,0.9117325166666667,9.5047265
263,1715729210430,-0.377289764,0.299232552,9.1640364,-0.377289764,0.299232552,9.1640364
264,1715729210440,-0.9873662600000002,-0.48629284000000006,8.439018,-0.9873662600000002,-0.48629284000000006,8.439018
265,1715729210450,-1.3888375,-0.7524756,7.9267597,-1.3888375,-0.7524756,7.9267597
266,1715729210460,-1.3888375,-0.7524756,7.9267597,-1.3888375,-0.7524756,7.9267597
267,1715729210470,-2.2046962,-0.6311687,7.2238193,-2.2046962,-0.6311687,7.2238193
268,1715729210480,-2.3740510500000003,-0.30843819833333336,7.394949166666667,-2.3740510500000003,-0.30843819833333336,7.394949166666667
269,1715729210490,-2.6136243,0.36245596,7.867105,-2.6136243,0.36245596,7.867105
270,1715729210500,-2.956506,0.9247820000000001,8.247272,-2.956506,0.9247820000000001,8.247272
271,1715729210510,-3.126096,1.09948524,8.3341972,-3.126096,1.09948524,8.3341972
272,1715729210520,-4.387954,1.9535604,8.584826,-4.387954,1.9535604,8.584826
273,1715729210530,-4.769638,2.10951488,8.549992399999999,-4.769638,2.10951488,8.549992399999999
274,1715729210540,-5.32511975,2.243545025,8.459525,-5.32511975,2.243545025,8.459525
275,1715729210550,-7.247201680000001,2.44440712,8.1384008,-7.247201680000001,2.44440712,8.1384008
276,1715729210560,-7.382676599999999,2.4233415,8.119439,-7.382676599999999,2.4233415,8.119439
277,1715729210570,-7.7133411,2.1700751250000003,8.146604,-7.7133411,2.1700751250000003,8.146604
278,1715729210580,-8.034910919999998,0.9388967600000001,8.6711398,-8.034910919999998,0.9388967600000001,8.6711398
279,1715729210590,-7.93967625,-0.07729818000000005,9.0891625,-7.93967625,-0.07729818000000005,9.0891625
280,1715729210600,-7.2282133,-2.22973,9.372989,-7.2282133,-2.22973,9.372989
281,1715729210610,-6.77664826,-2.9828712800000003,9.2178866,-6.77664826,-2.9828712800000003,9.2178866
282,1715729210620,-3.3293483,-5.865607700000001,8.213182,-3.3293483,-5.865607700000001,8.213182
283,1715729210630,-1.7808544999999998,-6.4151506,7.916106999999999,-1.7808544999999998,-6.4151506,7.916106999999999
284,1715729210640,2.2875204,-6.346974,7.758448,2.2875204,-6.346974,7.758448
285,1715729210650,3.8029912,-5.165863,8.130092,3.8029912,-5.165863,8.130092
286,1715729210660,3.8362274399999996,-4.61895636,8.2638892,3.8362274399999996,-4.61895636,8.2638892
287,1715729210670,3.22087784,-3.30002684,8.3344098,3.22087784,-3.30002684,8.3344098
288,1715729210680,2.8051054,-2.5118916,8.359124,2.8051054,-2.5118916,8.359124
289,1715729210690,2.1650152,-1.6897744,8.111982,2.1650152,-1.6897744,8.111982
290,1715729210700,0.20439745,0.8098666700000001,4.246141,0.20439745,0.8098666700000001,4.246141
291,1715729210710,0.972252825,1.017348985,3.0481632,0.972252825,1.017348985,3.0481632
292,1715729210720,2.2481058,1.292298,1.2832432,2.2481058,1.292298,1.2832432
293,1715729210730,2.79381374,1.4488384799999998,0.73266169,2.79381374,1.4488384799999998,0.73266169
294,1715729210740,4.08035932,1.9347052200000001,-0.7983618399999999,4.08035932,1.9347052200000001,-0.7983618399999999
295,1715729210750,4.2907486,2.2422469,-1.584846,4.2907486,2.2422469,-1.584846
296,1715729210760,4.34955124,2.3080801600000003,-2.2404623999999997,4.34955124,2.3080801600000003,-2.2404623999999997
297,1715729210770,4.7904018,2.2488158833333336,-4.362720583333333,4.7904018,2.2488158833333336,-4.362720583333333
298,1715729210780,4.95893544,2.1653613399999996,-5.02495508,4.95893544,2.1653613399999996,-5.02495508
299,1715729210790,5.30994,1.9132135,-6.5380554,5.30994,1.9132135,-6.5380554
300,1715729210800,5.319527,1.5329144,-7.764973,5.319527,1.5329144,-7.764973
301,1715729210810,5.2641866,1.47800008,-8.0158962,5.2641866,1.47800008,-8.0158962
302,1715729210820,4.9883633,1.3871064,-9.10907,4.9883633,1.3871064,-9.10907
303,1715729210830,4.93147814,1.3966938,-9.2885936,4.93147814,1.3966938,-9.2885936
304,1715729210840,4.5975447,1.0962894,-10.313483,4.5975447,1.0962894,-10.313483
305,1715729210850,4.5602603,0.80454034,-10.652237,4.5602603,0.80454034,-10.652237
306,1715729210860,4.55759715,0.56225945,-10.8322,4.55759715,0.56225945,-10.8322
307,1715729210870,4.6050014,-0.20732692999999996,-11.283805,4.6050014,-0.20732692999999996,-11.283805
308,1715729210880,4.64263196,-0.34977931399999995,-11.3527546,4.64263196,-0.34977931399999995,-11.3527546
309,1715729210890,4.7099034,-0.7842471019999999,-11.472863,4.7099034,-0.7842471019999999,-11.472863
310,1715729210900,4.6986117,-1.7558208,-11.554249,4.6986117,-1.7558208,-11.554249
311,1715729210910,4.6581849,-1.93899288,-11.521865,4.6581849,-1.93899288,-11.521865
312,1715729210920,4.271574,-2.942125,-11.182605,4.271574,-2.942125,-11.182605
313,1715729210930,4.072503,-3.1828747,-11.037729,4.072503,-3.1828747,-11.037729
314,1715729210940,3.324821,-3.5374741999999997,-10.606431,3.324821,-3.5374741999999997,-10.606431
315,1715729210950,2.92609284,-3.47185396,-10.3925254,2.92609284,-3.47185396,-10.3925254
316,1715729210960,2.706036,-3.3841427499999996,-10.2198065,2.706036,-3.3841427499999996,-10.2198065
317,1715729210970,2.471811,-3.0763483,-9.531846,2.471811,-3.0763483,-9.531846
318,1715729210980,2.5546020499999997,-3.0486514749999998,-9.240297,2.5546020499999997,-3.0486514749999998,-9.240297
319,1715729210990,2.7774086,-3.0209546,-8.627704,2.7774086,-3.0209546,-8.627704
320,1715729211000,2.93000765,-3.11043665,-8.249002,2.93000765,-3.11043665,-8.249002
321,1715729211010,2.9888635,-3.1431935,-8.063413,2.9888635,-3.1431935,-8.063413
322,1715729211020,3.0034576,-2.80864744,-7.588032799999999,3.0034576,-2.80864744,-7.588032799999999
323,1715729211030,2.99600072,-2.56856372,-7.4557535999999995,2.99600072,-2.56856372,-7.4557535999999995
324,1715729211040,2.8221498,-0.6503435,-7.127013,2.8221498,-0.6503435,-7.127013
325,1715729211050,2.4089339599999997,0.126766356,-6.909805799999999,2.4089339599999997,0.126766356,-6.909805799999999
326,1715729211060,2.18272522,0.41476038800000004,-6.7745706,2.18272522,0.41476038800000004,-6.7745706
327,1715729211070,0.9466199,1.1570095,-5.6403046,0.9466199,1.1570095,-5.6403046
328,1715729211080,0.69215506,1.3306475,-4.8947535,0.69215506,1.3306475,-4.8947535
329,1715729211090,0.91359675,1.2624706,-3.0566409,0.91359675,1.2624706,-3.0566409
330,1715729211100,1.16329455,0.93703252,-1.88005722,1.16329455,0.93703252,-1.88005722
331,1715729211110,1.2569667333333332,0.7945978866666668,-1.3997120833333334,1.2569667333333332,0.7945978866666668,-1.3997120833333334
332,1715729211120,1.43781292,0.0487358096,0.9447823199999998,1.43781292,0.0487358096,0.9447823199999998
333,1715729211130,1.416101475,-0.118111102,1.5473287249999998,1.416101475,-0.118111102,1.5473287249999998
334,1715729211140,1.0595379,-0.32224226,3.5677010000000005,1.0595379,-0.32224226,3.5677010000000005
335,1715729211150,0.728374,-0.21997695,5.0906286,0.728374,-0.21997695,5.0906286
336,1715729211160,0.6670148,-0.16847145000000002,5.42757156,0.6670148,-0.16847145000000002,5.42757156
337,1715729211170,0.4982770475,0.10293110250000001,6.70856445,0.4982770475,0.10293110250000001,6.70856445
338,1715729211180,0.46099283,0.23102905,7.2014487,0.46099283,0.23102905,7.2014487
339,1715729211190,0.33664548833333335,0.5659434966666667,8.349936133333333,0.33664548833333335,0.5659434966666667,8.349936133333333
340,1715729211200,0.009454215,0.9130641,8.969387,0.009454215,0.9130641,8.969387
341,1715729211210,-0.022503694999999997,0.9548757,8.99229,-0.022503694999999997,0.9548757,8.99229
342,1715729211220,-0.287860869,1.4014874599999998,9.1213998,-0.287860869,1.4014874599999998,9.1213998
343,1715729211230,-0.4804339074999999,1.651158625,9.156474,-0.4804339074999999,1.651158625,9.156474
344,1715729211240,-1.23916794,1.7221051799999998,9.172293,-1.23916794,1.7221051799999998,9.172293
345,1715729211250,-1.6072165000000003,1.5840471,9.140761,-1.6072165000000003,1.5840471,9.140761
346,1715729211260,-1.8138111499999998,1.49509755,9.067857,-1.8138111499999998,1.49509755,9.067857
347,1715729211270,-2.382462,1.2230558,8.817054,-2.382462,1.2230558,8.817054
348,1715729211280,-2.56270464,1.0967421800000001,8.7529254,-2.56270464,1.0967421800000001,8.7529254
349,1715729211290,-2.8075023,0.8439551,8.72331,-2.8075023,0.8439551,8.72331
350,1715729211300,-2.837862375,0.7297056049999999,8.80480275,-2.837862375,0.7297056049999999,8.80480275
351,1715729211310,-2.8522434,0.6633929199999999,8.899612000000001,-2.8522434,0.6633929199999999,8.899612000000001
352,1715729211320,-2.9170914,0.55846447,9.073783,-2.9170914,0.55846447,9.073783
353,1715729211330,-2.972485133333333,0.5421304233333334,9.084435666666666,-2.972485133333333,0.5421304233333334,9.084435666666666
354,1715729211340,-3.4634385,0.5286371,9.071652,-3.4634385,0.5286371,9.071652
355,1715729211350,-3.830055525,0.678040325,9.023715,-3.830055525,0.678040325,9.023715
356,1715729211360,-4.06384765,0.80557235,8.99149075,-4.06384765,0.80557235,8.99149075
357,1715729211370,-5.1386986,1.6618112,8.824511,-5.1386986,1.6618112,8.824511
358,1715729211380,-5.287791066666666,1.6472526333333333,8.805336333333333,-5.287791066666666,1.6472526333333333,8.805336333333333
359,1715729211390,-5.585976,1.6181355,8.766987,-5.585976,1.6181355,8.766987
360,1715729211400,-5.4327116,1.3146685,8.7318325,-5.4327116,1.3146685,8.7318325
361,1715729211410,-5.4327116,1.3146685,8.7318325,-5.4327116,1.3146685,8.7318325
362,1715729211420,-5.27675672,1.025769012,8.611671300000001,-5.27675672,1.025769012,8.611671300000001
363,1715729211430,-4.107390154,-0.47694515600000004,8.086842659999999,-4.107390154,-0.47694515600000004,8.086842659999999
364,1715729211440,-0.98949677,-3.7899418,7.0182233,-0.98949677,-3.7899418,7.0182233
365,1715729211450,0.41838230000000004,-4.3586593,6.933135,0.41838230000000004,-4.3586593,6.933135
366,1715729211460,1.0797778500000002,-4.41138985,6.9421235,1.0797778500000002,-4.41138985,6.9421235
367,1715729211470,2.0810590666666666,-3.882775066666667,6.965315333333333,2.0810590666666666,-3.882775066666667,6.965315333333333
368,1715729211480,1.84602194,-2.59556812,7.0222712000000005,1.84602194,-2.59556812,7.0222712000000005
369,1715729211490,1.2774908,-1.221963908,6.90234928,1.2774908,-1.221963908,6.90234928
370,1715729211500,1.00734,-0.62477714,6.4772024,1.00734,-0.62477714,6.4772024
371,1715729211510,1.09128272,-0.530181724,5.9800972,1.09128272,-0.530181724,5.9800972
372,1715729211520,1.8157419,-0.65140873,3.667836,1.8157419,-0.65140873,3.667836
373,1715729211530,2.2199095499999997,-0.8438552575,2.814759375,2.2199095499999997,-0.8438552575,2.814759375
374,1715729211540,2.9329371,-0.6641919,0.8753804,2.9329371,-0.6641919,0.8753804
375,1715729211550,2.9265455250000003,-0.40772967,0.41049269,2.9265455250000003,-0.40772967,0.41049269
376,1715729211560,2.924415,-0.32224226,0.25553012,2.924415,-0.32224226,0.25553012
377,1715729211570,2.20176675,1.18713646,-2.151100225,2.20176675,1.18713646,-2.151100225
378,1715729211580,2.2161478,1.3577450500000001,-2.72168205,2.2161478,1.3577450500000001,-2.72168205
379,1715729211590,2.95954214,0.855353436,-4.3220674,2.95954214,0.855353436,-4.3220674
380,1715729211600,3.4153683,0.47963494000000007,-4.995953,3.4153683,0.47963494000000007,-4.995953
381,1715729211610,3.6198324,0.310857235,-5.40121935,3.6198324,0.310857235,-5.40121935
382,1715729211620,3.9340186,-0.16578165,-6.51462,3.9340186,-0.16578165,-6.51462
383,1715729211630,3.9207028,-0.21365194,-6.6648222,3.9207028,-0.21365194,-6.6648222
384,1715729211640,3.749728,-0.41598547,-7.5360746,3.749728,-0.41598547,-7.5360746
385,1715729211650,3.66109808,-0.547225926,-7.84191148,3.66109808,-0.547225926,-7.84191148
386,1715729211660,3.6389406,-0.58003604,-7.9183707,3.6389406,-0.58003604,-7.9183707
387,1715729211670,3.6304184999999998,-0.93357044,-8.7255745,3.6304184999999998,-0.93357044,-8.7255745
388,1715729211680,3.63574475,-0.99002942,-8.82464425,3.63574475,-0.99002942,-8.82464425
389,1715729211690,3.5956308999999997,-1.3955286500000001,-9.26076925,3.5956308999999997,-1.3955286500000001,-9.26076925
390,1715729211700,3.4643705,-1.8994982,-9.549955,3.4643705,-1.8994982,-9.549955
391,1715729211710,3.4347562,-1.97406666,-9.5804216,3.4347562,-1.97406666,-9.5804216
392,1715729211720,3.1458566,-2.553437,-9.894968,3.1458566,-2.553437,-9.894968
393,1715729211730,3.04791905,-2.6855297,-9.949829000000001,3.04791905,-2.6855297,-9.949829000000001
394,1715729211740,2.665556,-3.1850052,-10.2411785,2.665556,-3.1850052,-10.2411785
395,1715729211750,2.64425065,-3.2148326000000003,-10.25449425,2.64425065,-3.2148326000000003,-10.25449425
396,1715729211760,2.4375229666666667,-3.4638156666666666,-10.296994166666666,2.4375229666666667,-3.4638156666666666,-10.296994166666666
397,1715729211770,2.14371,-3.5353436,-10.295374,2.14371,-3.5353436,-10.295374
398,1715729211780,1.9541263,-3.551322625,-10.295374,1.9541263,-3.551322625,-10.295374
399,1715729211790,1.5355775,-3.5800848,-10.294309,1.5355775,-3.5800848,-10.294309
400,1715729211800,1.1470759000000001,-3.47611504,-10.2032282,1.1470759000000001,-3.47611504,-10.2032282
401,1715729211810,1.0499505,-3.4501226,-10.180458,1.0499505,-3.4501226,-10.180458
402,1715729211820,0.436385264,-3.27555246,-9.8361658,0.436385264,-3.27555246,-9.8361658
403,1715729211830,0.2608564426,-3.20204926,-9.663007,0.2608564426,-3.20204926,-9.663007
404,1715729211840,0.0224504318,-3.00095416,-9.257034800000001,0.0224504318,-3.00095416,-9.257034800000001
405,1715729211850,0.0418382296,-2.81527872,-8.906269300000002,0.0418382296,-2.81527872,-8.906269300000002
406,1715729211860,0.1330248,-2.6652896,-8.5765705,0.1330248,-2.6652896,-8.5765705
407,1715729211870,0.19587535,-2.6077654,-8.251665,0.19587535,-2.6077654,-8.251665
408,1715729211880,0.140268592,-2.58347734,-8.061276,0.140268592,-2.58347734,-8.061276
409,1715729211890,-0.2727075,-2.4884558,-7.7063837,-0.2727075,-2.4884558,-7.7063837
410,1715729211900,-0.68709505,-2.3287995,-7.4721584,-0.68709505,-2.3287995,-7.4721584
411,1715729211910,-1.5695061799999999,-1.58860106,-6.607537600000001,-1.5695061799999999,-1.58860106,-6.607537600000001
412,1715729211920,-1.7339829000000002,-1.1626021,-6.105692,-1.7339829000000002,-1.1626021,-6.105692
413,1715729211930,-1.68668518,-0.89037398,-5.778975600000001,-1.68668518,-0.89037398,-5.778975600000001
414,1715729211940,-1.01503644,0.46200483999999997,-3.79955572,-1.01503644,0.46200483999999997,-3.79955572
415,1715729211950,-0.7570029500000001,0.777908755,-3.173253875,-0.7570029500000001,0.777908755,-3.173253875
416,1715729211960,-0.2015745,1.014104356,-1.526256456,-0.2015745,1.014104356,-1.526256456
417,1715729211970,0.3071954083333333,1.3029506166666667,0.6327222066666667,0.3071954083333333,1.3029506166666667,0.6327222066666667
418,1715729211980,0.355598315,1.3928988,1.1437602199999999,0.355598315,1.3928988,1.1437602199999999
419,1715729211990,0.3407512,1.7981651,3.021354,0.3407512,1.7981651,3.021354
420,1715729212000,0.30772802,1.9057567,3.8658419000000004,0.30772802,1.9057567,3.8658419000000004
421,1715729212010,0.308260655,1.94806765,4.224236525,0.308260655,1.94806765,4.224236525
422,1715729212020,0.34820804799999994,2.2318073,6.09772888,0.34820804799999994,2.2318073,6.09772888
423,1715729212030,0.318114355,2.43795575,7.0254469,0.318114355,2.43795575,7.0254469
424,1715729212040,0.189696822,2.64180042,8.03070292,0.189696822,2.64180042,8.03070292
425,1715729212050,0.08402267,2.7065685,8.518913,0.08402267,2.7065685,8.518913
426,1715729212060,-0.04061318,2.7086992,8.861795,-0.04061318,2.7086992,8.861795
427,1715729212070,-0.13089427250000002,2.6320002249999996,8.907335,-0.13089427250000002,2.6320002249999996,8.907335
428,1715729212080,-0.16098797,2.6064339,8.922515,-0.16098797,2.6064339,8.922515
429,1715729212090,-0.81692404,1.6394407999999998,8.537023,-0.81692404,1.6394407999999998,8.537023
430,1715729212100,-1.2281158,1.0675273,8.334622,-1.2281158,1.0675273,8.334622
431,1715729212110,-1.5092123,0.7150582,8.232357,-1.5092123,0.7150582,8.232357
432,1715729212120,-1.7329177,0.39228335,8.266446,-1.7329177,0.39228335,8.266446
433,1715729212130,-1.7329177,0.39228335,8.266446,-1.7329177,0.39228335,8.266446
434,1715729212140,-1.5187997,0.082424775,9.071652,-1.5187997,0.082424775,9.071652
435,1715729212150,-1.4285185999999999,0.11278478625,9.2960565,-1.4285185999999999,0.11278478625,9.2960565
436,1715729212160,-1.3984249,0.12290479000000001,9.370858,-1.3984249,0.12290479000000001,9.370858
437,1715729212170,-1.34303112,0.757029626,10.4720738,-1.34303112,0.757029626,10.4720738
438,1715729212180,-1.6849142,1.16103752,10.510157249999999,-1.6849142,1.16103752,10.510157249999999
439,1715729212190,-2.4208117,1.8056218999999998,10.391114,-2.4208117,1.8056218999999998,10.391114
440,1715729212200,-3.937680425,2.549808325,10.153061,-3.937680425,2.549808325,10.153061
441,1715729212210,-4.5806336,2.81416,10.094039,-4.5806336,2.81416,10.094039
442,1715729212220,-5.6435003,3.1304104,10.03758,-5.6435003,3.1304104,10.03758
443,1715729212230,-5.8136429750000005,3.1674283,10.021601,-5.8136429750000005,3.1674283,10.021601
444,1715729212240,-7.1644306,3.3242884,9.788308,-7.1644306,3.3242884,9.788308
445,1715729212250,-7.3409759333333335,2.7411674,9.554061333333335,-7.3409759333333335,2.7411674,9.554061333333335
446,1715729212260,-6.9417906,1.2315779,9.030107,-6.9417906,1.2315779,9.030107
447,1715729212270,-5.84377,-0.32543805,8.353798,-5.84377,-0.32543805,8.353798
448,1715729212280,-5.20413256,-0.7925827799999999,8.04005104,-5.20413256,-0.7925827799999999,8.04005104
449,1715729212290,-3.1812768,-1.9612836000000002,7.199318,-3.1812768,-1.9612836000000002,7.199318
450,1715729212300,-2.6818013,-2.4224095,7.0011787,-2.6818013,-2.4224095,7.0011787
451,1715729212310,-1.49073002,-3.4866078199999997,6.66636654,-1.49073002,-3.4866078199999997,6.66636654
452,1715729212320,-0.096006885,-3.8421397,6.4612236,-0.096006885,-3.8421397,6.4612236
453,1715729212330,-0.096006885,-3.8421397,6.4612236,-0.096006885,-3.8421397,6.4612236
454,1715729212340,0.674897764,-2.50557998,6.3673737599999995,0.674897764,-2.50557998,6.3673737599999995
455,1715729212350,0.71559083,-2.2808626,6.3484387,0.71559083,-2.2808626,6.3484387
456,1715729212360,-0.15885743,-1.0954905,4.7285724,-0.15885743,-1.0954905,4.7285724
457,1715729212370,-0.20934648833333336,-1.0555431666666666,3.4230693166666666,-0.20934648833333336,-1.0555431666666666,3.4230693166666666
458,1715729212380,-0.127332285,-1.0496842,2.873881525,-0.127332285,-1.0496842,2.873881525
459,1715729212390,0.99136096,-0.75780195,0.27257434,0.99136096,-0.75780195,0.27257434
460,1715729212400,1.1213231,-0.6418213,-0.05752423799999999,1.1213231,-0.6418213,-0.05752423799999999
461,1715729212410,1.4887059999999999,0.35926017,-2.304698,1.4887059999999999,0.35926017,-2.304698
462,1715729212420,1.48551016,0.634098168,-2.9788499600000002,1.48551016,0.634098168,-2.9788499600000002
463,1715729212430,1.5086796249999999,0.877477625,-3.6069493,1.5086796249999999,0.877477625,-3.6069493
464,1715729212440,1.9425082,1.0717884,-4.885299,1.9425082,1.0717884,-4.885299
465,1715729212450,2.2873074200000003,0.7961514291999999,-5.2407509,2.2873074200000003,0.7961514291999999,-5.2407509
466,1715729212460,3.1660967,0.045140546,-6.0556245,3.1660967,0.045140546,-6.0556245
467,1715729212470,3.7422712,-0.32117698,-6.669083,3.7422712,-0.32117698,-6.669083
468,1715729212480,3.7422712,-0.32117698,-6.669083,3.7422712,-0.32117698,-6.669083
469,1715729212490,4.09018618,-0.44197787999999993,-7.7513644,4.09018618,-0.44197787999999993,-7.7513644
470,1715729212500,4.07420716,-0.45646546800000004,-8.0224738,4.07420716,-0.45646546800000004,-8.0224738
471,1715729212510,3.8477322999999997,-0.575775,-8.852341,3.8477322999999997,-0.575775,-8.852341
472,1715729212520,3.7252269,-0.782303,-9.325185,3.7252269,-0.782303,-9.325185
473,1715729212530,3.68101845,-0.9250482999999999,-9.511606,3.68101845,-0.9250482999999999,-9.511606
474,1715729212540,3.4473262,-1.5875092,-10.265679,3.4473262,-1.5875092,-10.265679
475,1715729212550,3.362637775,-1.736912425,-10.405395,3.362637775,-1.736912425,-10.405395
476,1715729212560,2.9670255,-2.2552962,-10.8204155,2.9670255,-2.2552962,-10.8204155
477,1715729212570,2.76931262,-2.45375492,-10.900523100000001,2.76931262,-2.45375492,-10.900523100000001
478,1715729212580,2.64446372,-2.5672854000000003,-10.927794,2.64446372,-2.5672854000000003,-10.927794
479,1715729212590,2.3205104,-2.822149725,-10.92348,2.3205104,-2.822149725,-10.92348
480,1715729212600,2.11774414,-2.97328398,-10.894558100000001,2.11774414,-2.97328398,-10.894558100000001
481,1715729212610,1.8114809,-3.1913967,-10.8246765,1.8114809,-3.1913967,-10.8246765
482,1715729212620,1.6591481,-3.2350726,-10.718284,1.6591481,-3.2350726,-10.718284
483,1715729212630,1.6370438999999999,-3.22228945,-10.68712475,1.6370438999999999,-3.22228945,-10.68712475
484,1715729212640,1.46335266,-3.1345116,-10.3925254,1.46335266,-3.1345116,-10.3925254
485,1715729212650,1.4081898,-3.1583735,-10.267055666666666,1.4081898,-3.1583735,-10.267055666666666
486,1715729212660,1.4492912,-3.5172342999999997,-9.8800535,1.4492912,-3.5172342999999997,-9.8800535
487,1715729212670,1.6399734,-3.7196343,-9.721463,1.6399734,-3.7196343,-9.721463
488,1715729212680,1.6399734,-3.7196343,-9.721463,1.6399734,-3.7196343,-9.721463
489,1715729212690,2.21851798,-4.088748239999999,-9.3324286,2.21851798,-4.088748239999999,-9.3324286
490,1715729212700,2.349305825,-4.193010725000001,-9.125813875,2.349305825,-4.193010725000001,-9.125813875
491,1715729212710,2.205495,-4.2095222,-8.302798,2.205495,-4.2095222,-8.302798
492,1715729212720,1.7539566,-3.9188385000000006,-7.9055877,1.7539566,-3.9188385000000006,-7.9055877
493,1715729212730,1.5132514,-3.7136421333333334,-7.840251633333334,1.5132514,-3.7136421333333334,-7.840251633333334
494,1715729212740,0.15859112,-2.4671507,-7.598792,0.15859112,-2.4671507,-7.598792
495,1715729212750,-0.157692295,-2.11012085,-7.521393875,-0.157692295,-2.11012085,-7.521393875
496,1715729212760,-1.1684611,-0.41918126,-6.71702,-1.1684611,-0.41918126,-6.71702
497,1715729212770,-1.38481614,0.277714228,-5.687762080000001,-1.38481614,0.277714228,-5.687762080000001
498,1715729212780,-1.41930402,0.614710396,-4.652165999999999,-1.41930402,0.614710396,-4.652165999999999
499,1715729212790,-0.82225037,0.88217145,-1.2226564,-0.82225037,0.88217145,-1.2226564
500,1715729212800,-0.369912805,0.846285375,-0.023735432499999987,-0.369912805,0.846285375,-0.023735432499999987
501,1715729212810,0.563258128,0.78515254,2.7585002199999997,0.563258128,0.78515254,2.7585002199999997
502,1715729212820,0.5675192,0.8439551,3.8200355000000004,0.5675192,0.8439551,3.8200355000000004
503,1715729212830,0.40333544000000005,0.98065508,4.483321999999999,0.40333544000000005,0.98065508,4.483321999999999
504,1715729212840,0.07123951,1.4743248,5.9148765,0.07123951,1.4743248,5.9148765
505,1715729212850,0.0218112737,1.8124129,6.6486833,0.0218112737,1.8124129,6.6486833
506,1715729212860,0.0126500055,2.2060277,7.539004,0.0126500055,2.2060277,7.539004
507,1715729212870,0.12769848,2.3327942,8.18016,0.12769848,2.3327942,8.18016
508,1715729212880,0.177499555,2.36049105,8.300501500000001,0.177499555,2.36049105,8.300501500000001
509,1715729212890,0.4620581,2.5297348,8.911862,0.4620581,2.5297348,8.911862
510,1715729212900,0.452470735,2.5217453,9.045486499999999,0.452470735,2.5217453,9.045486499999999
511,1715729212910,0.23209432,2.41695,9.164197,0.23209432,2.41695,9.164197
512,1715729212920,-0.124935455,2.337854175,9.0764125,-0.124935455,2.337854175,9.0764125
513,1715729212930,-0.41907470799999996,2.28421818,8.9951662,-0.41907470799999996,2.28421818,8.9951662
514,1715729212940,-1.334509,2.048369,8.7275715,-1.334509,2.048369,8.7275715
515,1715729212950,-1.4631396250000002,1.979659325,8.713190625,-1.4631396250000002,1.979659325,8.713190625
516,1715729212960,-1.584846,1.7449019,8.986431,-1.584846,1.7449019,8.986431
517,1715729212970,-1.390968,1.7097481,9.407077,-1.390968,1.7097481,9.407077
518,1715729212980,-1.390968,1.7097481,9.407077,-1.390968,1.7097481,9.407077
519,1715729212990,-1.1045452,1.9429077,10.189779,-1.1045452,1.9429077,10.189779
520,1715729213000,-1.1143989,1.99217615,10.232656,-1.1143989,1.99217615,10.232656
521,1715729213010,-1.5731281,2.679937,10.317611,-1.5731281,2.679937,10.317611
522,1715729213020,-2.2941785,3.0345366,9.991774,-2.2941785,3.0345366,9.991774
523,1715729213030,-2.49546004,3.08481702,9.8908136,-2.49546004,3.08481702,9.8908136
524,1715729213040,-4.4326954,3.4734251,8.9598,-4.4326954,3.4734251,8.9598
525,1715729213050,-4.694306366666667,3.524868533333333,8.863216,-4.694306366666667,3.524868533333333,8.863216
526,1715729213060,-6.2814603,3.796067,8.509326,-6.2814603,3.796067,8.509326
527,1715729213070,-6.65803078,3.66738316,8.6856268,-6.65803078,3.66738316,8.6856268
528,1715729213080,-6.73683364,3.5027466399999994,8.7887176,-6.73683364,3.5027466399999994,8.7887176
529,1715729213090,-6.069606,2.129329,9.126912,-6.069606,2.129329,9.126912
530,1715729213100,-5.4018188,1.7086829,9.030107,-5.4018188,1.7086829,9.030107
531,1715729213110,-4.4273686,1.3253211,8.610393,-4.4273686,1.3253211,8.610393
532,1715729213120,-3.8469334,0.19640799,8.052328,-3.8469334,0.19640799,8.052328
533,1715729213130,-3.152559,-1.1448477366666667,7.6313711333333325,-3.152559,-1.1448477366666667,7.6313711333333325
534,1715729213140,-1.3901690800000002,-3.5534532800000003,7.0187557400000005,-1.3901690800000002,-3.5534532800000003,7.0187557400000005
535,1715729213150,-0.28395936,-4.47630435,6.77973725,-0.28395936,-4.47630435,6.77973725
536,1715729213160,1.29542714,-4.963063200000001,6.472475299999999,1.29542714,-4.963063200000001,6.472475299999999
537,1715729213170,2.2907164,-4.543882,6.2099543,2.2907164,-4.543882,6.2099543
538,1715729213180,2.2907164,-4.543882,6.2099543,2.2907164,-4.543882,6.2099543
539,1715729213190,-0.42930126,-0.6833666,5.610344,-0.42930126,-0.6833666,5.610344
540,1715729213200,-0.74615063,-0.25519720500000004,5.3158653000000005,-0.74615063,-0.25519720500000004,5.3158653000000005
541,1715729213210,-0.7767636400000001,0.824700518,3.84224612,-0.7767636400000001,0.824700518,3.84224612
542,1715729213220,0.233718834,1.1495526000000003,2.4184946,0.233718834,1.1495526000000003,2.4184946
543,1715729213230,0.46844968,1.1900326,2.136253,0.46844968,1.1900326,2.136253
544,1715729213240,2.4592276749999997,0.7118291,-0.448176425,2.4592276749999997,0.7118291,-0.448176425
545,1715729213250,2.7699517499999997,0.5542033875,-0.9891972,2.7699517499999997,0.5542033875,-0.9891972
546,1715729213260,3.1948588,-0.08908266999999999,-3.5433333,3.1948588,-0.08908266999999999,-3.5433333
547,1715729213270,3.17270136,-0.11891005400000002,-3.7954811399999997,3.17270136,-0.11891005400000002,-3.7954811399999997
548,1715729213280,2.93711828,-0.161680392,-4.58657246,2.93711828,-0.161680392,-4.58657246
549,1715729213290,2.3184133,-0.2561959,-6.384791,2.3184133,-0.2561959,-6.384791
550,1715729213300,2.3184133,-0.2561959,-6.384791,2.3184133,-0.2561959,-6.384791
551,1715729213310,2.4686153,-0.40320230000000007,-7.281476499999999,2.4686153,-0.40320230000000007,-7.281476499999999
552,1715729213320,2.823215,-0.45753074,-7.611575,2.823215,-0.45753074,-7.611575
553,1715729213330,2.823215,-0.45753074,-7.611575,2.823215,-0.45753074,-7.611575
554,1715729213340,3.2577093500000003,-0.677774005,-8.120138325000001,3.2577093500000003,-0.677774005,-8.120138325000001
555,1715729213350,3.39299785,-0.859068545,-8.326766500000002,3.39299785,-0.859068545,-8.326766500000002
556,1715729213360,3.6240269999999994,-1.5097449,-8.734097,3.6240269999999994,-1.5097449,-8.734097
557,1715729213370,3.6478889199999998,-1.6503596999999999,-8.798865,3.6478889199999998,-1.6503596999999999,-8.798865
558,1715729213380,3.6538544,-1.6855134000000003,-8.815057,3.6538544,-1.6855134000000003,-8.815057
559,1715729213390,3.388204225,-2.11255095,-9.07817625,3.388204225,-2.11255095,-9.07817625
560,1715729213400,3.220469533333333,-2.2403382,-9.161577666666668,3.220469533333333,-2.2403382,-9.161577666666668
561,1715729213410,2.969156,-2.440519,-9.296423,2.969156,-2.440519,-9.296423
562,1715729213420,2.904175,-2.5225444,-9.347555,2.904175,-2.5225444,-9.347555
563,1715729213430,2.7039053,-2.7409234,-9.331576,2.7039053,-2.7409234,-9.331576
564,1715729213440,2.56116,-2.8453193,-9.241029,2.56116,-2.8453193,-9.241029
565,1715729213450,2.5010392,-2.85703715,-9.2133985,2.5010392,-2.85703715,-9.2133985
566,1715729213460,2.1831248,-2.828275,-9.147419,2.1831248,-2.828275,-9.147419
567,1715729213470,2.0755332,-2.808035,-9.138897,2.0755332,-2.808035,-9.138897
568,1715729213480,1.8173065000000002,-2.778473925,-9.14662,1.8173065000000002,-2.778473925,-9.14662
569,1715729213490,1.6005586,-2.7771423,-9.150615,1.6005586,-2.7771423,-9.150615
570,1715729213500,1.5537203000000002,-2.784865475,-9.1562075,1.5537203000000002,-2.784865475,-9.1562075
571,1715729213510,1.1234536,-2.930407,-9.22505,1.1234536,-2.930407,-9.22505
572,1715729213520,1.0527201600000002,-2.9721654,-9.2122668,1.0527201600000002,-2.9721654,-9.2122668
573,1715729213530,0.9884648,-3.0190903000000002,-9.15104725,0.9884648,-3.0190903000000002,-9.15104725
574,1715729213540,0.8732499,-3.2510514,-8.724509,0.8732499,-3.2510514,-8.724509
575,1715729213550,0.91878992,-3.2864181200000004,-8.6359326,0.91878992,-3.2864181200000004,-8.6359326
576,1715729213560,1.221458,-3.3128366,-8.115445,1.221458,-3.3128366,-8.115445
577,1715729213570,1.2896348,-3.1338725,-7.704253,1.2896348,-3.1338725,-7.704253
578,1715729213580,1.13879352,-2.93626602,-7.3106382,1.13879352,-2.93626602,-7.3106382
579,1715729213590,0.5174518,-2.6812687,-6.7031713,0.5174518,-2.6812687,-6.7031713
580,1715729213600,0.268659484,-2.61948338,-6.529373580000001,0.268659484,-2.61948338,-6.529373580000001
581,1715729213610,-0.6204494975,-2.22570185,-5.796598725,-0.6204494975,-2.22570185,-5.796598725
582,1715729213620,-0.946619895,-1.90003085,-5.386072824999999,-0.946619895,-1.90003085,-5.386072824999999
583,1715729213630,-0.9788441000000001,-0.9346357,-3.9501307,-0.9788441000000001,-0.9346357,-3.9501307
584,1715729213640,-0.88723147,-0.8259788,-3.6637080000000006,-0.88723147,-0.8259788,-3.6637080000000006
585,1715729213650,0.49512567,-0.43764580999999997,-0.6035606666666666,0.49512567,-0.43764580999999997,-0.6035606666666666
586,1715729213660,0.9828388699999999,-0.41065913,0.5238434,0.9828388699999999,-0.41065913,0.5238434
587,1715729213670,1.3013527,-0.36378753,1.6772577,1.3013527,-0.36378753,1.6772577
588,1715729213680,1.3492895,-0.0326237,3.1715562,1.3492895,-0.0326237,3.1715562
589,1715729213690,1.0339715,0.40826228,4.0543933,1.0339715,0.40826228,4.0543933
590,1715729213700,1.0339715,0.40826228,4.0543933,1.0339715,0.40826228,4.0543933
591,1715729213710,0.12343743,1.7406408000000002,5.395160700000001,0.12343743,1.7406408000000002,5.395160700000001
592,1715729213720,-0.09281109,2.1644826,5.659346,-0.09281109,2.1644826,5.659346
593,1715729213730,-0.74129033,3.2997873,6.443113999999999,-0.74129033,3.2997873,6.443113999999999
594,1715729213740,-1.1631347,3.7832836999999997,6.9479156,-1.1631347,3.7832836999999997,6.9479156
595,1715729213750,-1.2398004,3.82216585,7.032337825,-1.2398004,3.82216585,7.032337825
596,1715729213760,-1.9319887,3.893006,7.6465955,-1.9319887,3.893006,7.6465955
597,1715729213770,-2.1056268,3.7992628,7.72436,-2.1056268,3.7992628,7.72436
598,1715729213780,-2.6232116,3.302983,7.855387,-2.6232116,3.302983,7.855387
599,1715729213790,-2.8639612,2.7182865,7.98748,-2.8639612,2.7182865,7.98748
600,1715729213800,-2.8796738399999997,2.51977462,8.0607168,-2.8796738399999997,2.51977462,8.0607168
601,1715729213810,-2.7190855,1.4679333,8.667917,-2.7190855,1.4679333,8.667917
602,1715729213820,-2.5614264,1.2283821,8.909732,-2.5614264,1.2283821,8.909732
603,1715729213830,-1.8488982,0.794953,9.662607,-1.8488982,0.794953,9.662607
604,1715729213840,-1.4378396,0.7459509,10.084452,-1.4378396,0.7459509,10.084452
605,1715729213850,-1.3636973,0.8232091199999999,10.193028600000002,-1.3636973,0.8232091199999999,10.193028600000002
606,1715729213860,-1.6114776,1.288037,10.200432,-1.6114776,1.288037,10.200432
607,1715729213870,-1.8979003000000003,1.442367,10.041841,-1.8979003000000003,1.442367,10.041841
608,1715729213880,-2.9096346,1.6490281,9.512538,-2.9096346,1.6490281,9.512538
609,1715729213890,-3.66214335,2.0739685,9.312801375,-3.66214335,2.0739685,9.312801375
610,1715729213900,-4.01905328,2.26525656,9.2125868,-4.01905328,2.26525656,9.2125868
611,1715729213910,-5.552021,2.7747455,8.554067,-5.552021,2.7747455,8.554067
612,1715729213920,-5.62302725,2.7555707,8.497342249999999,-5.62302725,2.7555707,8.497342249999999
613,1715729213930,-5.628587,2.0579562,8.049132,-5.628587,2.0579562,8.049132
614,1715729213940,-5.0854354,1.2592748,7.844734700000001,-5.0854354,1.2592748,7.844734700000001
615,1715729213950,-5.0854354,1.2592748,7.8447347,-5.0854354,1.2592748,7.8447347
616,1715729213960,-3.5944657,-0.19241324,7.352716,-3.5944657,-0.19241324,7.352716
617,1715729213970,-3.4187638500000004,-0.316982505,7.277082200000001,-3.4187638500000004,-0.316982505,7.277082200000001
618,1715729213980,-2.4410517,-0.9207873000000001,6.7701497,-2.4410517,-0.9207873000000001,6.7701497
619,1715729213990,-2.2222398,-1.0382325749999999,6.611158925,-2.2222398,-1.0382325749999999,6.611158925
620,1715729214000,-2.1493025,-1.077381,6.558162,-2.1493025,-1.077381,6.558162
621,1715729214010,-1.9096183,-1.3840438,6.3558955,-1.9096183,-1.3840438,6.3558955
622,1715729214020,-1.87808646,-1.33631996,6.3056151,-1.87808646,-1.33631996,6.3056151
623,1715729214030,-2.0267973,-0.37124437,6.0938406,-2.0267973,-0.37124437,6.0938406
624,1715729214040,-2.1146814750000003,0.17184035749999998,5.811112875,-2.1146814750000003,0.17184035749999998,5.811112875
625,1715729214050,-2.081480733333333,0.37062299,5.509898533333334,-2.081480733333333,0.37062299,5.509898533333334
626,1715729214060,-1.4186648,-0.112518474,4.128962,-1.4186648,-0.112518474,4.128962
627,1715729214070,-0.604770135,-0.7192527184999999,2.7888935249999998,-0.604770135,-0.7192527184999999,2.7888935249999998
628,1715729214080,0.25446486,-1.165798,1.4078791,0.25446486,-1.165798,1.4078791
629,1715729214090,0.9615335999999999,-0.8621977600000001,0.1415469,0.9615335999999999,-0.8621977600000001,0.1415469
630,1715729214100,1.10800735,-0.5458810350000001,-0.25885906999999997,1.10800735,-0.5458810350000001,-0.25885906999999997
631,1715729214110,1.4153359,0.981241,-1.7285233999999998,1.4153359,0.981241,-1.7285233999999998
632,1715729214120,1.5717965,1.6383755,-2.4847274,1.5717965,1.6383755,-2.4847274
633,1715729214130,1.9393125000000002,1.8066871,-3.2728893999999995,1.9393125000000002,1.8066871,-3.2728893999999995
634,1715729214140,2.4856596,1.5137396,-4.116312,2.4856596,1.5137396,-4.116312
635,1715729214150,2.638658066666667,1.3838218,-4.321153333333333,2.638658066666667,1.3838218,-4.321153333333333
636,1715729214160,3.5400043000000005,0.5510076,-5.6445656,3.5400043000000005,0.5510076,-5.6445656
637,1715729214170,3.7105796,0.46099284749999997,-6.1395804,3.7105796,0.46099284749999997,-6.1395804
638,1715729214180,3.7848818,0.4945486499999999,-6.675474599999999,3.7848818,0.4945486499999999,-6.675474599999999
639,1715729214190,3.7071176,0.6340982,-7.025946,3.7071176,0.6340982,-7.025946
640,1715729214200,3.695399633333333,0.6710273333333333,-7.104376233333333,3.695399633333333,0.6710273333333333,-7.104376233333333
641,1715729214210,3.7412059999999996,0.8034751,-7.724493,3.7412059999999996,0.8034751,-7.724493
642,1715729214220,3.813644,0.7534077,-7.929023699999999,3.813644,0.7534077,-7.929023699999999
643,1715729214230,3.9989996,0.31997856,-8.424238,3.9989996,0.31997856,-8.424238
644,1715729214240,4.189549,-0.3531349,-8.813992,4.189549,-0.3531349,-8.813992
645,1715729214250,4.21724585,-0.45589955,-8.864325625000001,4.21724585,-0.45589955,-8.864325625000001
646,1715729214260,4.417781375,-1.2402665000000002,-9.285270624999999,4.417781375,-1.2402665000000002,-9.285270624999999
647,1715729214270,4.485425675,-1.70758435,-9.4966925,4.485425675,-1.70758435,-9.4966925
648,1715729214280,4.498475,-2.1988373,-9.616002,4.498475,-2.1988373,-9.616002
649,1715729214290,4.47482642,-2.52536732,-9.619837200000001,4.47482642,-2.52536732,-9.619837200000001
650,1715729214300,4.4377553,-2.849891,-9.625234666666666,4.4377553,-2.849891,-9.625234666666666
651,1715729214310,4.2385507,-3.6099122,-9.6639385,4.2385507,-3.6099122,-9.6639385
652,1715729214320,4.060785,-3.9518619,-9.703353,4.060785,-3.9518619,-9.703353
653,1715729214330,3.571962,-4.3203096,-9.710811,3.571962,-4.3203096,-9.710811
654,1715729214340,3.102181,-4.426836,-9.708679,3.102181,-4.426836,-9.708679
655,1715729214350,2.7770091999999997,-4.344455733333333,-9.666779,2.7770091999999997,-4.344455733333333,-9.666779
656,1715729214360,2.10323,-4.0689077,-9.505215,2.10323,-4.0689077,-9.505215
657,1715729214370,1.9259301500000001,-3.93421835,-9.413602000000001,1.9259301500000001,-3.93421835,-9.413602000000001
658,1715729214380,1.2928306,-3.240399,-8.945019,1.2928306,-3.240399,-8.945019
659,1715729214390,1.0382326,-2.8027086,-8.614921,1.0382326,-2.8027086,-8.614921
660,1715729214400,0.9920711666666667,-2.6411880666666665,-8.515141,0.9920711666666667,-2.6411880666666665,-8.515141
661,1715729214410,0.86792356,-1.9080204000000003,-7.987612999999999,0.86792356,-1.9080204000000003,-7.987612999999999
662,1715729214420,0.8620646000000001,-1.8132785,-7.915707749999999,0.8620646000000001,-1.8132785,-7.915707749999999
663,1715729214430,0.4769718,-1.0986863,-7.462571,0.4769718,-1.0986863,-7.462571
664,1715729214440,-0.12370374000000002,-0.6769751,-7.057771,-0.12370374000000002,-0.6769751,-7.057771
665,1715729214450,-0.48576021999999996,-0.477238135,-6.8117617500000005,-0.48576021999999996,-0.477238135,-6.8117617500000005
666,1715729214460,-1.3462269,0.27630275,-6.031123,-1.3462269,0.27630275,-6.031123
667,1715729214470,-1.4133385,0.62238026,-5.669067,-1.4133385,0.62238026,-5.669067
668,1715729214480,-0.92877674,1.4009548,-3.942674,-0.92877674,1.4009548,-3.942674
669,1715729214490,-0.3163833,1.4636723,-2.275936,-0.3163833,1.4636723,-2.275936
670,1715729214500,-0.3163833,1.4636723,-2.275936,-0.3163833,1.4636723,-2.275936
671,1715729214510,0.17243955,1.3178643,-0.57630765,0.17243955,1.3178643,-0.57630765
672,1715729214520,0.396464486,1.3136031799999999,0.98291879,0.396464486,1.3136031799999999,0.98291879
673,1715729214530,0.21398482999999996,1.5552849,2.8200192,0.21398482999999996,1.5552849,2.8200192
674,1715729214540,0.001784315599999997,1.65584578,3.5424809600000002,0.001784315599999997,1.65584578,3.5424809600000002
675,1715729214550,-0.10183254475,1.678855475,3.9504969250000004,-0.10183254475,1.678855475,3.9504969250000004
676,1715729214560,-0.33875385,1.5435671,5.4665337,-0.33875385,1.5435671,5.4665337
677,1715729214570,-0.34003215600000003,1.48732118,5.68512558,-0.34003215600000003,1.48732118,5.68512558
678,1715729214580,-0.2609896,1.1761842,6.7563014,-0.2609896,1.1761842,6.7563014
679,1715729214590,-0.20666115,1.0526136,7.2770824,-0.20666115,1.0526136,7.2770824
680,1715729214600,-0.20453061999999997,1.0364216,7.347576200000001,-0.20453061999999997,1.0364216,7.347576200000001
681,1715729214610,-0.20453063,0.9226514700000001,7.846864999999999,-0.20453063,0.9226514700000001,7.846864999999999
682,1715729214620,-0.20453062999999996,0.92265147,7.846865,-0.20453062999999996,0.92265147,7.846865
683,1715729214630,-0.20453063,0.92265147,7.846865,-0.20453063,0.92265147,7.846865
684,1715729214640,-0.37710333,0.53822446,8.212117,-0.37710333,0.53822446,8.212117
685,1715729214650,-0.6099433280000001,0.332655214,8.131157,-0.6099433280000001,0.332655214,8.131157
686,1715729214660,-0.735964,0.26458487,8.178029,-0.735964,0.26458487,8.178029
687,1715729214670,-0.745551375,0.25499749250000003,8.223036500000001,-0.745551375,0.25499749250000003,8.223036500000001
688,1715729214680,-0.7274419,0.23901852999999998,8.8032055,-0.7274419,0.23901852999999998,8.8032055
689,1715729214690,-0.7099316499999999,0.277368025,8.89481825,-0.7099316499999999,0.277368025,8.89481825
690,1715729214700,-0.5773729,0.8599341,9.531713,-0.5773729,0.8599341,9.531713
691,1715729214710,-0.6860298,1.4604764,9.807483,-0.6860298,1.4604764,9.807483
692,1715729214720,-0.8696878875,1.7712671,9.8642085,-0.8696878875,1.7712671,9.8642085
693,1715729214730,-1.5550185,2.3487732,9.749959,-1.5550185,2.3487732,9.749959
694,1715729214740,-2.3979749750000003,2.731335975,9.414800249999999,-2.3979749750000003,2.731335975,9.414800249999999
695,1715729214750,-2.9714198,2.978211,9.198285,-2.9714198,2.978211,9.198285
696,1715729214760,-3.780887,3.475556,8.966191,-3.780887,3.475556,8.966191
697,1715729214770,-4.10253,3.7167715,8.896416,-4.10253,3.7167715,8.896416
698,1715729214780,-5.4657345,4.6257744,8.692418,-5.4657345,4.6257744,8.692418
699,1715729214790,-5.988646,4.7438855,8.5933485,-5.988646,4.7438855,8.5933485
700,1715729214800,-5.9532792,4.4891277,8.5218159,-5.9532792,4.4891277,8.5218159
701,1715729214810,-5.002478,2.5233433,8.138615,-5.002478,2.5233433,8.138615
702,1715729214820,-4.41671615,1.65222393,8.00019685,-4.41671615,1.65222393,8.00019685
703,1715729214830,-1.83976358,-1.6215974880000001,7.41958774,-1.83976358,-1.6215974880000001,7.41958774
704,1715729214840,-0.8233156,-2.7079003,7.2014484,-0.8233156,-2.7079003,7.2014484
705,1715729214850,-0.8233156000000001,-2.7079003,7.201448400000001,-0.8233156000000001,-2.7079003,7.201448400000001
706,1715729214860,1.7286233,-3.3876049750000004,6.619115475,1.7286233,-3.3876049750000004,6.619115475
707,1715729214870,2.5992433,-3.157275,6.424205375,2.5992433,-3.157275,6.424205375
708,1715729214880,1.8253293,-0.4777707500000001,6.423939,1.8253293,-0.4777707500000001,6.423939
709,1715729214890,1.0819083,0.95354414,6.2951756,1.0819083,0.95354414,6.2951756
710,1715729214900,0.6846982,1.3540833,6.021403,0.6846982,1.3540833,6.021403
711,1715729214910,0.75543172,0.809627012,5.1327598000000005,0.75543172,0.809627012,5.1327598000000005
712,1715729214920,0.9312401500000002,0.40726361,4.569848,0.9312401500000002,0.40726361,4.569848
713,1715729214930,2.2022994,-1.1466231,1.7933713,2.2022994,-1.1466231,1.7933713
714,1715729214940,2.2486384,-1.20254945,1.5931682999999999,2.2486384,-1.20254945,1.5931682999999999
715,1715729214950,1.7752618999999998,-0.9069388499999999,-0.6741787,1.7752618999999998,-0.9069388499999999,-0.6741787
716,1715729214960,0.9888842600000001,-0.1248222708,-1.6301463000000003,0.9888842600000001,-0.1248222708,-1.6301463000000003
717,1715729214970,0.79228985,0.070706874,-1.8691382,0.79228985,0.070706874,-1.8691382
718,1715729214980,0.3595265,0.5048905826666666,-2.5191265333333335,0.3595265,0.5048905826666666,-2.5191265333333335
719,1715729214990,-0.629038195,1.263802175,-4.3870552499999995,-0.629038195,1.263802175,-4.3870552499999995
720,1715729215000,-0.06191845,0.033422645,-5.8054204,-0.06191845,0.033422645,-5.8054204
721,1715729215010,0.74754876,-0.6482129,-6.458294,0.74754876,-0.6482129,-6.458294
722,1715729215020,0.74754876,-0.6482129,-6.458294,0.74754876,-0.6482129,-6.458294
723,1715729215030,1.67046658,-0.47902242,-7.37205056,1.67046658,-0.47902242,-7.37205056
724,1715729215040,1.7757945,-0.35792857499999997,-7.5487911,1.7757945,-0.35792857499999997,-7.5487911
725,1715729215050,1.7475650000000003,0.19640799,-8.32943,1.7475650000000003,0.19640799,-8.32943
726,1715729215060,1.84024295,0.135687957,-8.70643325,1.84024295,0.135687957,-8.70643325
727,1715729215070,2.04976695,-0.19074876200000002,-9.16542875,2.04976695,-0.19074876200000002,-9.16542875
728,1715729215080,2.390851,-0.8835029999999999,-9.784181,2.390851,-0.8835029999999999,-9.784181
729,1715729215090,2.5318875,-1.4710625000000002,-10.100208499999999,2.5318875,-1.4710625000000002,-10.100208499999999
730,1715729215100,2.58805795,-1.983154725,-10.395008749999999,2.58805795,-1.983154725,-10.395008749999999
731,1715729215110,2.48925484,-2.3472284599999997,-10.666511799999999,2.48925484,-2.3472284599999997,-10.666511799999999
732,1715729215120,2.4622238,-2.4053652,-10.715088,2.4622238,-2.4053652,-10.715088
733,1715729215130,1.9753983,-2.3341258,-10.828938,1.9753983,-2.3341258,-10.828938
734,1715729215140,1.7646092,-2.2350562,-10.722545000000002,1.7646092,-2.2350562,-10.722545000000002
735,1715729215150,1.4471606,-2.1274645,-10.472207,1.4471606,-2.1274645,-10.472207
736,1715729215160,1.2608727,-2.060353,-10.350767,1.2608727,-2.060353,-10.350767
737,1715729215170,1.25618554,-2.05737024,-10.3537498,1.25618554,-2.05737024,-10.3537498
738,1715729215180,1.22838215,-2.08964775,-10.387519000000001,1.22838215,-2.08964775,-10.387519000000001
739,1715729215190,1.22124488,-2.19393712,-10.383790399999999,1.22124488,-2.19393712,-10.383790399999999
740,1715729215200,1.1884347333333334,-2.3716763333333333,-10.175087333333332,1.1884347333333334,-2.3716763333333333,-10.175087333333332
741,1715729215210,1.1426284,-2.5363927,-9.834248,1.1426284,-2.5363927,-9.834248
742,1715729215220,1.16862084,-2.53852322,-9.7115828,1.16862084,-2.53852322,-9.7115828
743,1715729215230,1.3397021,-2.4586284,-9.101612,1.3397021,-2.4586284,-9.101612
744,1715729215240,1.4044701800000001,-2.3981214399999997,-8.9132736,1.4044701800000001,-2.3981214399999997,-8.9132736
745,1715729215250,1.5771228,-2.1764667,-8.080291,1.5771228,-2.1764667,-8.080291
746,1715729215260,1.4153358999999999,-2.0720708,-7.6659036,1.4153358999999999,-2.0720708,-7.6659036
747,1715729215270,1.2416979000000001,-2.0710055499999998,-7.55198695,1.2416979000000001,-2.0710055499999998,-7.55198695
748,1715729215280,0.21291956,-1.9453045,-7.031273,0.21291956,-1.9453045,-7.031273
749,1715729215290,-0.0024767439999999973,-1.89225442,-6.9155852,-0.0024767439999999973,-1.89225442,-6.9155852
750,1715729215300,-0.14607428,-1.8568877000000001,-6.83846,-0.14607428,-1.8568877000000001,-6.83846
751,1715729215310,-0.9715394714285714,-1.2176533999999999,-5.1869019000000005,-0.9715394714285714,-1.2176533999999999,-5.1869019000000005
752,1715729215320,-0.8238815500000001,-1.09335995,-4.753406125,-0.8238815500000001,-1.09335995,-4.753406125
753,1715729215330,0.41731703,-0.9676589,-2.7956512,0.41731703,-0.9676589,-2.7956512
754,1715729215340,1.1010832,-1.0496842,-1.5156039,1.1010832,-1.0496842,-1.5156039
755,1715729215350,1.6480960800000002,-0.9883249599999999,0.34945970000000004,1.6480960800000002,-0.9883249599999999,0.34945970000000004
756,1715729215360,1.6570176,-0.5725792,1.9403776999999998,1.6570176,-0.5725792,1.9403776999999998
757,1715729215370,1.5428746,-0.40815576,2.21473634,1.5428746,-0.40815576,2.21473634
758,1715729215380,0.83596563,0.5861613,3.729488,0.83596563,0.5861613,3.729488
759,1715729215390,0.73561779,0.7560975,3.9870685999999997,0.73561779,0.7560975,3.9870685999999997
760,1715729215400,0.49998150599999996,1.46665496,5.2970236,0.49998150599999996,1.46665496,5.2970236
761,1715729215410,0.56645393,1.6660724000000002,5.981988,0.56645393,1.6660724000000002,5.981988
762,1715729215420,0.58775921,1.68071975,6.095937875000001,0.58775921,1.68071975,6.095937875000001
763,1715729215430,0.73370034,1.7896429,6.9915915,0.73370034,1.7896429,6.9915915
764,1715729215440,0.76437994,1.84077562,7.29156974,0.76437994,1.84077562,7.29156974
765,1715729215450,0.7400919,2.036651,7.806385,0.7400919,2.036651,7.806385
766,1715729215460,0.6016076,2.1122847,7.974696599999999,0.6016076,2.1122847,7.974696599999999
767,1715729215470,0.6016076,2.1122847,7.9746966,0.6016076,2.1122847,7.9746966
768,1715729215480,-0.13861743,2.327468,8.415583,-0.13861743,2.327468,8.415583
769,1715729215490,-0.278273486,2.3683740799999997,8.497395000000001,-0.278273486,2.3683740799999997,8.497395000000001
770,1715729215500,-0.6505565000000001,2.4561516400000003,8.8594776,-0.6505565000000001,2.4561516400000003,8.8594776
771,1715729215510,-0.8320507899999999,2.4133282,9.3359434,-0.8320507899999999,2.4133282,9.3359434
772,1715729215520,-0.8563388,2.3977754,9.433708,-0.8563388,2.3977754,9.433708
773,1715729215530,-0.95061465,2.33332695,9.927325,-0.95061465,2.33332695,9.927325
774,1715729215540,-1.00803234,2.3206504,10.0224528,-1.00803234,2.3206504,10.0224528
775,1715729215550,-1.5507575,2.2688785,10.064212,-1.5507575,2.2688785,10.064212
776,1715729215560,-2.0640814,2.1516993,9.965142,-2.0640814,2.1516993,9.965142
777,1715729215570,-2.192678725,2.1226708750000003,9.935580999999999,-2.192678725,2.1226708750000003,9.935580999999999
778,1715729215580,-2.9969862,1.9439730000000002,9.723327,-2.9969862,1.9439730000000002,9.723327
779,1715729215590,-3.04471,1.89734108,9.672220999999999,-3.04471,1.89734108,9.672220999999999
780,1715729215600,-3.2356052,1.7108134,9.467797,-3.2356052,1.7108134,9.467797
781,1715729215610,-3.24439365,1.614673325,9.18873125,-3.24439365,1.614673325,9.18873125
782,1715729215620,-3.27882826,1.58553836,9.050480199999999,-3.27882826,1.58553836,9.050480199999999
783,1715729215630,-3.4932659,1.251818,8.127961,-3.4932659,1.251818,8.127961
784,1715729215640,-3.42942986,1.0517614400000002,8.04047644,-3.42942986,1.0517614400000002,8.04047644
785,1715729215650,-2.40083786,-0.6487988359999999,7.488324,-2.40083786,-0.6487988359999999,7.488324
786,1715729215660,-1.6136081,-1.3542165,7.268559999999999,-1.6136081,-1.3542165,7.268559999999999
787,1715729215670,-1.1995401239999999,-1.5395723399999999,7.165868720000001,-1.1995401239999999,-1.5395723399999999,7.165868720000001
788,1715729215680,0.19694062,-1.8165407999999998,6.822347599999999,0.19694062,-1.8165407999999998,6.822347599999999
789,1715729215690,0.373241748,-1.69637912,6.77973712,0.373241748,-1.69637912,6.77973712
790,1715729215700,0.514469086,-1.1065426200000001,6.5833025,0.514469086,-1.1065426200000001,6.5833025
791,1715729215710,0.54834443,-0.8291746,6.470811,0.54834443,-0.8291746,6.470811
792,1715729215720,0.656548584,-0.703739804,6.33429746,0.656548584,-0.703739804,6.33429746
793,1715729215730,1.8391777,-0.3296991,5.1790457,1.8391777,-0.3296991,5.1790457
794,1715729215740,2.2875204,-0.5502087,4.788227,2.2875204,-0.5502087,4.788227
795,1715729215750,2.9559201600000002,-1.01855184,3.9229665799999998,2.9559201600000002,-1.01855184,3.9229665799999998
796,1715729215760,3.50186784,-1.44582904,2.70648868,3.50186784,-1.44582904,2.70648868
797,1715729215770,3.5191251199999996,-1.4901440000000001,2.1203273400000002,3.5191251199999996,-1.4901440000000001,2.1203273400000002
798,1715729215780,2.4566312,-0.72507168,0.394174188,2.4566312,-0.72507168,0.394174188
799,1715729215790,1.9360501,-0.34947304,-0.16251928499999999,1.9360501,-0.34947304,-0.16251928499999999
800,1715729215800,0.3134005496,0.8854205440000001,-1.863359106,0.3134005496,0.8854205440000001,-1.863359106
801,1715729215810,-0.37071174,1.3945633,-3.0523798,-0.37071174,1.3945633,-3.0523798
802,1715729215820,-0.1712744125,1.210305975,-3.6905726000000003,-0.1712744125,1.210305975,-3.6905726000000003
803,1715729215830,0.32264173,0.8034751,-4.6722465,0.32264173,0.8034751,-4.6722465
804,1715729215840,0.5420327580000001,0.646242188,-4.83453934,0.5420327580000001,0.646242188,-4.83453934
805,1715729215850,1.7795229,-0.24234748,-5.795833,1.7795229,-0.24234748,-5.795833
806,1715729215860,1.9321219,-0.32472787333333336,-6.055668666666667,1.9321219,-0.32472787333333336,-6.055668666666667
807,1715729215870,2.02253615,-0.3677822775,-6.31977645,2.02253615,-0.3677822775,-6.31977645
808,1715729215880,1.9764636,-0.2796317,-7.275085,1.9764636,-0.2796317,-7.275085
809,1715729215890,1.93977855,-0.272174865,-7.475820499999999,1.93977855,-0.272174865,-7.475820499999999
810,1715729215900,1.8562219,-0.5299687,-8.45087,1.8562219,-0.5299687,-8.45087
811,1715729215910,1.8562219000000002,-0.79508615,-8.817187,1.8562219000000002,-0.79508615,-8.817187
812,1715729215920,1.85707414,-1.1811377100000002,-9.1886446,1.85707414,-1.1811377100000002,-9.1886446
813,1715729215930,1.8476998000000002,-1.8069534,-9.698027,1.8476998000000002,-1.8069534,-9.698027
814,1715729215940,1.7907082,-2.10033365,-9.89343625,1.7907082,-2.10033365,-9.89343625
815,1715729215950,1.6687354999999997,-2.6503758,-10.218808,1.6687354999999997,-2.6503758,-10.218808
816,1715729215960,1.606950175,-2.8719174499999998,-10.24537275,1.606950175,-2.8719174499999998,-10.24537275
817,1715729215970,1.5262031400000002,-3.17477864,-10.202829,1.5262031400000002,-3.17477864,-10.202829
818,1715729215980,1.5185333,-3.2276156,-10.121869,1.5185333,-3.2276156,-10.121869
819,1715729215990,1.4844449000000002,-3.2542472,-10.040376,1.4844449000000002,-3.2542472,-10.040376
820,1715729216000,1.225719,-3.43947,-9.788442,1.225719,-3.43947,-9.788442
821,1715729216010,1.13197572,-3.5212821599999997,-9.742528799999999,1.13197572,-3.5212821599999997,-9.742528799999999
822,1715729216020,0.8444876999999998,-3.855988,-9.504149,0.8444876999999998,-3.855988,-9.504149
823,1715729216030,0.76565826,-3.9986002,-9.3070755,0.76565826,-3.9986002,-9.3070755
824,1715729216040,0.755431716,-4.01095732,-9.2542917,0.755431716,-4.01095732,-9.2542917
825,1715729216050,0.687894,-3.871967,-8.700008,0.687894,-3.871967,-8.700008
826,1715729216060,0.68363297,-3.822965,-8.609594,0.68363297,-3.822965,-8.609594
827,1715729216070,0.66871923,-3.5108426,-7.9652424,0.66871923,-3.5108426,-7.9652424
828,1715729216080,0.509995,-3.317098,-7.383742000000001,0.509995,-3.317098,-7.383742000000001
829,1715729216090,0.48975498,-3.30197122,-7.343261920000001,0.48975498,-3.30197122,-7.343261920000001
830,1715729216100,0.066978455,-2.9889965,-6.7276726,0.066978455,-2.9889965,-6.7276726
831,1715729216110,-0.23971761625,-2.82371435,-6.488886925,-0.23971761625,-2.82371435,-6.488886925
832,1715729216120,-0.741530008,-2.5086959799999997,-6.25504178,-0.741530008,-2.5086959799999997,-6.25504178
833,1715729216130,-1.25123206,-2.03902114,-6.16875554,-1.25123206,-2.03902114,-6.16875554
834,1715729216140,-1.5512902,-1.7200679,-6.1243338000000005,-1.5512902,-1.7200679,-6.1243338000000005
835,1715729216150,-2.232393,-0.62903816,-5.637109,-2.232393,-0.62903816,-5.637109
836,1715729216160,-2.2590246,-0.29667592,-5.310206,-2.2590246,-0.29667592,-5.310206
837,1715729216170,-1.6018902,0.33369383,-3.906455,-1.6018902,0.33369383,-3.906455
838,1715729216180,-0.735964,0.34860754,-2.5848622,-0.735964,0.34860754,-2.5848622
839,1715729216190,-0.5805020925,0.3140197575,-2.315417075,-0.5805020925,0.3140197575,-2.315417075
840,1715729216200,0.5004076,0.024900537,0.07017424,0.5004076,0.024900537,0.07017424
841,1715729216210,0.5396093040000001,0.0474841262,0.272947184,0.5396093040000001,0.0474841262,0.272947184
842,1715729216220,0.56219288,0.377968855,1.2230558500000002,0.56219288,0.377968855,1.2230558500000002
843,1715729216230,0.31944594,1.1942937,2.7060359,0.31944594,1.1942937,2.7060359
844,1715729216240,0.273426544,1.34380342,2.96761138,0.273426544,1.34380342,2.96761138
845,1715729216250,0.14580797,2.085653,4.4579954,0.14580797,2.085653,4.4579954
846,1715729216260,0.16338482,2.1567593,4.771881799999999,0.16338482,2.1567593,4.771881799999999
847,1715729216270,0.36724964,2.0462382,6.0107503,0.36724964,2.0462382,6.0107503
848,1715729216280,0.5061600079999999,1.86482388,6.50151726,0.5061600079999999,1.86482388,6.50151726
849,1715729216290,0.5408876,1.8194703,6.624209,0.5408876,1.8194703,6.624209
850,1715729216300,0.7422224,1.4476932,7.414501,0.7422224,1.4476932,7.414501
851,1715729216310,0.7328480799999999,1.40433704,7.509842279999999,0.7328480799999999,1.40433704,7.509842279999999
852,1715729216320,0.6488343,1.3665113,7.5951078999999995,0.6488343,1.3665113,7.5951078999999995
853,1715729216330,0.19054903,1.292298,7.7957325,0.19054903,1.292298,7.7957325
854,1715729216340,0.13888374425,1.289634825,7.81623875,0.13888374425,1.289634825,7.81623875
855,1715729216350,-0.18535587,1.235839,8.133287,-0.18535587,1.235839,8.133287
856,1715729216360,-0.2077264,1.2379695,8.432627,-0.2077264,1.2379695,8.432627
857,1715729216370,-0.22690116,1.3221253,8.762726,-0.22690116,1.3221253,8.762726
858,1715729216380,-0.28911255199999997,1.48138226,9.0557796,-0.28911255199999997,1.48138226,9.0557796
859,1715729216390,-0.4250402,1.773664,9.435839,-0.4250402,1.773664,9.435839
860,1715729216400,-0.6796382,2.1005666,9.830918,-0.6796382,2.1005666,9.830918
861,1715729216410,-0.9208204999999999,2.2667478500000002,10.14160925,-0.9208204999999999,2.2667478500000002,10.14160925
862,1715729216420,-1.1254954,2.2546748666666665,10.332524999999999,-1.1254954,2.2546748666666665,10.332524999999999
863,1715729216430,-1.3227911,1.9759309000000003,10.300567,-1.3227911,1.9759309000000003,10.300567
864,1715729216440,-1.36028838,1.8967285400000002,10.2294606,-1.36028838,1.8967285400000002,10.2294606
865,1715729216450,-1.5648190199999998,1.6211182000000002,9.8679898,-1.5648190199999998,1.6211182000000002,9.8679898
866,1715729216460,-1.79353116,1.57169002,9.600715000000001,-1.79353116,1.57169002,9.600715000000001
867,1715729216470,-2.4186811,1.6980302000000003,9.17698,-2.4186811,1.6980302000000003,9.17698
868,1715729216480,-2.8149593,1.4562154000000003,8.875644,-2.8149593,1.4562154000000003,8.875644
869,1715729216490,-2.8149593,1.4562154,8.875644,-2.8149593,1.4562154,8.875644
870,1715729216500,-2.7094981000000002,0.8609460779999999,8.599180800000001,-2.7094981000000002,0.8609460779999999,8.599180800000001
871,1715729216510,-2.2590246,0.15699323,8.4273,-2.2590246,0.15699323,8.4273
872,1715729216520,-1.4889723,-0.37124437,8.311187,-1.4889723,-0.37124437,8.311187
873,1715729216530,-0.66898555,-0.50014126,8.315448,-0.66898555,-0.50014126,8.315448
874,1715729216540,-0.5691170875,-0.4359591325,8.3183775,-0.5691170875,-0.4359591325,8.3183775
875,1715729216550,-0.35579807,0.7779088,8.173768,-0.35579807,0.7779088,8.173768
876,1715729216560,-0.6082655,1.2986895,8.042741,-0.6082655,1.2986895,8.042741
877,1715729216570,-1.2355727,2.2283983,7.5081115,-1.2355727,2.2283983,7.5081115
878,1715729216580,-0.7870966999999999,2.0931098,7.118358,-0.7870966999999999,2.0931098,7.118358
879,1715729216590,-0.294465512,1.8004553,6.938195159999999,-0.294465512,1.8004553,6.938195159999999
880,1715729216600,1.133706872,0.829014802,6.380982400000001,1.133706872,0.829014802,6.380982400000001
881,1715729216610,1.8668745999999998,0.31145647,6.0895796,1.8668745999999998,0.31145647,6.0895796
882,1715729216620,3.0085043000000002,-0.8033752325000001,4.81475865,3.0085043000000002,-0.8033752325000001,4.81475865
883,1715729216630,3.36953544,-1.45009014,2.8000453999999997,3.36953544,-1.45009014,2.8000453999999997
884,1715729216640,3.2981893999999996,-1.4394375,2.5304005,3.2981893999999996,-1.4394375,2.5304005
885,1715729216650,1.3418328,0.16231954,0.17137429,1.3418328,0.16231954,0.17137429
886,1715729216660,1.11659605,0.35826147,-0.110321355,1.11659605,0.35826147,-0.110321355
887,1715729216670,0.10426267999999998,0.8567382699999999,-2.1961741,0.10426267999999998,0.8567382699999999,-2.1961741
888,1715729216680,0.16285218,0.41145807999999995,-3.384609,0.16285218,0.41145807999999995,-3.384609
889,1715729216690,0.26238774,0.15745928,-3.807452,0.26238774,0.15745928,-3.807452
890,1715729216700,0.6644582,-0.7099982,-5.4389696,0.6644582,-0.7099982,-5.4389696
891,1715729216710,0.6905571500000001,-0.7594663850000001,-5.6269886499999995,0.6905571500000001,-0.7594663850000001,-5.6269886499999995
892,1715729216720,0.71878666,-0.6993456,-6.571079,0.71878666,-0.6993456,-6.571079
893,1715729216730,0.7400919,-0.33609068,-7.0790763,0.7400919,-0.33609068,-7.0790763
894,1715729216740,0.771597072,-0.2677273856,-7.163871299999999,0.771597072,-0.2677273856,-7.163871299999999
895,1715729216750,1.2649206720000001,0.029587696000000004,-7.91030226,1.2649206720000001,0.029587696000000004,-7.91030226
896,1715729216760,1.48449816,-0.0411458108,-8.1577626,1.48449816,-0.0411458108,-8.1577626
897,1715729216770,1.7003383333333335,-0.2935689006666667,-8.486334,1.7003383333333335,-0.2935689006666667,-8.486334
898,1715729216780,2.0489016,-1.2542148,-9.545694,2.0489016,-1.2542148,-9.545694
899,1715729216790,2.0489016,-1.2542148,-9.545694,2.0489016,-1.2542148,-9.545694
900,1715729216800,1.9748656,-1.5779484,-10.010042799999999,1.9748656,-1.5779484,-10.010042799999999
901,1715729216810,1.627989125,-1.7307870749999998,-10.49834,1.627989125,-1.7307870749999998,-10.49834
902,1715729216820,0.96472937,-1.3755217,-10.81935,0.96472937,-1.3755217,-10.81935
903,1715729216830,0.75180984,-1.158341,-10.787525,0.75180984,-1.158341,-10.787525
904,1715729216840,0.7394527719999999,-1.13362688,-10.761959000000001,0.7394527719999999,-1.13362688,-10.761959000000001
905,1715729216850,0.743074634,-1.18262898,-10.6528764,0.743074634,-1.18262898,-10.6528764
906,1715729216860,0.77204984,-1.344629,-10.564885,0.77204984,-1.344629,-10.564885
907,1715729216870,0.8508793,-1.6130755,-10.516949,0.8508793,-1.6130755,-10.516949
908,1715729216880,0.94022834,-1.7877787,-10.516949,0.94022834,-1.7877787,-10.516949
909,1715729216890,0.94022834,-1.7877787,-10.516949,0.94022834,-1.7877787,-10.516949
910,1715729216900,1.20121788,-2.01113778,-10.484138399999999,1.20121788,-2.01113778,-10.484138399999999
911,1715729216910,1.32393632,-2.0803799599999997,-10.4300228,1.32393632,-2.0803799599999997,-10.4300228
912,1715729216920,1.6378429,-2.1072247,-10.184719,1.6378429,-2.1072247,-10.184719
913,1715729216930,1.8413081999999998,-1.999633,-9.941839,1.8413081999999998,-1.999633,-9.941839
914,1715729216940,1.90304024,-1.9161696,-9.8187478,1.90304024,-1.9161696,-9.8187478
915,1715729216950,2.0883162,-1.4969617,-9.341164,2.0883162,-1.4969617,-9.341164
916,1715729216960,2.097371,-1.42665435,-9.2554765,2.097371,-1.42665435,-9.2554765
917,1715729216970,1.8817882999999997,-0.9612673,-8.444478,1.8817882999999997,-0.9612673,-8.444478
918,1715729216980,1.3578117,-0.782303,-7.846998000000001,1.3578117,-0.782303,-7.846998000000001
919,1715729216990,1.23746353,-0.76741594,-7.7667038,1.23746353,-0.76741594,-7.7667038
920,1715729217000,0.506000212,-0.67740116,-7.347336319999999,0.506000212,-0.67740116,-7.347336319999999
921,1715729217010,-0.6151231699999999,-0.5395560500000001,-6.9087673,-0.6151231699999999,-0.5395560500000001,-6.9087673
922,1715729217020,-1.605086,-0.46392232,-6.0332537,-1.605086,-0.46392232,-6.0332537
923,1715729217030,-1.0076063,-0.6439519,-4.938429,-1.0076063,-0.6439519,-4.938429
924,1715729217040,-1.0076063,-0.6439519,-4.938429,-1.0076063,-0.6439519,-4.938429
925,1715729217050,-0.04913529999999999,-0.9745831,-3.1279469,-0.04913529999999999,-0.9745831,-3.1279469
926,1715729217060,1.3337434,-1.274887575,0.10779137999999999,1.3337434,-1.274887575,0.10779137999999999
927,1715729217070,1.9732678,-1.0379663,2.6198828,1.9732678,-1.0379663,2.6198828
928,1715729217080,1.6069502,-0.22317274,3.8626458999999995,1.6069502,-0.22317274,3.8626458999999995
929,1715729217090,1.43144804,-0.01869537600000002,4.08629806,1.43144804,-0.01869537600000002,4.08629806
930,1715729217100,0.7166561,0.71186244,4.9319043,0.7166561,0.71186244,4.9319043
931,1715729217110,0.45380231,0.94984896,5.264965575,0.45380231,0.94984896,5.264965575
932,1715729217120,0.100001626,1.3413001,6.1684093,0.100001626,1.3413001,6.1684093
933,1715729217130,0.18096165,1.3487569,6.8575015,0.18096165,1.3487569,6.8575015
934,1715729217140,0.2017342875,1.337305325,6.953075625,0.2017342875,1.337305325,6.953075625
935,1715729217150,0.36085805,1.15914,7.6476607,0.36085805,1.15914,7.6476607
936,1715729217160,0.40133807,1.0408957,7.78508,0.40133807,1.0408957,7.78508
937,1715729217170,0.39601177,0.6532729,7.9171724,0.39601177,0.6532729,7.9171724
938,1715729217180,0.25294685,0.479421884,7.84558696,0.25294685,0.479421884,7.84558696
939,1715729217190,0.1492700645,0.39551240249999997,7.7999937,0.1492700645,0.39551240249999997,7.7999937
940,1715729217200,-0.30999172,0.20599535,7.7115765,-0.30999172,0.20599535,7.7115765
941,1715729217210,-0.32561558333333335,0.24150414333333334,7.873807366666667,-0.32561558333333335,0.24150414333333334,7.873807366666667
942,1715729217220,-0.27483803,0.31252173,8.145006,-0.27483803,0.31252173,8.145006
943,1715729217230,0.09254478,0.62664133,8.5114565,0.09254478,0.62664133,8.5114565
944,1715729217240,0.19823891,0.7645596725,8.605432875,0.19823891,0.7645596725,8.605432875
945,1715729217250,0.7326351,1.8876472,9.1705885,0.7326351,1.8876472,9.1705885
946,1715729217260,0.6660561,2.1847225999999997,9.21639475,0.6660561,2.1847225999999997,9.21639475
947,1715729217270,-0.20133483000000002,3.5755575,9.205742,-0.20133483000000002,3.5755575,9.205742
948,1715729217280,-0.3540226233333333,3.7033891666666663,9.178755333333333,-0.3540226233333333,3.7033891666666663,9.178755333333333
949,1715729217290,-0.796311196,3.91662834,9.0766586,-0.796311196,3.91662834,9.0766586
950,1715729217300,-2.87747685,4.3701109250000005,8.549772749999999,-2.87747685,4.3701109250000005,8.549772749999999
951,1715729217310,-3.0832725,4.322174,8.492282,-3.0832725,4.322174,8.492282
952,1715729217320,-3.5475943,3.4659684,8.351667,-3.5475943,3.4659684,8.351667
953,1715729217330,-3.5209627,3.2907325,8.356993500000002,-3.5209627,3.2907325,8.356993500000002
954,1715729217340,-2.904308,1.7118787000000002,8.109852,-2.904308,1.7118787000000002,8.109852
955,1715729217350,-2.130128,0.46791705,7.5571136,-2.130128,0.46791705,7.5571136
956,1715729217360,-2.02828872,0.323520566,7.44808376,-2.02828872,0.323520566,7.44808376
957,1715729217370,-1.6423702,-0.36804858,6.5624237,-1.6423702,-0.36804858,6.5624237
958,1715729217380,-1.7222649500000002,-0.45149423833333335,6.408071116666666,-1.7222649500000002,-0.45149423833333335,6.408071116666666
959,1715729217390,-1.81398414,-0.634364482,6.24340356,-1.81398414,-0.634364482,6.24340356
960,1715729217400,-1.7149635333333333,-0.7034290766666667,6.091000049999999,-1.7149635333333333,-0.7034290766666667,6.091000049999999
961,1715729217410,-1.5651386500000002,-0.680170835,6.01075025,-1.5651386500000002,-0.680170835,6.01075025
962,1715729217420,-1.309395472,-0.643951884,5.900202520000001,-1.309395472,-0.643951884,5.900202520000001
963,1715729217430,-0.47404232999999996,-0.60027605,5.51234,-0.47404232999999996,-0.60027605,5.51234
964,1715729217440,0.24330622200000002,-0.5653354500000001,4.9908936,0.24330622200000002,-0.5653354500000001,4.9908936
965,1715729217450,0.869947552,-0.53870382,4.4456114399999995,0.869947552,-0.53870382,4.4456114399999995
966,1715729217460,0.9817736,-0.5342297,4.3418813,0.9817736,-0.5342297,4.3418813
967,1715729217470,1.8977672,-0.45433494,3.0842047,1.8977672,-0.45433494,3.0842047
968,1715729217480,2.0531626,-0.4490086,2.6039038,2.0531626,-0.4490086,2.6039038
969,1715729217490,2.0691414,-0.08695214,0.48988813,2.0691414,-0.08695214,0.48988813
970,1715729217500,1.8783527599999998,0.27768761200000003,-0.5197687739999999,1.8783527599999998,0.27768761200000003,-0.5197687739999999
971,1715729217510,1.72785765,0.573378175,-1.2131355499999998,1.72785765,0.573378175,-1.2131355499999998
972,1715729217520,1.35501538,1.17067144,-2.7232933000000004,1.35501538,1.17067144,-2.7232933000000004
973,1715729217530,1.24489374,1.31573378,-3.1908641199999996,1.24489374,1.31573378,-3.1908641199999996
974,1715729217540,1.1956785399999998,1.2859064,-3.5237856,1.1956785399999998,1.2859064,-3.5237856
975,1715729217550,1.0900043799999999,0.7772429919999999,-5.08461,1.0900043799999999,0.7772429919999999,-5.08461
976,1715729217560,1.1809779333333335,0.5304125333333333,-5.434753333333333,1.1809779333333335,0.5304125333333333,-5.434753333333333
977,1715729217570,1.5217291,0.25286695,-6.252698,1.5217291,0.25286695,-6.252698
978,1715729217580,1.844504,0.12716585,-6.8682876,1.844504,0.12716585,-6.8682876
979,1715729217590,2.2236047,-0.034754228,-7.4199605,2.2236047,-0.034754228,-7.4199605
980,1715729217600,2.604836,-0.29134962,-7.905587700000001,2.604836,-0.29134962,-7.905587700000001
981,1715729217610,2.604836,-0.29134962,-7.905587700000001,2.604836,-0.29134962,-7.905587700000001
982,1715729217620,3.110703,-1.0443579,-8.869385,3.110703,-1.0443579,-8.869385
983,1715729217630,3.14665575,-1.243994925,-9.07711175,3.14665575,-1.243994925,-9.07711175
984,1715729217640,2.8988488,-2.0667446,-10.008951,2.8988488,-2.0667446,-10.008951
985,1715729217650,2.6999107,-2.191380425,-10.20309525,2.6999107,-2.191380425,-10.20309525
986,1715729217660,2.37929304,-2.29875896,-10.3936438,2.37929304,-2.29875896,-10.3936438
987,1715729217670,2.094741175,-2.3822956,-10.49990375,2.094741175,-2.3822956,-10.49990375
988,1715729217680,1.5813838,-2.6482453,-10.470077,1.5813838,-2.6482453,-10.470077
989,1715729217690,1.6048196399999999,-2.7279271,-10.390820999999999,1.6048196399999999,-2.7279271,-10.390820999999999
990,1715729217700,1.7741966000000002,-3.059304,-10.055822,1.7741966000000002,-3.059304,-10.055822
991,1715729217710,1.8181387,-3.1594388,-9.984981999999999,1.8181387,-3.1594388,-9.984981999999999
992,1715729217720,1.8913754999999999,-3.3575778,-9.853422,1.8913754999999999,-3.3575778,-9.853422
993,1715729217730,1.8466344333333335,-3.450522133333333,-9.756926666666667,1.8466344333333335,-3.450522133333333,-9.756926666666667
994,1715729217740,1.6687354999999997,-3.5396047,-9.417863,1.6687354999999997,-3.5396047,-9.417863
995,1715729217750,1.5664701,-3.4650364,-8.975911,1.5664701,-3.4650364,-8.975911
996,1715729217760,1.5615699,-3.4401358599999994,-8.883259800000001,1.5615699,-3.4401358599999994,-8.883259800000001
997,1715729217770,1.6335818,-2.994323,-7.727689,1.6335818,-2.994323,-7.727689
998,1715729217780,1.66287655,-2.9192885,-7.5919343,1.66287655,-2.9192885,-7.5919343
999,1715729217790,1.6527566,-2.5438495,-6.732999000000001,1.6527566,-2.5438495,-6.732999000000001
1000,1715729217800,1.38526884,-2.50379574,-6.4799986,1.38526884,-2.50379574,-6.4799986
1001,1715729217810,1.23298938,-2.49569976,-6.3873473,1.23298938,-2.49569976,-6.3873473
1002,1715729217820,0.03715107,-2.42454,-6.1781297,0.03715107,-2.42454,-6.1781297
1003,1715729217830,-0.2961433,-2.3000374,-6.1600204,-0.2961433,-2.3000374,-6.1600204
1004,1715729217840,-1.2769848,-1.8026924000000002,-5.969338,-1.2769848,-1.8026924000000002,-5.969338
1005,1715729217850,-1.7552881,-1.4447638,-5.646696,-1.7552881,-1.4447638,-5.646696
1006,1715729217860,-1.7701574333333332,-1.3418327,-5.516423166666667,-1.7701574333333332,-1.3418327,-5.516423166666667
1007,1715729217870,-1.0661957,-0.8142609,-4.071571,-1.0661957,-0.8142609,-4.071571
1008,1715729217880,-0.6657631399999999,-0.8236352200000001,-3.4989917999999998,-0.6657631399999999,-0.8236352200000001,-3.4989917999999998
1009,1715729217890,0.9572725,-1.0038779,-0.9074715,0.9572725,-1.0038779,-0.9074715
1010,1715729217900,1.5153376,-0.8824377699999999,0.39721018,1.5153376,-0.8824377699999999,0.39721018
1011,1715729217910,1.520397575,-0.814027865,0.5811678849999999,1.520397575,-0.814027865,0.5811678849999999
1012,1715729217920,1.12491838,-0.002982733999999998,1.9134532400000002,1.12491838,-0.002982733999999998,1.9134532400000002
1013,1715729217930,0.87744435,0.324173035,2.30136895,0.87744435,0.324173035,2.30136895
1014,1715729217940,0.088283725,1.4530196,3.7390754,0.088283725,1.4530196,3.7390754
1015,1715729217950,0.042264335199999996,1.58916032,4.0062435800000005,0.042264335199999996,1.58916032,4.0062435800000005
1016,1715729217960,0.011584742,1.6799208,4.1843557,0.011584742,1.6799208,4.1843557
1017,1715729217970,0.081093195,2.0563582499999997,5.4857749,0.081093195,2.0563582499999997,5.4857749
1018,1715729217980,0.18735324,2.137851,6.1982365,0.18735324,2.137851,6.1982365
1019,1715729217990,0.270443808,2.17726582,7.04999474,0.270443808,2.17726582,7.04999474
1020,1715729218000,0.14900376,2.223072,7.637008,0.14900376,2.223072,7.637008
1021,1715729218010,0.09680583890000001,2.2344348000000003,7.706605333333333,0.09680583890000001,2.2344348000000003,7.706605333333333
1022,1715729218020,-0.25246748,2.2678132,8.098134,-0.25246748,2.2678132,8.098134
1023,1715729218030,-0.432283992,2.21071504,8.3103348,-0.432283992,2.21071504,8.3103348
1024,1715729218040,-0.5635245,1.9993666,8.715854,-0.5635245,1.9993666,8.715854
1025,1715729218050,-0.449328212,1.78642052,9.0557796,-0.449328212,1.78642052,9.0557796
1026,1715729218060,-0.33026502,1.6663387,9.24222725,-0.33026502,1.6663387,9.24222725
1027,1715729218070,0.35140383,1.2720579,9.862877,0.35140383,1.2720579,9.862877
1028,1715729218080,0.49508128000000007,1.2006853,9.964077,0.49508128000000007,1.2006853,9.964077
1029,1715729218090,0.4748412699999999,1.1676621,10.025862,0.4748412699999999,1.1676621,10.025862
1030,1715729218100,0.281895388,1.19450676,9.9485238,0.281895388,1.19450676,9.9485238
1031,1715729218110,-0.0011984199999999917,1.2294474499999999,9.851690999999999,-0.0011984199999999917,1.2294474499999999,9.851690999999999
1032,1715729218120,-0.5586508880000001,1.36835778,9.7109698,-0.5586508880000001,1.36835778,9.7109698
1033,1715729218130,-0.8360988,1.5403712,9.678586,-0.8360988,1.5403712,9.678586
1034,1715729218140,-1.5126744,2.5220449,9.90948175,-1.5126744,2.5220449,9.90948175
1035,1715729218150,-2.2089574,3.4862084,10.165411,-2.2089574,3.4862084,10.165411
1036,1715729218160,-2.4098927,3.6973969333333336,10.224666666666666,-2.4098927,3.6973969333333336,10.224666666666666
1037,1715729218170,-3.7712996,4.5820985,10.359157,-3.7712996,4.5820985,10.359157
1038,1715729218180,-4.020471275,4.4678489,10.228129,-4.020471275,4.4678489,10.228129
1039,1715729218190,-4.4188466,2.700177,8.953407,-4.4188466,2.700177,8.953407
1040,1715729218200,-3.780887,0.9418262,7.8788233,-3.780887,0.9418262,7.8788233
1041,1715729218210,-3.496506,0.5460363766666666,7.635987466666666,-3.496506,0.5460363766666666,7.635987466666666
1042,1715729218220,-1.1610042,-1.8208019,6.346308,-1.1610042,-1.8208019,6.346308
1043,1715729218230,-0.734765592,-2.10131234,6.261939119999999,-0.734765592,-2.10131234,6.261939119999999
1044,1715729218240,1.036900975,-2.34787425,6.134320575,1.036900975,-2.34787425,6.134320575
1045,1715729218250,1.1159968,-2.0028288,6.1534953,1.1159968,-2.0028288,6.1534953
1046,1715729218260,0.84229062,-1.5060164500000002,6.10183,0.84229062,-1.5060164500000002,6.10183
1047,1715729218270,-0.3952128,0.103730045,5.650824,-0.3952128,0.103730045,5.650824
1048,1715729218280,-0.8731965840000001,0.592792569,5.265731199999999,-0.8731965840000001,0.592792569,5.265731199999999
1049,1715729218290,-1.2100064,0.8917588000000001,4.154528,-1.2100064,0.8917588000000001,4.154528
1050,1715729218300,-0.62206073,0.43747714000000004,3.4528922,-0.62206073,0.43747714000000004,3.4528922
1051,1715729218310,-0.054594765999999996,0.029188228000000004,2.8283548,-0.054594765999999996,0.029188228000000004,2.8283548
1052,1715729218320,1.6250597,-0.7652588,0.7219824,1.6250597,-0.7652588,0.7219824
1053,1715729218330,1.7006934,-0.69401926,0.10213215,1.7006934,-0.69401926,0.10213215
1054,1715729218340,1.3437235600000002,-0.14189311656,-1.09490461,1.3437235600000002,-0.14189311656,-1.09490461
1055,1715729218350,0.6197171,0.7715172,-2.4900537,0.6197171,0.7715172,-2.4900537
1056,1715729218360,0.6197171,0.7715172,-2.4900537,0.6197171,0.7715172,-2.4900537
1057,1715729218370,0.12109384279999999,1.47839956,-4.17279748,0.12109384279999999,1.47839956,-4.17279748
1058,1715729218380,0.2519081992,1.4256423599999999,-4.83770844,0.2519081992,1.4256423599999999,-4.83770844
1059,1715729218390,0.7400919,0.9567399,-5.8938375,0.7400919,0.9567399,-5.8938375
1060,1715729218400,0.9977525499999998,0.7981488,-6.5337944,0.9977525499999998,0.7981488,-6.5337944
1061,1715729218410,1.0326932100000001,0.89823032,-6.736567320000001,1.0326932100000001,0.89823032,-6.736567320000001
1062,1715729218420,1.0542115,1.6554197,-7.454049,1.0542115,1.6554197,-7.454049
1063,1715729218430,1.02608862,1.9177941,-7.609045,1.02608862,1.9177941,-7.609045
1064,1715729218440,1.0339715,2.308293,-8.260187,1.0339715,2.308293,-8.260187
1065,1715729218450,1.3173317,1.8620808,-8.680834,1.3173317,1.8620808,-8.680834
1066,1715729218460,1.3173317,1.8620808,-8.680834,1.3173317,1.8620808,-8.680834
1067,1715729218470,2.2318161,0.64754712,-9.412225999999999,2.2318161,0.64754712,-9.412225999999999
1068,1715729218480,2.55247824,0.236408632,-9.7062566,2.55247824,0.236408632,-9.7062566
1069,1715729218490,2.815491875,-0.41628502500000003,-10.219773,2.815491875,-0.41628502500000003,-10.219773
1070,1715729218500,2.7678213,-0.82664458,-10.4990522,2.7678213,-0.82664458,-10.4990522
1071,1715729218510,2.6970878,-0.9233439000000001,-10.5391062,2.6970878,-0.9233439000000001,-10.5391062
1072,1715729218520,2.3311963,-1.3584775,-10.475403,2.3311963,-1.3584775,-10.475403
1073,1715729218530,2.2768679,-1.5044186,-10.417879,2.2768679,-1.5044186,-10.417879
1074,1715729218540,2.1415794,-1.8133451,-10.230526,2.1415794,-1.8133451,-10.230526
1075,1715729218550,2.10323,-1.8963025000000002,-10.147435,2.10323,-1.8963025000000002,-10.147435
1076,1715729218560,2.0861856999999997,-1.89257405,-10.073932,2.0861856999999997,-1.89257405,-10.073932
1077,1715729218570,2.067437,-1.8310017600000001,-9.8351002,2.067437,-1.8310017600000001,-9.8351002
1078,1715729218580,2.09129886,-1.8156886,-9.7124348,2.09129886,-1.8156886,-9.7124348
1079,1715729218590,2.292847,-1.9548919000000002,-9.182572,2.292847,-1.9548919000000002,-9.182572
1080,1715729218600,2.3706112,-2.112551,-8.812926,2.3706112,-2.112551,-8.812926
1081,1715729218610,2.366350133333333,-2.1519657,-8.680522666666667,2.366350133333333,-2.1519657,-8.680522666666667
1082,1715729218620,2.2523668,-2.2212079,-8.024898,2.2523668,-2.2212079,-8.024898
1083,1715729218630,2.2012340999999997,-2.20150055,-7.8709671,2.2012340999999997,-2.20150055,-7.8709671
1084,1715729218640,1.9723356000000003,-2.1221383,-7.0705543,1.9723356000000003,-2.1221383,-7.0705543
1085,1715729218650,1.78229264,-2.1298082999999997,-6.59949486,1.78229264,-2.1298082999999997,-6.59949486
1086,1715729218660,1.640805675,-2.1405142,-6.3541646,1.640805675,-2.1405142,-6.3541646
1087,1715729218670,1.01828556,-2.1834975400000003,-5.74912118,1.01828556,-2.1834975400000003,-5.74912118
1088,1715729218680,0.66182835,-2.194043675,-5.542067175,0.66182835,-2.194043675,-5.542067175
1089,1715729218690,-0.48469496,-2.0422435,-4.9842353,-0.48469496,-2.0422435,-4.9842353
1090,1715729218700,-0.79029244,-1.7835176,-4.594482,-0.79029244,-1.7835176,-4.594482
1091,1715729218710,-0.794553528,-1.65739048,-4.3551172000000005,-0.794553528,-1.65739048,-4.3551172000000005
1092,1715729218720,-0.27164224,-1.0443579,-2.939462,-0.27164224,-1.0443579,-2.939462
1093,1715729218730,-0.19454378199999997,-0.986833648,-2.7694991599999996,-0.19454378199999997,-0.986833648,-2.7694991599999996
1094,1715729218740,0.59628135,-0.36804858,-0.6336987,0.59628135,-0.36804858,-0.6336987
1095,1715729218750,0.65082283,-0.10396972959999999,0.17909745999999999,0.65082283,-0.10396972959999999,0.17909745999999999
1096,1715729218760,0.4769718,0.28802067,1.1884347,0.4769718,0.28802067,1.1884347
1097,1715729218770,0.268286648,0.5359075179999999,1.72266446,0.268286648,0.5359075179999999,1.72266446
1098,1715729218780,0.16285218,0.667334418,2.0577165,0.16285218,0.667334418,2.0577165
1099,1715729218790,0.08295741,0.8566495333333334,3.008881466666667,0.08295741,0.8566495333333334,3.008881466666667
1100,1715729218800,0.20013640999999996,0.9034767,3.968107,0.20013640999999996,0.9034767,3.968107
1101,1715729218810,0.48655918,0.8683229999999998,5.0213866,0.48655918,0.8683229999999998,5.0213866
1102,1715729218820,0.6857634999999999,0.8503466999999999,5.7690682,0.6857634999999999,0.8503466999999999,5.7690682
1103,1715729218830,0.71372665,0.8530098625,5.88221915,0.71372665,0.8530098625,5.88221915
1104,1715729218840,0.9210536000000001,0.9322388,6.798912,0.9210536000000001,0.9322388,6.798912
1105,1715729218850,0.9263799,1.05794,7.186535,0.9263799,1.05794,7.186535
1106,1715729218860,0.908297046,1.0758364200000001,7.25021114,0.908297046,1.0758364200000001,7.25021114
1107,1715729218870,0.71168488,1.2299801,7.715305116666666,0.71168488,1.2299801,7.715305116666666
1108,1715729218880,0.657853558,1.2626837,7.8072374,0.657853558,1.2626837,7.8072374
1109,1715729218890,0.59521604,1.2731233,8.383625,0.59521604,1.2731233,8.383625
1110,1715729218900,0.6207823625,1.255546375,8.453932250000001,0.6207823625,1.255546375,8.453932250000001
1111,1715729218910,1.0627337,1.0195905,9.08124,1.0627337,1.0195905,9.08124
1112,1715729218920,1.4291843,0.94076097,9.452883,1.4291843,0.94076097,9.452883
1113,1715729218930,1.47539012,0.9554615959999999,9.4982366,1.47539012,0.9554615959999999,9.4982366
1114,1715729218940,1.754489225,1.362505525,9.88977475,1.754489225,1.362505525,9.88977475
1115,1715729218950,1.6932365999999999,1.6650070999999997,9.972599,1.6932365999999999,1.6650070999999997,9.972599
1116,1715729218960,1.5393392750000001,1.798664375,9.921999,1.5393392750000001,1.798664375,9.921999
1117,1715729218970,0.25233433,2.6660886,9.504016,0.25233433,2.6660886,9.504016
1118,1715729218980,0.10897647400000002,2.73256104,9.4780236,0.10897647400000002,2.73256104,9.4780236
1119,1715729218990,-1.6721976,3.2433283000000004,9.336769,-1.6721976,3.2433283000000004,9.336769
1120,1715729219000,-1.9733009249999998,3.20018515,9.344759499999999,-1.9733009249999998,3.20018515,9.344759499999999
1121,1715729219010,-2.18016848,3.08484376,9.332083,-2.18016848,3.08484376,9.332083
1122,1715729219020,-2.4154854,2.1208067,9.084435,-2.4154854,2.1208067,9.084435
1123,1715729219030,-2.2992118,1.9512700200000002,8.987708999999999,-2.2992118,1.9512700200000002,8.987708999999999
1124,1715729219040,-1.6935029,1.1016158,8.331427,-1.6935029,1.1016158,8.331427
1125,1715729219050,-1.5582144,0.601075,7.959783,-1.5582144,0.601075,7.959783
1126,1715729219060,-1.5251912,0.1548627,7.618899,-1.5251912,0.1548627,7.618899
1127,1715729219070,-1.339835375,-0.259691295,7.352150025,-1.339835375,-0.259691295,7.352150025
1128,1715729219080,-1.2780501,-0.39787596,7.2632337,-1.2780501,-0.39787596,7.2632337
1129,1715729219090,-0.1821933825,-0.94265844,6.9565377,-0.1821933825,-0.94265844,6.9565377
1130,1715729219100,0.9385416633333333,-0.90054724,6.737126833333334,0.9385416633333333,-0.90054724,6.737126833333334
1131,1715729219110,1.6644745,-0.17110798000000002,6.4644194,1.6644745,-0.17110798000000002,6.4644194
1132,1715729219120,1.4588785,0.5083971,6.0799923,1.4588785,0.5083971,6.0799923
1133,1715729219130,1.2584425000000001,0.725710875,5.8579848,1.2584425000000001,0.725710875,5.8579848
1134,1715729219140,0.4833634,1.0163946,4.8104644,0.4833634,1.0163946,4.8104644
1135,1715729219150,0.453802325,0.959968925,4.694650175,0.453802325,0.959968925,4.694650175
1136,1715729219160,0.976813475,-0.6644249,2.607565675,0.976813475,-0.6644249,2.607565675
1137,1715729219170,1.3961612,-1.0262483,1.8391776999999998,1.3961612,-1.0262483,1.8391776999999998
1138,1715729219180,1.47110252,-0.9840639,1.5149647,1.47110252,-0.9840639,1.5149647
1139,1715729219190,1.1170621,-0.08375636,-0.30040434,1.1170621,-0.08375636,-0.30040434
1140,1715729219200,0.44914178000000005,0.6703438,-1.049284708,0.44914178000000005,0.6703438,-1.049284708
1141,1715729219210,-0.43569282,1.7086829,-2.0885825,-0.43569282,1.7086829,-2.0885825
1142,1715729219220,-0.7020087,2.0835226,-2.9362662,-0.7020087,2.0835226,-2.9362662
1143,1715729219230,-0.48845664250000004,1.7869465,-3.539338475,-0.48845664250000004,1.7869465,-3.539338475
1144,1715729219240,0.04567318,1.0558094,-4.691421,0.04567318,1.0558094,-4.691421
1145,1715729219250,0.2709764425,0.7642933624999999,-4.99651905,0.2709764425,0.7642933624999999,-4.99651905
1146,1715729219260,0.898683,-0.092278466,-6.310222,0.898683,-0.092278466,-6.310222
1147,1715729219270,0.94448936,-0.19241324,-6.7489777,0.94448936,-0.19241324,-6.7489777
1148,1715729219280,0.9296023019999999,-0.16663386,-6.848872760000001,0.9296023019999999,-0.16663386,-6.848872760000001
1149,1715729219290,0.79655087,0.093077414,-7.6605773,0.79655087,0.093077414,-7.6605773
1150,1715729219300,0.7907984480000001,0.1275919496,-7.778182220000001,0.7907984480000001,0.1275919496,-7.778182220000001
1151,1715729219310,0.8359656300000001,0.19427745,-8.237817,0.8359656300000001,0.19427745,-8.237817
1152,1715729219320,0.9193757980000001,0.006791054799999996,-8.6791562,0.9193757980000001,0.006791054799999996,-8.6791562
1153,1715729219330,0.9483243439999999,-0.0907604612,-8.846802,0.9483243439999999,-0.0907604612,-8.846802
1154,1715729219340,1.0009483,-0.86219776,-9.456212,1.0009483,-0.86219776,-9.456212
1155,1715729219350,1.00478332,-1.006008364,-9.5361068,1.00478332,-1.006008364,-9.5361068
1156,1715729219360,1.0297104,-1.6727301999999997,-9.979123,1.0297104,-1.6727301999999997,-9.979123
1157,1715729219370,1.0243841500000002,-1.8608158666666668,-10.107843,1.0243841500000002,-1.8608158666666668,-10.107843
1158,1715729219380,1.0233189,-1.898433,-10.133587,1.0233189,-1.898433,-10.133587
1159,1715729219390,0.9228733966666667,-2.037982433333333,-10.178683,0.9228733966666667,-2.037982433333333,-10.178683
1160,1715729219400,0.9317328440000001,-2.03755634,-10.1710842,0.9317328440000001,-2.03755634,-10.1710842
1161,1715729219410,0.68043715,-2.5268054,-9.82466,0.68043715,-2.5268054,-9.82466
1162,1715729219420,0.6570014,-2.618418,-9.665004,0.6570014,-2.618418,-9.665004
1163,1715729219430,0.623125982,-2.6593242,-9.558264,0.623125982,-2.6593242,-9.558264
1164,1715729219440,0.48655918,-2.7292054,-9.355012,0.48655918,-2.7292054,-9.355012
1165,1715729219450,0.43968758,-2.7355971,-9.312402,0.43968758,-2.7355971,-9.312402
1166,1715729219460,0.2821617,-2.776077,-9.121853,0.2821617,-2.776077,-9.121853
1167,1715729219470,0.25659537,-2.7739464999999996,-9.076046,0.25659537,-2.7739464999999996,-9.076046
1168,1715729219480,0.206741034,-2.7343187,-8.9107172,0.206741034,-2.7343187,-8.9107172
1169,1715729219490,-0.05339634,-2.5555675,-8.122768,-0.05339634,-2.5555675,-8.122768
1170,1715729219500,-0.11198584,-2.5300012,-8.000397,-0.11198584,-2.5300012,-8.000397
1171,1715729219510,-0.5805687,-2.222273,-7.2111692,-0.5805687,-2.222273,-7.2111692
1172,1715729219520,-0.90214515,-1.9580877,-6.869353000000001,-0.90214515,-1.9580877,-6.869353000000001
1173,1715729219530,-0.9463535875,-1.9237662500000001,-6.83899285,-0.9463535875,-1.9237662500000001,-6.83899285
1174,1715729219540,-1.6530229000000003,-1.4532859,-6.5423164,-1.6530229000000003,-1.4532859,-6.5423164
1175,1715729219550,-2.053429,-1.2307789,-6.4401846,-2.053429,-1.2307789,-6.4401846
1176,1715729219560,-2.5529044,-0.8281093,-6.1696076,-2.5529044,-0.8281093,-6.1696076
1177,1715729219570,-2.51966808,-0.5512473,-5.78451472,-2.51966808,-0.5512473,-5.78451472
1178,1715729219580,-2.4234969333333334,-0.45326968333333334,-5.5524647499999995,-2.4234969333333334,-0.45326968333333334,-5.5524647499999995
1179,1715729219590,-0.69029087,-0.38402754,-3.2791478999999994,-0.69029087,-0.38402754,-3.2791478999999994
1180,1715729219600,-0.6157224025,-0.396810705,-3.180111675,-0.6157224025,-0.396810705,-3.180111675
1181,1715729219610,0.9063840833333332,-0.55145145,-0.8125076666666667,0.9063840833333332,-0.55145145,-0.8125076666666667
1182,1715729219620,1.5835145,-0.37444016,0.9201215,1.5835145,-0.37444016,0.9201215
1183,1715729219630,1.5274105,-0.07412459333333334,1.5690446333333334,1.5274105,-0.07412459333333334,1.5690446333333334
1184,1715729219640,1.12878,0.6639256,2.7284064,1.12878,0.6639256,2.7284064
1185,1715729219650,0.9536772859999999,0.9150348700000001,3.14846656,0.9536772859999999,0.9150348700000001,3.14846656
1186,1715729219660,0.47271073,1.636245,4.41645,0.47271073,1.636245,4.41645
1187,1715729219670,0.46631917000000006,1.8354492,5.1982203,0.46631917000000006,1.8354492,5.1982203
1188,1715729219680,0.46631917,1.8354492,5.1982203,0.46631917,1.8354492,5.1982203
1189,1715729219690,0.6761761000000001,1.81307875,5.93647025,0.6761761000000001,1.81307875,5.93647025
1190,1715729219700,0.8889092319999999,1.6822643,6.45637634,0.8889092319999999,1.6822643,6.45637634
1191,1715729219710,1.1564769,1.5393059,7.2174273,1.1564769,1.5393059,7.2174273
1192,1715729219720,1.1021484,1.5712639,7.462438000000001,1.1021484,1.5712639,7.462438000000001
1193,1715729219730,1.0432038,1.6007361666666666,7.495772,1.0432038,1.6007361666666666,7.495772
1194,1715729219740,0.4087949,1.8386451000000001,7.6497912,0.4087949,1.8386451000000001,7.6497912
1195,1715729219750,0.15433007,1.8737987,7.688141,0.15433007,1.8737987,7.688141
1196,1715729219760,-0.613778286,1.87529018,7.9418604,-0.613778286,1.87529018,7.9418604
1197,1715729219770,-0.8062714300000001,1.8556893,8.168442,-0.8062714300000001,1.8556893,8.168442
1198,1715729219780,-0.8062714300000001,1.8556893,8.168442,-0.8062714300000001,1.8556893,8.168442
1199,1715729219790,-0.8062714300000001,1.8556893,8.168442,-0.8062714300000001,1.8556893,8.168442
1200,1715729219800,-0.56991607,1.6181355,9.060999,-0.56991607,1.6181355,9.060999
1201,1715729219810,-0.15459639,1.4391712,9.81707,-0.15459639,1.4391712,9.81707
1202,1715729219820,-0.18485653500000002,1.481515375,10.01600825,-0.18485653500000002,1.481515375,10.01600825
1203,1715729219830,-0.2615222275,1.5536869750000002,10.088180000000001,-0.2615222275,1.5536869750000002,10.088180000000001
1204,1715729219840,-1.0693915,2.1474383,10.006687,-1.0693915,2.1474383,10.006687
1205,1715729219850,-1.434271,2.32768088,9.947245599999999,-1.434271,2.32768088,9.947245599999999
1206,1715729219860,-3.1738198,2.9174907,9.654085,-3.1738198,2.9174907,9.654085
1207,1715729219870,-4.06525908,3.13467132,9.4332826,-4.06525908,3.13467132,9.4332826
1208,1715729219880,-4.691421,3.2028482,9.265397,-4.691421,3.2028482,9.265397
1209,1715729219890,-5.152547,2.882337,8.968322,-5.152547,2.882337,8.968322
1210,1715729219900,-5.0833379999999995,2.123769475,8.584061,-5.0833379999999995,2.123769475,8.584061
1211,1715729219910,-4.818187,1.2539485,8.153528,-4.818187,1.2539485,8.153528
1212,1715729219920,-3.332544,-0.36272228,7.333541399999999,-3.332544,-0.36272228,7.333541399999999
1213,1715729219930,-3.03091468,-0.524589088,7.21039684,-3.03091468,-0.524589088,7.21039684
1214,1715729219940,-2.2004352,-1.340368,6.7531056,-2.2004352,-1.340368,6.7531056
1215,1715729219950,-1.5855117666666665,-1.9225789000000002,6.482218200000001,-1.5855117666666665,-1.9225789000000002,6.482218200000001
1216,1715729219960,-0.7423556,-2.5161526,6.174801,-0.7423556,-2.5161526,6.174801
1217,1715729219970,-0.30040434,-2.4937823,6.09171,-0.30040434,-2.4937823,6.09171
1218,1715729219980,-0.05885581199999999,-2.1287163799999997,5.9899242,-0.05885581199999999,-2.1287163799999997,5.9899242
1219,1715729219990,0.110867316,-0.8901875799999999,5.626749340000001,0.110867316,-0.8901875799999999,5.626749340000001
1220,1715729220000,0.010519480000000005,-0.657001375,5.5299167250000005,0.010519480000000005,-0.657001375,5.5299167250000005
1221,1715729220010,-0.2897517,-0.672714,4.6284375,-0.2897517,-0.672714,4.6284375
1222,1715729220020,-0.086419515,-0.8877641,4.267313,-0.086419515,-0.8877641,4.267313
1223,1715729220030,0.075473928,-0.95466266,3.9910635,0.075473928,-0.95466266,3.9910635
1224,1715729220040,1.0030788,-1.0667284,1.7859145,1.0030788,-1.0667284,1.7859145
1225,1715729220050,1.0060615599999998,-1.0290180599999998,1.67195792,1.0060615599999998,-1.0290180599999998,1.67195792
1226,1715729220060,0.7571361,-0.0677774,-0.47617283,0.7571361,-0.0677774,-0.47617283
1227,1715729220070,0.60267293,0.53609395,-1.5784544,0.60267293,0.53609395,-1.5784544
1228,1715729220080,0.602850475,0.6141910916666667,-1.7529356833333332,0.602850475,0.6141910916666667,-1.7529356833333332
1229,1715729220090,0.7837677,1.2230558,-3.5635731,0.7837677,1.2230558,-3.5635731
1230,1715729220100,0.8891289375,1.211071625,-3.878258625,0.8891289375,1.211071625,-3.878258625
1231,1715729220110,1.3237232,0.9119988,-4.8947535,1.3237232,0.9119988,-4.8947535
1232,1715729220120,1.5061496666666667,0.6827008,-5.278869633333334,1.5061496666666667,0.6827008,-5.278869633333334
1233,1715729220130,1.7656745,0.34541175,-5.9417744,1.7656745,0.34541175,-5.9417744
1234,1715729220140,1.8967019,0.3050649,-6.4263363,1.8967019,0.3050649,-6.4263363
1235,1715729220150,1.923033925,0.32314108500000005,-6.5197798,1.923033925,0.32314108500000005,-6.5197798
1236,1715729220160,2.1703415,0.54461604,-7.3986554,2.1703415,0.54461604,-7.3986554
1237,1715729220170,2.2992384,0.6234456,-7.841672,2.2992384,0.6234456,-7.841672
1238,1715729220180,2.36485864,0.5833916400000001,-8.182449600000002,2.36485864,0.5833916400000001,-8.182449600000002
1239,1715729220190,2.40555164,0.48964843199999997,-8.5487938,2.40555164,0.48964843199999997,-8.5487938
1240,1715729220200,2.44539254,0.34442637600000003,-8.9835812,2.44539254,0.34442637600000003,-8.9835812
1241,1715729220210,2.536659,0.036618438,-9.726789,2.536659,0.036618438,-9.726789
1242,1715729220220,2.5446484750000002,-0.273506445,-10.04969725,2.5446484750000002,-0.273506445,-10.04969725
1243,1715729220230,2.5462465,-0.45646548,-10.171936,2.5462465,-0.45646548,-10.171936
1244,1715729220240,2.5441158,-0.7344993,-10.3007,2.5441158,-0.7344993,-10.3007
1245,1715729220250,2.5415592,-0.83841578,-10.3151876,2.5415592,-0.83841578,-10.3151876
1246,1715729220260,2.5360198599999997,-1.1587139,-10.3160398,2.5360198599999997,-1.1587139,-10.3160398
1247,1715729220270,2.54092,-1.4841785,-10.250766,2.54092,-1.4841785,-10.250766
1248,1715729220280,2.6325328,-2.0251994,-9.929056,2.6325328,-2.0251994,-9.929056
1249,1715729220290,2.6357286,-2.1999025,-9.785246,2.6357286,-2.1999025,-9.785246
1250,1715729220300,2.62188015,-2.22174045,-9.754952500000002,2.62188015,-2.22174045,-9.754952500000002
1251,1715729220310,2.3929815,-2.3011026,-9.472191,2.3929815,-2.3011026,-9.472191
1252,1715729220320,2.1905816,-2.2883193,-9.161267,2.1905816,-2.2883193,-9.161267
1253,1715729220330,2.09726444,-2.25636144,-8.9337272,2.09726444,-2.25636144,-8.9337272
1254,1715729220340,1.9424416500000001,-2.2265341,-8.516317,1.9424416500000001,-2.2265341,-8.516317
1255,1715729220350,1.82532925,-2.1999026,-8.158521250000002,1.82532925,-2.1999026,-8.158521250000002
1256,1715729220360,1.6719313,-1.9676751,-7.706383700000001,1.6719313,-1.9676751,-7.706383700000001
1257,1715729220370,1.5483607,-1.8632792000000002,-7.566967,1.5483607,-1.8632792000000002,-7.566967
1258,1715729220380,1.150964116,-1.7438366000000003,-7.25761462,1.150964116,-1.7438366000000003,-7.25761462
1259,1715729220390,0.4652539,-1.5544859,-6.7106285,0.4652539,-1.5544859,-6.7106285
1260,1715729220400,0.32067765,-1.51666905,-6.590553275,0.32067765,-1.51666905,-6.590553275
1261,1715729220410,-0.545415,-1.2913659,-5.7372437,-0.545415,-1.2913659,-5.7372437
1262,1715729220420,-0.61124826,-1.2607661399999999,-5.56339268,-0.61124826,-1.2607661399999999,-5.56339268
1263,1715729220430,-0.41119176,-0.95381045,-4.2452087,-0.41119176,-0.95381045,-4.2452087
1264,1715729220440,-0.20240008999999998,-0.82491356,-3.6914048,-0.20240008999999998,-0.82491356,-3.6914048
1265,1715729220450,0.06970819499999999,-0.69874638,-2.8170231,0.06970819499999999,-0.69874638,-2.8170231
1266,1715729220460,0.8668583,-0.16258587,0.28961855,0.8668583,-0.16258587,0.28961855
1267,1715729220470,0.89448857,-0.11677952999999999,0.453069955,0.89448857,-0.11677952999999999,0.453069955
1268,1715729220480,0.9881652,0.5456813,2.2960427,0.9881652,0.5456813,2.2960427
1269,1715729220490,0.8636624999999999,0.8109319,3.0341372,0.8636624999999999,0.8109319,3.0341372
1270,1715729220500,0.8636624999999999,0.8109319,3.0341372,0.8636624999999999,0.8109319,3.0341372
1271,1715729220510,0.4854939,1.2177294,4.9883633,0.4854939,1.2177294,4.9883633
1272,1715729220520,0.47100632400000003,1.2253994,5.13494386,0.47100632400000003,1.2253994,5.13494386
