id,timestamp,acc_x,acc_y,acc_z,gyro_x,gyro_y,gyro_z
0,1715728593570,1.4330458666666666,-1.4030410666666666,-1.2790265333333333,1.4330458666666666,-1.4030410666666666,-1.2790265333333333
1,1715728593580,2.0217373,-1.5315828,-1.4041506,2.0217373,-1.5315828,-1.4041506
2,1715728593590,1.984453,-1.4708627,-1.3508874,1.984453,-1.4708627,-1.3508874
3,1715728593600,1.860949,-1.28557345,-1.1948263000000001,1.860949,-1.28557345,-1.1948263000000001
4,1715728593610,1.737445,-1.1002842,-1.0387652,1.737445,-1.1002842,-1.0387652
5,1715728593620,1.4946029428571428,-0.8252179142857142,-0.9554463657142858,1.4946029428571428,-0.8252179142857142,-0.9554463657142858
6,1715728593630,1.3731248,-0.6945518999999999,-0.88976145,1.3731248,-0.6945518999999999,-0.88976145
7,1715728593640,1.15481235,-0.3318962065,-0.966926525,1.15481235,-0.3318962065,-0.966926525
8,1715728593650,0.8283375957142857,0.05845634028571429,-1.0492657285714286,0.8283375957142857,0.05845634028571429,-1.0492657285714286
9,1715728593660,0.17936377,0.22463746,-1.0803105,0.17936377,0.22463746,-1.0803105
10,1715728593670,-0.08954871499999999,0.21558273000000003,-0.99994968,-0.08954871499999999,0.21558273000000003,-0.99994968
11,1715728593680,-0.3584612,0.206528,-0.91958886,-0.3584612,0.206528,-0.91958886
12,1715728593690,-0.3584612,0.20652799999999996,-0.9195888599999998,-0.3584612,0.20652799999999996,-0.9195888599999998
13,1715728593700,-0.5464041285714286,0.6491830714285713,-0.8031707457142857,-0.5464041285714286,0.6491830714285713,-0.8031707457142857
14,1715728593710,-0.6215813,0.8262451,-0.7566035000000001,-0.6215813,0.8262451,-0.7566035000000001
15,1715728593720,-0.6912800142857142,1.0140358714285713,-0.46966712857142856,-0.6912800142857142,1.0140358714285713,-0.46966712857142856
16,1715728593730,-0.7526088,1.1511505,-0.236888,-0.7526088,1.1511505,-0.236888
17,1715728593740,-0.9144717857142857,1.1172332571428572,-0.33150623285714287,-0.9144717857142857,1.1172332571428572,-0.33150623285714287
18,1715728593750,-1.2616717,0.6282392,-0.30293435,-1.2616717,0.6282392,-0.30293435
19,1715728593760,-1.2616717,0.6282392,-0.30293435,-1.2616717,0.6282392,-0.30293435
20,1715728593770,-1.1988210666666668,0.4599275633333333,-0.14456515333333333,-1.1988210666666668,0.4599275633333333,-0.14456515333333333
21,1715728593780,-1.0713444666666667,0.15140058999999997,-0.029516680000000003,-1.0713444666666667,0.15140058999999997,-0.029516680000000003
22,1715728593790,-0.9165262,-0.22064273,-0.011052109999999999,-0.9165262,-0.22064273,-0.011052109999999999
23,1715728593800,-0.8036970333333334,-0.58487411,-0.15379743666666668,-0.8036970333333334,-0.58487411,-0.15379743666666668
24,1715728593810,-0.74728245,-0.7669898,-0.2251701,-0.74728245,-0.7669898,-0.2251701
25,1715728593820,-0.74728245,-0.7669898,-0.2251701,-0.74728245,-0.7669898,-0.2251701
26,1715728593830,-0.6013413,-1.2387685,-0.22090904,-0.6013413,-1.2387685,-0.22090904
27,1715728593840,-0.274385282,-1.84937754,0.1912680848,-0.274385282,-1.84937754,0.1912680848
28,1715728593850,-0.19134799,-1.9682077,0.29348013,-0.19134799,-1.9682077,0.29348013
29,1715728593860,-0.15299849,-2.029993,0.33928648,-0.15299849,-2.029993,0.33928648
30,1715728593870,-0.11507510399999998,-2.2340442000000005,0.332894888,-0.11507510399999998,-2.2340442000000005,0.332894888
31,1715728593880,-0.067564346,-2.60936316,0.204663766,-0.067564346,-2.60936316,0.204663766
32,1715728593890,-0.04114581,-3.1322746,-0.85141194,-0.04114581,-3.1322746,-0.85141194
33,1715728593900,-0.04114581,-3.1322746,-0.85141194,-0.04114581,-3.1322746,-0.85141194
34,1715728593910,-0.0251668545,-3.1578409499999998,-0.8807067,-0.0251668545,-3.1578409499999998,-0.8807067
35,1715728593920,-0.009187899,-3.1834073,-0.91000146,-0.009187899,-3.1834073,-0.91000146
36,1715728593930,-0.009187899,-3.1834073,-0.9100014599999999,-0.009187899,-3.1834073,-0.9100014599999999
37,1715728593940,-0.009187899,-3.1834073,-0.91000146,-0.009187899,-3.1834073,-0.91000146
38,1715728593950,-0.009187899,-3.1834073,-0.91000146,-0.009187899,-3.1834073,-0.91000146
39,1715728593960,-0.009187899,-3.1834073,-0.9100014599999999,-0.009187899,-3.1834073,-0.9100014599999999
40,1715728593970,1.0059551224,-3.33952166,-0.869521456,1.0059551224,-3.33952166,-0.869521456
41,1715728593980,2.48115886,-3.5976616,-0.915114734,2.48115886,-3.5976616,-0.915114734
42,1715728593990,2.4764717,-3.9758303,-1.0504831,2.4764717,-3.9758303,-1.0504831
43,1715728594000,2.441318,-4.0470695,-1.0813757,2.441318,-4.0470695,-1.0813757
44,1715728594010,2.441318,-4.0470695,-1.0813757,2.441318,-4.0470695,-1.0813757
45,1715728594020,2.22839835,-4.2771666,-1.3029506,2.22839835,-4.2771666,-1.3029506
46,1715728594030,2.2017667,-4.2409477,-1.3583443,2.2017667,-4.2409477,-1.3583443
47,1715728594040,2.1682110249999997,-3.96141595,-1.6282888,2.1682110249999997,-3.96141595,-1.6282888
48,1715728594050,2.036384625,-2.8250126250000003,-2.613690875,2.036384625,-2.8250126250000003,-2.613690875
49,1715728594060,1.9961709,-2.4772706,-2.9121644,1.9961709,-2.4772706,-2.9121644
50,1715728594070,2.08405515,-1.6311849500000002,-3.6698997,2.08405515,-1.6311849500000002,-3.6698997
51,1715728594080,2.3492392,-0.55180657,-4.72158135,2.3492392,-0.55180657,-4.72158135
52,1715728594090,2.526539,-0.31851384,-5.0155277,2.526539,-0.31851384,-5.0155277
53,1715728594100,2.8833358000000002,-0.246142485,-5.35900855,2.8833358000000002,-0.246142485,-5.35900855
54,1715728594110,3.2401326,-0.17377113,-5.7024894,3.2401326,-0.17377113,-5.7024894
55,1715728594120,3.94768064,-0.30490509,-6.0696857600000005,3.94768064,-0.30490509,-6.0696857600000005
56,1715728594130,4.217778,-0.37710333,-6.2136827,4.217778,-0.37710333,-6.2136827
57,1715728594140,4.190347825,-0.39068544,-6.2152804999999995,4.190347825,-0.39068544,-6.2152804999999995
58,1715728594150,4.167711,-0.38456017,-6.207291,4.167711,-0.38456017,-6.207291
59,1715728594160,4.111784625,-0.36538543749999997,-6.176931,4.111784625,-0.36538543749999997,-6.176931
60,1715728594170,4.00371362,-0.32959258,-6.11695672,4.00371362,-0.32959258,-6.11695672
61,1715728594180,3.5425344,-0.1982722,-5.825927,3.5425344,-0.1982722,-5.825927
62,1715728594190,3.37242505,-0.18602166750000002,-5.692535925,3.37242505,-0.18602166750000002,-5.692535925
63,1715728594200,2.862097,-0.14927007,-5.2923627,2.862097,-0.14927007,-5.2923627
64,1715728594210,1.7811208,0.056325816,-4.3796983,1.7811208,0.056325816,-4.3796983
65,1715728594220,1.661811275,0.0941426745,-4.258824175,1.661811275,0.0941426745,-4.258824175
66,1715728594230,1.0284853999999999,0.309778662,-3.5747850399999996,1.0284853999999999,0.309778662,-3.5747850399999996
67,1715728594240,0.8448872,0.37790227,-3.3605072,0.8448872,0.37790227,-3.3605072
68,1715728594250,-0.455466785,0.447677035,-0.90727174,-0.455466785,0.447677035,-0.90727174
69,1715728594260,-0.8335688,0.32250857,0.09653952,-0.8335688,0.32250857,0.09653952
70,1715728594270,-0.9489900800000001,0.244584534,0.6805703120000001,-0.9489900800000001,0.244584534,0.6805703120000001
71,1715728594280,-1.122122,0.12769848,1.5566164999999998,-1.122122,0.12769848,1.5566164999999998
72,1715728594290,-1.2452666000000001,-0.044448127999999996,3.5443451800000005,-1.2452666000000001,-0.044448127999999996,3.5443451800000005
73,1715728594300,-1.2616717,-0.04700476,3.176483,-1.2616717,-0.04700476,3.176483
74,1715728594310,-1.2424968,-0.10879005,5.9849176,-1.2424968,-0.10879005,5.9849176
75,1715728594320,-1.20137764,-0.0787496154,6.3614882800000006,-1.20137764,-0.0787496154,6.3614882800000006
76,1715728594330,-1.036901,0.041412123,7.867771,-1.036901,0.041412123,7.867771
77,1715728594340,-0.65350595,0.19427746325,10.18708275,-0.65350595,0.19427746325,10.18708275
78,1715728594350,-0.49801075,0.25126907,11.136266,-0.49801075,0.25126907,11.136266
79,1715728594360,-0.408528614,0.24530358999999996,11.8723636,-0.408528614,0.24530358999999996,11.8723636
80,1715728594370,-0.38615808,0.24381222,12.056388,-0.38615808,0.24381222,12.056388
81,1715728594380,-0.38615808,0.24381222,12.056388,-0.38615808,0.24381222,12.056388
82,1715728594390,-0.38615808,0.24381222,12.056388,-0.38615808,0.24381222,12.056388
83,1715728594400,-0.38615808,0.24381222,12.056388,-0.38615808,0.24381222,12.056388
84,1715728594410,-0.38615808,0.24381222,12.056388,-0.38615808,0.24381222,12.056388
85,1715728594420,-0.38615808,0.24381222,12.056388,-0.38615808,0.24381222,12.056388
86,1715728594430,-0.38615808,0.24381222,12.056388,-0.38615808,0.24381222,12.056388
87,1715728594440,-0.38615808,0.24381222,12.056388,-0.38615808,0.24381222,12.056388
88,1715728594450,-0.38615808,0.24381222,12.056388,-0.38615808,0.24381222,12.056388
89,1715728594460,-0.38615808,0.24381222,12.056388,-0.38615808,0.24381222,12.056388
90,1715728594470,-0.38615808,0.24381222,12.056388,-0.38615808,0.24381222,12.056388
91,1715728594480,-0.38615808,0.24381222,12.056388,-0.38615808,0.24381222,12.056388
92,1715728594490,-0.38615808,0.24381222,12.056388,-0.38615808,0.24381222,12.056388
93,1715728594500,-2.641028212,-0.24977770800000001,9.408834500000001,-2.641028212,-0.24977770800000001,9.408834500000001
94,1715728594510,-2.8625232,-0.40040597600000005,5.25300138,-2.8625232,-0.40040597600000005,5.25300138
95,1715728594520,-0.28768779999999994,-0.7478151,3.1791461,-0.28768779999999994,-0.7478151,3.1791461
96,1715728594530,1.0398304,-0.7105309,2.58646,1.0398304,-0.7105309,2.58646
97,1715728594540,1.0755167666666667,-0.6686304916666667,2.0521860000000003,1.0755167666666667,-0.6686304916666667,2.0521860000000003
98,1715728594550,1.0526136,-0.6530066,1.5832481,1.0526136,-0.6530066,1.5832481
99,1715728594560,0.5573992,-0.5241097,0.5747097,0.5573992,-0.5241097,0.5747097
100,1715728594570,-0.0015446320000000124,-0.05784380800000001,-0.32610386,-0.0015446320000000124,-0.05784380800000001,-0.32610386
101,1715728594580,-0.6543648280000001,0.659717784,-1.3940839200000001,-0.6543648280000001,0.659717784,-1.3940839200000001
102,1715728594590,-1.32984855,1.9328543,-2.8046394,-1.32984855,1.9328543,-2.8046394
103,1715728594600,-1.3671328,2.1383836,-3.092194,-1.3671328,2.1383836,-3.092194
104,1715728594610,-1.13384,2.0201395,-3.3850083,-1.13384,2.0201395,-3.3850083
105,1715728594620,-0.7219025464,1.6376032600000001,-3.54133578,-0.7219025464,1.6376032600000001,-3.54133578
106,1715728594630,-0.3053312,1.2448937,-3.7257595,-0.3053312,1.2448937,-3.7257595
107,1715728594640,-0.3053312,1.2448937,-3.7257595,-0.3053312,1.2448937,-3.7257595
108,1715728594650,1.3174204333333333,0.05561563866666666,-4.2188877666666675,1.3174204333333333,0.05561563866666666,-4.2188877666666675
109,1715728594660,1.3624722,0.02862896,-4.241214,1.3624722,0.02862896,-4.241214
110,1715728594670,1.22108508,0.3447193092,-5.3748678,1.22108508,0.3447193092,-5.3748678
111,1715728594680,0.9918936,0.58030236,-5.566136,0.9918936,0.58030236,-5.566136
112,1715728594690,0.678240035,0.89235803,-5.9915755,0.678240035,0.89235803,-5.9915755
113,1715728594700,0.36458647000000005,1.2044137,-6.417015,0.36458647000000005,1.2044137,-6.417015
114,1715728594710,0.3629885875,1.30588,-7.28127675,0.3629885875,1.30588,-7.28127675
115,1715728594720,0.39228333000000004,1.3817135,-7.7105115,0.39228333000000004,1.3817135,-7.7105115
116,1715728594730,0.4221107,1.4237249,-7.851659,0.4221107,1.4237249,-7.851659
117,1715728594740,0.62445754,1.6631429400000002,-8.2640222,0.62445754,1.6631429400000002,-8.2640222
118,1715728594750,0.9279778000000001,2.02227,-8.882567,0.9279778000000001,2.02227,-8.882567
119,1715728594760,1.39725306,2.1622453999999998,-9.295783199999999,1.39725306,2.1622453999999998,-9.295783199999999
120,1715728594770,1.6117439,2.205495,-9.458742,1.6117439,2.205495,-9.458742
121,1715728594780,1.7779250000000002,2.1703415,-9.507745,1.7779250000000002,2.1703415,-9.507745
122,1715728594790,2.15449564,1.8909228599999999,-9.5626322,2.15449564,1.8909228599999999,-9.5626322
123,1715728594800,2.2965753,1.7667397,-9.568464,2.2965753,1.7667397,-9.568464
124,1715728594810,2.4408519,1.5425683000000001,-9.432643500000001,2.4408519,1.5425683000000001,-9.432643500000001
125,1715728594820,2.6268868999999997,1.10704858,-8.777079800000001,2.6268868999999997,1.10704858,-8.777079800000001
126,1715728594830,2.6373265,1.0542115,-8.647144,2.6373265,1.0542115,-8.647144
127,1715728594840,2.59173314,0.9804952660000001,-8.3393899,2.59173314,0.9804952660000001,-8.3393899
128,1715728594850,2.535893325,0.902178425,-8.070238125,2.535893325,0.902178425,-8.070238125
129,1715728594860,2.3498385,0.6729803,-7.336204499999999,2.3498385,0.6729803,-7.336204499999999
130,1715728594870,2.1644826,0.572312885,-6.90111085,2.1644826,0.572312885,-6.90111085
131,1715728594880,1.9791266999999997,0.47164547,-6.466017199999999,1.9791266999999997,0.47164547,-6.466017199999999
132,1715728594890,1.1047893683333332,0.514611095,-5.543254666666666,1.1047893683333332,0.514611095,-5.543254666666666
133,1715728594900,0.66072977,0.5930855,-5.1891656,0.66072977,0.5930855,-5.1891656
134,1715728594910,0.66072977,0.5930855,-5.1891656,0.66072977,0.5930855,-5.1891656
135,1715728594920,-0.04154528799999999,0.79348825,-4.84814814,-0.04154528799999999,0.79348825,-4.84814814
136,1715728594930,-0.60027605,0.9370325,-4.5852942,-0.60027605,0.9370325,-4.5852942
137,1715728594940,-0.912904292,0.85487404,-4.0082143199999996,-0.912904292,0.85487404,-4.0082143199999996
138,1715728594950,-0.9367662,0.7773761,-3.7683702,-0.9367662,0.7773761,-3.7683702
139,1715728594960,-0.8480031,0.548557502,-3.2508118799999997,-0.8480031,0.548557502,-3.2508118799999997
140,1715728594970,-0.7888277,0.39601177,-2.905773,-0.7888277,0.39601177,-2.905773
141,1715728594980,-0.5268172400000001,0.12547919,-1.901761856666667,-0.5268172400000001,0.12547919,-1.901761856666667
142,1715728594990,-0.72278136,0.2926812,-2.6245432,-0.72278136,0.2926812,-2.6245432
143,1715728595000,0.707095374,-0.46466800199999997,4.5786099,0.707095374,-0.46466800199999997,4.5786099
144,1715728595010,0.37097806,-0.4250401999999999,1.8100160000000003,0.37097806,-0.4250401999999999,1.8100160000000003
145,1715728595020,0.95780516,-0.5262402,7.8379436,0.95780516,-0.5262402,7.8379436
146,1715728595030,0.95780516,-0.5262402,7.8379436,0.95780516,-0.5262402,7.8379436
147,1715728595040,0.8021435020000001,-0.65811986,10.16900672,0.8021435020000001,-0.65811986,10.16900672
148,1715728595050,0.71612346,-0.70733505,11.010565,0.71612346,-0.70733505,11.010565
149,1715728595060,0.2960367712,-0.7501586600000001,11.7782208,0.2960367712,-0.7501586600000001,11.7782208
150,1715728595070,0.3494397725,-0.74515191,11.71267425,0.3494397725,-0.74515191,11.71267425
151,1715728595080,-0.14341111,-0.69561714,12.176763,-0.14341111,-0.69561714,12.176763
152,1715728595090,-0.830080032,-0.257660636,12.4713346,-0.830080032,-0.257660636,12.4713346
153,1715728595100,-1.4554164,0.14687322,12.722044,-1.4554164,0.14687322,12.722044
154,1715728595110,-2.1242688,0.44714442,12.731631,-2.1242688,0.44714442,12.731631
155,1715728595120,-2.1242688,0.44714442,12.731631,-2.1242688,0.44714442,12.731631
156,1715728595130,-2.9145613,0.51319075,12.135217,-2.9145613,0.51319075,12.135217
157,1715728595140,-3.2856725499999997,0.19847193999999999,11.49253,-3.2856725499999997,0.19847193999999999,11.49253
158,1715728595150,-3.334142,0.09147952,11.341862,-3.334142,0.09147952,11.341862
159,1715728595160,-3.2375026,-0.11781150000000001,10.99385375,-3.2375026,-0.11781150000000001,10.99385375
160,1715728595170,-3.05554884,-0.548664048,10.276545,-3.05554884,-0.548664048,10.276545
161,1715728595180,-2.92880912,-0.729066446,9.784100200000001,-2.92880912,-0.729066446,9.784100200000001
162,1715728595190,-3.37508805,-0.531033935,9.543564,-3.37508805,-0.531033935,9.543564
163,1715728595200,-3.679420575,-0.663093345,9.467397625,-3.679420575,-0.663093345,9.467397625
164,1715728595210,-3.705786,-0.90427566,9.4034815,-3.705786,-0.90427566,9.4034815
165,1715728595220,-2.57863044,-2.0400064999999996,8.5423756,-2.57863044,-2.0400064999999996,8.5423756
166,1715728595230,-2.4086943,-2.1013658,8.383225,-2.4086943,-2.1013658,8.383225
167,1715728595240,-0.93873692,-1.28390904,5.6268025999999995,-0.93873692,-1.28390904,5.6268025999999995
168,1715728595250,-0.81268964,-0.42189767799999994,4.2474725200000005,-0.81268964,-0.42189767799999994,4.2474725200000005
169,1715728595260,-0.79415405,0.066978455,3.2883358,-0.79415405,0.066978455,3.2883358
170,1715728595270,-0.6477135875,0.049401604,2.791756475,-0.6477135875,0.049401604,2.791756475
171,1715728595280,-0.20839219999999997,-0.003328949,1.3020185,-0.20839219999999997,-0.003328949,1.3020185
172,1715728595290,0.04324304500000001,-0.11807781875000001,-0.161820205,0.04324304500000001,-0.11807781875000001,-0.161820205
173,1715728595300,0.038748965,-0.039547913,-0.8769783,0.038748965,-0.039547913,-0.8769783
174,1715728595310,-0.535055284,0.8301067348,-1.6622641200000001,-0.535055284,0.8301067348,-1.6622641200000001
175,1715728595320,-0.91759145,1.4098765,-2.185788,-0.91759145,1.4098765,-2.185788
176,1715728595330,-1.0078725375,1.56270855,-2.338087375,-1.0078725375,1.56270855,-2.338087375
177,1715728595340,-0.8271771999999998,1.6921713,-3.7268248,-0.8271771999999998,1.6921713,-3.7268248
178,1715728595350,-0.8271772,1.6921713,-3.7268248,-0.8271772,1.6921713,-3.7268248
179,1715728595360,0.025100282499999987,1.14738885,-4.32806635,0.025100282499999987,1.14738885,-4.32806635
180,1715728595370,0.290018024,1.02417106,-4.5309659,0.290018024,1.02417106,-4.5309659
181,1715728595380,0.3347591,1.0147967,-4.5735765,0.3347591,1.0147967,-4.5735765
182,1715728595390,0.893676292,1.38481606,-5.4760142,0.893676292,1.38481606,-5.4760142
183,1715728595400,0.99082834,1.6186681,-5.773862,0.99082834,1.6186681,-5.773862
184,1715728595410,1.037699976,1.9643728200000001,-6.13208366,1.037699976,1.9643728200000001,-6.13208366
185,1715728595420,1.10246802,2.2883461,-6.546737640000001,1.10246802,2.2883461,-6.546737640000001
186,1715728595430,1.2209253,2.5430505,-7.112499,1.2209253,2.5430505,-7.112499
187,1715728595440,1.3806349199999999,2.5654212000000003,-7.46843016,1.3806349199999999,2.5654212000000003,-7.46843016
188,1715728595450,1.487108,2.580335,-7.7057176,1.487108,2.580335,-7.7057176
189,1715728595460,1.94720205,2.42703685,-8.2473044,1.94720205,2.42703685,-8.2473044
190,1715728595470,2.1240025,2.3706112,-8.449139,2.1240025,2.3706112,-8.449139
191,1715728595480,2.502038,2.3045647,-8.687625,2.502038,2.3045647,-8.687625
192,1715728595490,2.502038,2.3045647,-8.687625,2.502038,2.3045647,-8.687625
193,1715728595500,2.7617846833333335,2.231239,-8.757754,2.7617846833333335,2.231239,-8.757754
194,1715728595510,2.94508775,2.09044665,-8.721446499999999,2.94508775,2.09044665,-8.721446499999999
195,1715728595520,3.04476318,1.96751532,-8.6401134,3.04476318,1.96751532,-8.6401134
196,1715728595530,3.0870896333333335,1.8665194333333333,-8.366048,3.0870896333333335,1.8665194333333333,-8.366048
197,1715728595540,3.0877998,1.7603482,-7.585343,3.0877998,1.7603482,-7.585343
198,1715728595550,3.0877998,1.7603482,-7.585343,3.0877998,1.7603482,-7.585343
199,1715728595560,2.9692893000000002,1.6346470750000002,-6.80021065,2.9692893000000002,1.6346470750000002,-6.80021065
200,1715728595570,2.8995145800000004,1.59267566,-6.56743044,2.8995145800000004,1.59267566,-6.56743044
201,1715728595580,2.8439877,1.5792533,-6.4926486,2.8439877,1.5792533,-6.4926486
202,1715728595590,2.8439877,1.5792533,-6.4926486,2.8439877,1.5792533,-6.4926486
203,1715728595600,2.39982588,1.5837274799999999,-5.74933444,2.39982588,1.5837274799999999,-5.74933444
204,1715728595610,1.0749842,1.5547522,-4.579968,1.0749842,1.5547522,-4.579968
205,1715728595620,0.9746363600000001,1.54005166,-4.5294744,0.9746363600000001,1.54005166,-4.5294744
206,1715728595630,0.9077377999999999,1.5302513,-4.495812,0.9077377999999999,1.5302513,-4.495812
207,1715728595640,0.3648528085,1.38650725,-4.200800575,0.3648528085,1.38650725,-4.200800575
208,1715728595650,-0.10399636600000002,1.2747211,-3.9686396000000004,-0.10399636600000002,1.2747211,-3.9686396000000004
209,1715728595660,-1.0724541776666667,0.75620405,-1.8542244833333335,-1.0724541776666667,0.75620405,-1.8542244833333335
210,1715728595670,-1.38460304,0.56112764,-0.82539286,-1.38460304,0.56112764,-0.82539286
211,1715728595680,-1.3937643,0.550475,-0.7555382,-1.3937643,0.550475,-0.7555382
212,1715728595690,-1.5167357,0.2906172435,0.8360988,-1.5167357,0.2906172435,0.8360988
213,1715728595700,-1.67422164,-0.07254445039999999,3.08590898,-1.67422164,-0.07254445039999999,3.08590898
214,1715728595710,-1.90176196,-0.88789724,7.98580274,-1.90176196,-0.88789724,7.98580274
215,1715728595720,-1.9289262,-1.02624835,8.748012,-1.9289262,-1.02624835,8.748012
216,1715728595730,-1.9337199,-1.0640652,8.943421,-1.9337199,-1.0640652,8.943421
217,1715728595740,-1.9360634600000002,-1.1901658,9.3321356,-1.9360634600000002,-1.1901658,9.3321356
218,1715728595750,-1.9454377,-1.6945681999999997,10.886994,-1.9454377,-1.6945681999999997,10.886994
219,1715728595760,-1.63821576,-3.15147594,11.3710234,-1.63821576,-3.15147594,11.3710234
220,1715728595770,-1.5970966,-3.3005862,11.351449,-1.5970966,-3.3005862,11.351449
221,1715728595780,-1.58324815,-3.3581104,11.3407965,-1.58324815,-3.3581104,11.3407965
222,1715728595790,-1.5259369,-3.57238816,11.29776,-1.5259369,-3.57238816,11.29776
223,1715728595800,-1.4607427,-3.8075184999999996,11.249184,-1.4607427,-3.8075184999999996,11.249184
224,1715728595810,-1.17961966,-2.9793825800000002,11.002895200000001,-1.17961966,-2.9793825800000002,11.002895200000001
225,1715728595820,-1.1093389,-2.7723486,10.941323,-1.1093389,-2.7723486,10.941323
226,1715728595830,-1.2542148,-2.0981698,10.760362,-1.2542148,-2.0981698,10.760362
227,1715728595840,-1.2542148,-2.0981698,10.760362,-1.2542148,-2.0981698,10.760362
228,1715728595850,-1.4033517,-0.4868255,9.9967,-1.4033517,-0.4868255,9.9967
229,1715728595860,-1.078659324,0.28421230999999997,9.063529599999999,-1.078659324,0.28421230999999997,9.063529599999999
230,1715728595870,-0.97085464,0.5078644,8.739956,-0.97085464,0.5078644,8.739956
231,1715728595880,-0.8962862,0.2587259,7.992407,-0.8962862,0.2587259,7.992407
232,1715728595890,-0.8962862,0.2587259,7.992407,-0.8962862,0.2587259,7.992407
233,1715728595900,-0.7547393,-0.7957519,7.1712217,-0.7547393,-0.7957519,7.1712217
234,1715728595910,0.26216139399999994,-1.77912342,6.188489280000001,0.26216139399999994,-1.77912342,6.188489280000001
235,1715728595920,1.1452916,-2.5007064,5.349088,1.1452916,-2.5007064,5.349088
236,1715728595930,1.289262,-2.21702668,4.6393562,1.289262,-2.21702668,4.6393562
237,1715728595940,0.3115896296,-0.718786636,1.95598386,0.3115896296,-0.718786636,1.95598386
238,1715728595950,-0.19317890975,-0.29005131500000003,1.3507875999999999,-0.19317890975,-0.29005131500000003,1.3507875999999999
239,1715728595960,-1.7536370300000002,1.03253342,-0.243226328,-1.7536370300000002,1.03253342,-0.243226328
240,1715728595970,-2.0618444400000002,1.3192225,-0.58232638,-2.0618444400000002,1.3192225,-0.58232638
241,1715728595980,-2.3533006,1.6250597000000002,-0.94622046,-2.3533006,1.6250597000000002,-0.94622046
242,1715728595990,-2.6360614499999997,1.9664101,-1.49676208,-2.6360614499999997,1.9664101,-1.49676208
243,1715728596000,-2.9188223,2.3077605,-2.0473037,-2.9188223,2.3077605,-2.0473037
244,1715728596010,-2.5913537,1.877227575,-2.588091425,-2.5913537,1.877227575,-2.588091425
245,1715728596020,-2.4821975,1.7337166,-2.768354,-2.4821975,1.7337166,-2.768354
246,1715728596030,-1.6462851,0.8058719599999999,-3.01208624,-1.6462851,0.8058719599999999,-3.01208624
247,1715728596040,-1.437307,0.5739108,-3.0730193,-1.437307,0.5739108,-3.0730193
248,1715728596050,-0.51292443,-0.06937529,-3.4212274999999996,-0.51292443,-0.06937529,-3.4212274999999996
249,1715728596060,-0.30100355,0.16651402999999998,-3.8078516000000002,-0.30100355,0.16651402999999998,-3.8078516000000002
250,1715728596070,-0.08908267,0.40240335,-4.1944757,-0.08908267,0.40240335,-4.1944757
251,1715728596080,0.16415712600000001,1.84911128,-5.7556727,0.16415712600000001,1.84911128,-5.7556727
252,1715728596090,0.241228952,2.10024714,-6.0988208,0.241228952,2.10024714,-6.0988208
253,1715728596100,0.3230412,2.2544973,-6.35523,0.3230412,2.2544973,-6.35523
254,1715728596110,0.46095955,2.325836675,-6.578369374999999,0.46095955,2.325836675,-6.578369374999999
255,1715728596120,0.97271883,2.5355937,-7.345792,0.97271883,2.5355937,-7.345792
256,1715728596130,1.5622091825,2.3332935,-7.8189021499999996,1.5622091825,2.3332935,-7.8189021499999996
257,1715728596140,2.3509037,1.9263961000000003,-8.340482,2.3509037,1.9263961000000003,-8.340482
258,1715728596150,2.37623036,1.90746104,-8.357526199999999,2.37623036,1.90746104,-8.357526199999999
259,1715728596160,2.6914418,1.67747064,-8.5542806,2.6914418,1.67747064,-8.5542806
260,1715728596170,2.75184225,1.6335817750000001,-8.59015325,2.75184225,1.6335817750000001,-8.59015325
261,1715728596180,2.772615,1.6176027999999998,-8.601338,2.772615,1.6176027999999998,-8.601338
262,1715728596190,2.917124575,1.5475617000000002,-8.6498075,2.917124575,1.5475617000000002,-8.6498075
263,1715728596200,2.931206,1.537708,-8.665254,2.931206,1.537708,-8.665254
264,1715728596210,2.9900086,1.51128948,-8.6592884,2.9900086,1.51128948,-8.6592884
265,1715728596220,3.1043114666666667,1.4349323,-8.584671,3.1043114666666667,1.4349323,-8.584671
266,1715728596230,3.2348063,1.2512853,-8.256326,3.2348063,1.2512853,-8.256326
267,1715728596240,3.2403456200000003,1.1213231399999999,-7.8869992,3.2403456200000003,1.1213231399999999,-7.8869992
268,1715728596250,3.2353387999999996,0.8759796166666667,-7.1041992,3.2353387999999996,0.8759796166666667,-7.1041992
269,1715728596260,3.1037787000000003,0.60160765,-5.6178009499999995,3.1037787000000003,0.60160765,-5.6178009499999995
270,1715728596270,3.0387976,0.5792371,-5.2754517,3.0387976,0.5792371,-5.2754517
271,1715728596280,2.911066,0.6735129475,-5.07251895,2.911066,0.6735129475,-5.07251895
272,1715728596290,2.494581175,0.9988510575,-4.774078925,2.494581175,0.9988510575,-4.774078925
273,1715728596300,2.3699453,1.096822,-4.697147,2.3699453,1.096822,-4.697147
274,1715728596310,1.5268335066666667,1.1962022666666667,-4.259412333333334,1.5268335066666667,1.1962022666666667,-4.259412333333334
275,1715728596320,-0.41445413999999997,1.3327114,-3.11236735,-0.41445413999999997,1.3327114,-3.11236735
276,1715728596330,-0.6695182,1.27046,-2.8407917,-0.6695182,1.27046,-2.8407917
277,1715728596340,-0.6695182,1.27046,-2.8407917,-0.6695182,1.27046,-2.8407917
278,1715728596350,-1.9900457,0.8720515,-0.03448791,-1.9900457,0.8720515,-0.03448791
279,1715728596360,-2.173004675,0.45030692499999997,3.3457600725,-2.173004675,0.45030692499999997,3.3457600725
280,1715728596370,-2.233991,0.3097254,4.4725094,-2.233991,0.3097254,4.4725094
281,1715728596380,-2.1839237,0.013715269,6.609961,-2.1839237,0.013715269,6.609961
282,1715728596390,-2.152764725,-0.07307042825,7.18214075,-2.152764725,-0.07307042825,7.18214075
283,1715728596400,-2.0592878,-0.33342752,8.89868,-2.0592878,-0.33342752,8.89868
284,1715728596410,-1.7715600200000001,-0.950960838,10.949019799999999,-1.7715600200000001,-0.950960838,10.949019799999999
285,1715728596420,-1.6631428,-1.1780484,11.554782,-1.6631428,-1.1780484,11.554782
286,1715728596430,-1.59656385,-1.3798826,11.58913625,-1.59656385,-1.3798826,11.58913625
287,1715728596440,-1.49099624,-1.7510537200000003,11.6419202,-1.49099624,-1.7510537200000003,11.6419202
288,1715728596450,-1.4564817,-1.8735323999999998,11.657047,-1.4564817,-1.8735323999999998,11.657047
289,1715728596460,-1.397725775,-2.084088475,11.640801750000001,-1.397725775,-2.084088475,11.640801750000001
290,1715728596470,-1.29405564,-2.07902178,11.4717176,-1.29405564,-2.07902178,11.4717176
291,1715728596480,-1.1572758,-1.6721975999999998,11.103243,-1.1572758,-1.6721975999999998,11.103243
292,1715728596490,-1.1572758,-1.6721976,11.103243,-1.1572758,-1.6721976,11.103243
293,1715728596500,-1.1572758,-1.6721976,11.103243,-1.1572758,-1.6721976,11.103243
294,1715728596510,-1.21027265,-1.1987877574999999,10.491981000000001,-1.21027265,-1.1987877574999999,10.491981000000001
295,1715728596520,-1.40990304,-0.678759338,10.0218936,-1.40990304,-0.678759338,10.0218936
296,1715728596530,-1.7025575999999998,-0.057657395,9.586707,-1.7025575999999998,-0.057657395,9.586707
297,1715728596540,-1.92663584,0.19070884300000002,8.771354200000001,-1.92663584,0.19070884300000002,8.771354200000001
298,1715728596550,-2.2627532,0.5632582,7.548325,-2.2627532,0.5632582,7.548325
299,1715728596560,-2.2627532,0.5632582,7.548325,-2.2627532,0.5632582,7.548325
300,1715728596570,-2.2627532,0.5632582,7.548325,-2.2627532,0.5632582,7.548325
301,1715728596580,-2.2627532,0.5632582,7.548325000000001,-2.2627532,0.5632582,7.548325000000001
302,1715728596590,0.14266542,-0.4440285084,4.00499182,0.14266542,-0.4440285084,4.00499182
303,1715728596600,0.657534,-0.43462756,2.5278707,0.657534,-0.43462756,2.5278707
304,1715728596610,-0.46674524800000006,-0.0001597895999999932,1.01343862,-0.46674524800000006,-0.0001597895999999932,1.01343862
305,1715728596620,-1.19456,0.27989802,0.224238,-1.19456,0.27989802,0.224238
306,1715728596630,-2.15881004,0.946380228,-0.53484222,-2.15881004,0.946380228,-0.53484222
307,1715728596640,-2.85296246,1.44332572,-1.08968478,-2.85296246,1.44332572,-1.08968478
308,1715728596650,-3.0582387,1.6538218,-1.2848411,-3.0582387,1.6538218,-1.2848411
309,1715728596660,-3.10091585,1.73524785,-1.9222016499999999,-3.10091585,1.73524785,-1.9222016499999999
310,1715728596670,-2.7458768,1.38947658,-2.17705268,-2.7458768,1.38947658,-2.17705268
311,1715728596680,-2.4704795,1.1447589,-2.3445122,-2.4704795,1.1447589,-2.3445122
312,1715728596690,-2.125666975,0.98660055,-2.5886573,-2.125666975,0.98660055,-2.5886573
313,1715728596700,-1.0912294,0.5121255,-3.3210926,-1.0912294,0.5121255,-3.3210926
314,1715728596710,0.18675403999999998,0.7954190299999999,-4.642219,0.18675403999999998,0.7954190299999999,-4.642219
315,1715728596720,0.43276337,1.0009483,-4.989961,0.43276337,1.0009483,-4.989961
316,1715728596730,0.6639256,1.6985629,-5.7355127,0.6639256,1.6985629,-5.7355127
317,1715728596740,0.6639256,1.6985629,-5.7355127,0.6639256,1.6985629,-5.7355127
318,1715728596750,0.6639256,1.6985629,-5.7355127,0.6639256,1.6985629,-5.7355127
319,1715728596760,0.7831352225,1.9200378,-6.3835256750000005,0.7831352225,1.9200378,-6.3835256750000005
320,1715728596770,0.95460938,2.06008665,-6.982070650000001,0.95460938,2.06008665,-6.982070650000001
321,1715728596780,1.27812992,2.1405141199999997,-7.74430686,1.27812992,2.1405141199999997,-7.74430686
322,1715728596790,1.3230574,2.1415794,-7.8282229999999995,1.3230574,2.1415794,-7.8282229999999995
323,1715728596800,1.430649,2.1298616,-7.957120000000001,1.430649,2.1298616,-7.957120000000001
324,1715728596810,1.430649,2.1298616,-7.95712,1.430649,2.1298616,-7.95712
325,1715728596820,1.7832513000000003,2.136253,-8.287218,1.7832513000000003,2.136253,-8.287218
326,1715728596830,2.40983934,2.0463448,-8.785655199999999,2.40983934,2.0463448,-8.785655199999999
327,1715728596840,2.6756759,1.9807245999999998,-8.985898,2.6756759,1.9807245999999998,-8.985898
328,1715728596850,2.8045728000000003,1.9114825,-9.044354,2.8045728000000003,1.9114825,-9.044354
329,1715728596860,2.9860671500000002,1.81201345,-9.027976500000001,2.9860671500000002,1.81201345,-9.027976500000001
330,1715728596870,3.0215759500000003,1.7862695833333335,-8.95358575,3.0215759500000003,1.7862695833333335,-8.95358575
331,1715728596880,3.1272147,1.686845,-8.6269045,3.1272147,1.686845,-8.6269045
332,1715728596890,3.12295362,1.6246336,-8.46120272,3.12295362,1.6246336,-8.46120272
333,1715728596900,3.1059093,1.375788,-7.798395600000001,3.1059093,1.375788,-7.798395600000001
334,1715728596910,3.1059093,1.375788,-7.798395600000001,3.1059093,1.375788,-7.798395600000001
335,1715728596920,2.8770107999999994,1.011601,-6.60024,2.8770107999999994,1.011601,-6.60024
336,1715728596930,2.8770108,1.011601,-6.600240000000001,2.8770108,1.011601,-6.600240000000001
337,1715728596940,2.8770108,1.011601,-6.60024,2.8770108,1.011601,-6.60024
338,1715728596950,2.8770108,1.011601,-6.600240000000001,2.8770108,1.011601,-6.600240000000001
339,1715728596960,2.8770108,1.011601,-6.60024,2.8770108,1.011601,-6.60024
340,1715728596970,2.8770108,1.011601,-6.600240000000001,2.8770108,1.011601,-6.600240000000001
341,1715728596980,2.8770108,1.011601,-6.600240000000001,2.8770108,1.011601,-6.600240000000001
342,1715728596990,2.8770108,1.011601,-6.60024,2.8770108,1.011601,-6.60024
343,1715728597000,2.8770108,1.011601,-6.600240000000001,2.8770108,1.011601,-6.600240000000001
344,1715728597010,2.8770108,1.011601,-6.60024,2.8770108,1.011601,-6.60024
345,1715728597020,2.8770108,1.011601,-6.600240000000001,2.8770108,1.011601,-6.600240000000001
346,1715728597030,2.8770108,1.011601,-6.60024,2.8770108,1.011601,-6.60024
347,1715728597040,2.8056381,1.006274675,-6.3995045,2.8056381,1.006274675,-6.3995045
348,1715728597050,-0.9783115,0.9295757,-1.3476917,-0.9783115,0.9295757,-1.3476917
349,1715728597060,-0.838595505,-1.0488852075000001,9.328413999999999,-0.838595505,-1.0488852075000001,9.328413999999999
350,1715728597070,-0.8538088,-1.7116122999999999,11.268358999999998,-0.8538088,-1.7116122999999999,11.268358999999998
351,1715728597080,-1.0922946999999998,-2.08911515,12.010049,-1.0922946999999998,-2.08911515,12.010049
352,1715728597090,-1.2120303399999999,-2.09987436,12.051061800000001,-1.2120303399999999,-2.09987436,12.051061800000001
353,1715728597100,-1.3032169,-2.0640814,12.046801,-1.3032169,-2.0640814,12.046801
354,1715728597110,-1.6092937800000002,-1.437253688,12.124351800000001,-1.6092937800000002,-1.437253688,12.124351800000001
355,1715728597120,-1.8996313999999999,-0.79255617,12.235352,-1.8996313999999999,-0.79255617,12.235352
356,1715728597130,-2.13220496,-0.49534759800000006,12.0232316,-2.13220496,-0.49534759800000006,12.0232316
357,1715728597140,-2.287254,-0.29720855,11.881818,-2.287254,-0.29720855,11.881818
358,1715728597150,-2.8921907,-0.060853187,10.382193,-2.8921907,-0.060853187,10.382193
359,1715728597160,-2.8921907,-0.060853186999999996,10.382193,-2.8921907,-0.060853186999999996,10.382193
360,1715728597170,-2.6109612,-0.19933745,9.87526,-2.6109612,-0.19933745,9.87526
361,1715728597180,-1.95150974,-0.32541139,9.004087440000001,-1.95150974,-0.32541139,9.004087440000001
362,1715728597190,-0.96233255,-0.5145223,7.6973286000000005,-0.96233255,-0.5145223,7.6973286000000005
363,1715728597200,-0.9623325499999998,-0.5145223,7.6973286,-0.9623325499999998,-0.5145223,7.6973286
364,1715728597210,2.2433121,-1.7084166,4.379965,2.2433121,-1.7084166,4.379965
365,1715728597220,2.2433121,-1.7084166,4.379965,2.2433121,-1.7084166,4.379965
366,1715728597230,3.03477634,-1.5335002599999998,2.9671054,3.03477634,-1.5335002599999998,2.9671054
367,1715728597240,3.09206085,-1.43517645,2.6040368999999997,3.09206085,-1.43517645,2.6040368999999997
368,1715728597250,3.0632986999999994,-1.3867070000000001,2.48526,3.0632986999999994,-1.3867070000000001,2.48526
369,1715728597260,1.8517743799999997,-0.583285128,1.25669152,1.8517743799999997,-0.583285128,1.25669152
370,1715728597270,1.5488933,-0.38242966,0.9495494000000001,1.5488933,-0.38242966,0.9495494000000001
371,1715728597280,1.5488933,-0.38242966,0.9495494,1.5488933,-0.38242966,0.9495494
372,1715728597290,-1.9294587000000003,1.4684659,-0.6724476999999999,-1.9294587000000003,1.4684659,-0.6724476999999999
373,1715728597300,-2.8261445,1.8955034999999998,-1.1484873,-2.8261445,1.8955034999999998,-1.1484873
374,1715728597310,-2.9002602,1.8950774,-1.26862242,-2.9002602,1.8950774,-1.26862242
375,1715728597320,-3.196723,1.893373,-1.7491629,-3.196723,1.893373,-1.7491629
376,1715728597330,-1.3032169,0.04354265,-2.8961856,-1.3032169,0.04354265,-2.8961856
377,1715728597340,-1.3032169,0.04354265,-2.8961856,-1.3032169,0.04354265,-2.8961856
378,1715728597350,-0.8898946,-0.23023011,-3.051714,-0.8898946,-0.23023011,-3.051714
379,1715728597360,-0.65507055,-0.3250052825,-3.1787134249999998,-0.65507055,-0.3250052825,-3.1787134249999998
380,1715728597370,0.0494016,-0.6093308,-3.5597117,0.0494016,-0.6093308,-3.5597117
381,1715728597380,0.20666113333333333,-0.44461440999999996,-3.8951810333333334,0.20666113333333333,-0.44461440999999996,-3.8951810333333334
382,1715728597390,0.5211802,-0.11518163,-4.5661197,0.5211802,-0.11518163,-4.5661197
383,1715728597400,0.48043389999999997,0.2082923425,-4.935932175,0.48043389999999997,0.2082923425,-4.935932175
384,1715728597410,0.419127984,0.58365796,-5.40892916,0.419127984,0.58365796,-5.40892916
385,1715728597420,0.34754226,0.9849694,-5.9335184,0.34754226,0.9849694,-5.9335184
386,1715728597430,0.38589177,1.4333122,-6.836729,0.38589177,1.4333122,-6.836729
387,1715728597440,0.38589177,1.4333122,-6.836729,0.38589177,1.4333122,-6.836729
388,1715728597450,0.38589177,1.4333122,-6.836729,0.38589177,1.4333122,-6.836729
389,1715728597460,0.38589177,1.4333122,-6.836729,0.38589177,1.4333122,-6.836729
390,1715728597470,0.38589177,1.4333122,-6.836729,0.38589177,1.4333122,-6.836729
391,1715728597480,0.38589177,1.4333122,-6.836729,0.38589177,1.4333122,-6.836729
392,1715728597490,0.38589177,1.4333122,-6.836729,0.38589177,1.4333122,-6.836729
393,1715728597500,0.38589177,1.4333122,-6.836729,0.38589177,1.4333122,-6.836729
394,1715728597510,0.38589177,1.4333122,-6.836729,0.38589177,1.4333122,-6.836729
395,1715728597520,0.38589177,1.4333122,-6.836729,0.38589177,1.4333122,-6.836729
396,1715728597530,0.38589177,1.4333122,-6.836729,0.38589177,1.4333122,-6.836729
397,1715728597540,0.38589177,1.4333122,-6.836729,0.38589177,1.4333122,-6.836729
398,1715728597550,0.38589177,1.4333122,-6.836729,0.38589177,1.4333122,-6.836729
399,1715728597560,0.38589177,1.4333122,-6.836729,0.38589177,1.4333122,-6.836729
400,1715728597570,0.6408004466666667,1.4432547,-7.242106,0.6408004466666667,1.4432547,-7.242106
401,1715728597580,1.8481435666666666,1.05740732,-8.149799333333334,1.8481435666666666,1.05740732,-8.149799333333334
402,1715728597590,1.804789625,0.230196815,-6.280994225000001,1.804789625,0.230196815,-6.280994225000001
403,1715728597600,1.62292915,0.1900164,-5.7194672,1.62292915,0.1900164,-5.7194672
404,1715728597610,0.400006492,0.551779944,-4.47189672,0.400006492,0.551779944,-4.47189672
405,1715728597620,0.12290479,0.6442182,-4.238018,0.12290479,0.6442182,-4.238018
406,1715728597630,-0.26762531166666664,0.4842510933333333,-3.7898750833333334,-0.26762531166666664,0.4842510933333333,-3.7898750833333334
407,1715728597640,-0.6371342,0.25031031400000003,-3.21589774,-0.6371342,0.25031031400000003,-3.21589774
408,1715728597650,-1.0420719,-0.53247648,-1.2855069166666666,-1.0420719,-0.53247648,-1.2855069166666666
409,1715728597660,-1.081642,-0.62530977,-1.0313084,-1.081642,-0.62530977,-1.0313084
410,1715728597670,-1.1146653,-0.8446209000000001,-0.10692584,-1.1146653,-0.8446209000000001,-0.10692584
411,1715728597680,-1.03202746,-0.9057670200000001,0.680117568,-1.03202746,-0.9057670200000001,0.680117568
412,1715728597690,-0.7014761000000002,-1.1503515,3.8282912000000002,-0.7014761000000002,-1.1503515,3.8282912000000002
413,1715728597700,-0.262694012,-0.84877542,6.64665904,-0.262694012,-0.84877542,6.64665904
414,1715728597710,-0.15299849,-0.7733814,7.351251,-0.15299849,-0.7733814,7.351251
415,1715728597720,0.038962016,-0.44789009599999996,9.1219326,0.038962016,-0.44789009599999996,9.1219326
416,1715728597730,0.085620564,0.17414396199999999,11.8958258,0.085620564,0.17414396199999999,11.8958258
417,1715728597740,0.009986847,0.30866015,12.38662,0.009986847,0.30866015,12.38662
418,1715728597750,-0.5811013,0.44820966999999995,12.655998,-0.5811013,0.44820966999999995,12.655998
419,1715728597760,-0.845486425,0.3835281975,12.49757325,-0.845486425,0.3835281975,12.49757325
420,1715728597770,-1.3138696,0.33209595,12.297137,-1.3138696,0.33209595,12.297137
421,1715728597780,-2.04911452,-0.15627417600000001,11.344152,-2.04911452,-0.15627417600000001,11.344152
422,1715728597790,-2.6750900599999996,-0.48895601600000005,10.592901399999999,-2.6750900599999996,-0.48895601600000005,10.592901399999999
423,1715728597800,-3.54865956,0.017736636000000007,10.4484514,-3.54865956,0.017736636000000007,10.4484514
424,1715728597810,-4.02133705,0.344879105,10.38006175,-4.02133705,0.344879105,10.38006175
425,1715728597820,-4.162651,0.49188547999999993,10.3513,-4.162651,0.49188547999999993,10.3513
426,1715728597830,-4.7862629000000005,1.24402817,9.73973875,-4.7862629000000005,1.24402817,9.73973875
427,1715728597840,-5.040295,1.5622091,9.329978,-5.040295,1.5622091,9.329978
428,1715728597850,-5.134038,1.711346,8.7591305,-5.134038,1.711346,8.7591305
429,1715728597860,-4.6841772,0.5364667599999999,7.012524019999999,-4.6841772,0.5364667599999999,7.012524019999999
430,1715728597870,-4.571712,0.24274695,6.5758724,-4.571712,0.24274695,6.5758724
431,1715728597880,-2.5208576,-1.2322881333333333,5.5779867,-2.5208576,-1.2322881333333333,5.5779867
432,1715728597890,-0.539556,-3.2696936,4.2159142,-0.539556,-3.2696936,4.2159142
433,1715728597900,3.8221326,-4.159488175,2.5776051,3.8221326,-4.159488175,2.5776051
434,1715728597910,4.4340267,-3.6946006,1.9250646,4.4340267,-3.6946006,1.9250646
435,1715728597920,4.3115215,-2.9756808,1.3435638,4.3115215,-2.9756808,1.3435638
436,1715728597930,4.3115215,-2.9756808,1.3435638,4.3115215,-2.9756808,1.3435638
437,1715728597940,4.3115215,-2.9756808,1.3435638,4.3115215,-2.9756808,1.3435638
438,1715728597950,4.3115215,-2.9756808,1.3435638,4.3115215,-2.9756808,1.3435638
439,1715728597960,4.3115215,-2.9756808,1.3435638,4.3115215,-2.9756808,1.3435638
440,1715728597970,4.3115215,-2.9756808,1.3435638,4.3115215,-2.9756808,1.3435638
441,1715728597980,4.3115215,-2.9756808,1.3435638,4.3115215,-2.9756808,1.3435638
442,1715728597990,4.3115215,-2.9756808,1.3435638,4.3115215,-2.9756808,1.3435638
443,1715728598000,4.3115215,-2.9756808,1.3435638,4.3115215,-2.9756808,1.3435638
444,1715728598010,4.3115215,-2.9756808,1.3435638,4.3115215,-2.9756808,1.3435638
445,1715728598020,4.3115215,-2.9756808,1.3435638,4.3115215,-2.9756808,1.3435638
446,1715728598030,4.3115215,-2.9756808,1.3435638,4.3115215,-2.9756808,1.3435638
447,1715728598040,4.3115215,-2.9756808,1.3435638,4.3115215,-2.9756808,1.3435638
448,1715728598050,4.3115215,-2.9756808,1.3435638,4.3115215,-2.9756808,1.3435638
449,1715728598060,4.3115215,-2.9756808,1.3435638,4.3115215,-2.9756808,1.3435638
450,1715728598070,2.1367857333333333,-0.9511472666666666,0.5469685166666667,2.1367857333333333,-0.9511472666666666,0.5469685166666667
451,1715728598080,-1.6546207,0.816347011,-2.3888980666666666,-1.6546207,0.816347011,-2.3888980666666666
452,1715728598090,1.15168312,0.741902866,-4.95568648,1.15168312,0.741902866,-4.95568648
453,1715728598100,1.29392242,1.21264284,-5.82582046,1.29392242,1.21264284,-5.82582046
454,1715728598110,1.42170082,1.5219421199999998,-6.37064942,1.42170082,1.5219421199999998,-6.37064942
455,1715728598120,1.4658027999999999,1.594167,-6.486256999999999,1.4658027999999999,1.594167,-6.486256999999999
456,1715728598130,1.7893500199999999,1.8270336800000002,-7.065414199999999,1.7893500199999999,1.8270336800000002,-7.065414199999999
457,1715728598140,1.8715351,1.840243,-7.181741,1.8715351,1.840243,-7.181741
458,1715728598150,1.9578213999999998,1.8136113999999999,-7.302116,1.9578213999999998,1.8136113999999999,-7.302116
459,1715728598160,2.02200355,1.771533475,-7.385173249999999,2.02200355,1.771533475,-7.385173249999999
460,1715728598170,2.21455,1.6452997,-7.634344999999999,2.21455,1.6452997,-7.634344999999999
461,1715728598180,2.2552164400000003,1.6141940000000001,-7.692934459999999,2.2552164400000003,1.6141940000000001,-7.692934459999999
462,1715728598190,2.4261912000000003,1.4595177,-7.96689372,2.4261912000000003,1.4595177,-7.96689372
463,1715728598200,2.425339,1.4045501,-8.066709,2.425339,1.4045501,-8.066709
464,1715728598210,2.4274695,1.4049762000000001,-8.0641523,2.4274695,1.4049762000000001,-8.0641523
465,1715728598220,2.4359915,1.4066806,-8.0539255,2.4359915,1.4066806,-8.0539255
466,1715728598230,2.5241954200000003,1.34452248,-7.770246299999999,2.5241954200000003,1.34452248,-7.770246299999999
467,1715728598240,2.5800153200000002,1.25149832,-7.4958878,2.5800153200000002,1.25149832,-7.4958878
468,1715728598250,2.5936506,1.137302,-7.257375,2.5936506,1.137302,-7.257375
469,1715728598260,2.4924507,0.69215506,-6.34258,2.4924507,0.69215506,-6.34258
470,1715728598270,2.4924507,0.69215506,-6.342580000000001,2.4924507,0.69215506,-6.342580000000001
471,1715728598280,2.1999026,0.35792857499999997,-5.02108695,2.1999026,0.35792857499999997,-5.02108695
472,1715728598290,2.1261330800000002,0.334652568,-4.785457200000001,2.1261330800000002,0.334652568,-4.785457200000001
473,1715728598300,1.71956855,0.3635212275,-3.8998967749999998,1.71956855,0.3635212275,-3.8998967749999998
474,1715728598310,1.50330012,0.364266912,-3.56796728,1.50330012,0.364266912,-3.56796728
475,1715728598320,1.4210618,0.35872754,-3.4649030000000005,1.4210618,0.35872754,-3.4649030000000005
476,1715728598330,0.9918936733333332,0.26467363466666666,-3.0910843333333333,0.9918936733333332,0.26467363466666666,-3.0910843333333333
477,1715728598340,-0.20512984,0.009986847000000004,-2.0122165,-0.20512984,0.009986847000000004,-2.0122165
478,1715728598350,-1.0096835,-0.26807360199999997,-0.684138932,-1.0096835,-0.26807360199999997,-0.684138932
479,1715728598360,-1.3202611,-0.40906125,-0.01957422,-1.3202611,-0.40906125,-0.01957422
480,1715728598370,-1.3202611,-0.40906125,-0.01957422,-1.3202611,-0.40906125,-0.01957422
481,1715728598380,-1.384942575,-0.8726173375,2.72920542,-1.384942575,-0.8726173375,2.72920542
482,1715728598390,-1.4447637999999998,-0.9788441,3.2670305,-1.4447637999999998,-0.9788441,3.2670305
483,1715728598400,-0.09760478,-1.1194589,9.396025,-0.09760478,-1.1194589,9.396025
484,1715728598410,-0.07390266425,-1.100017825,9.48843675,-0.07390266425,-1.100017825,9.48843675
485,1715728598420,-0.002796317,-1.0416946,9.765672,-0.002796317,-1.0416946,9.765672
486,1715728598430,0.1402952212,-0.74009188,10.803984,0.1402952212,-0.74009188,10.803984
487,1715728598440,0.23568958,-0.5390234,11.496192,0.23568958,-0.5390234,11.496192
488,1715728598450,-0.77011902,-0.527838155,11.46699775,-0.77011902,-0.527838155,11.46699775
489,1715728598460,-0.9367661999999999,-0.56245923,11.374886,-0.9367661999999999,-0.56245923,11.374886
490,1715728598470,-0.9367662,-0.56245923,11.374886,-0.9367662,-0.56245923,11.374886
491,1715728598480,-0.9367661999999999,-0.56245923,11.374886,-0.9367661999999999,-0.56245923,11.374886
492,1715728598490,-0.9367662,-0.56245923,11.374886,-0.9367662,-0.56245923,11.374886
493,1715728598500,-0.9367662,-0.56245923,11.374886,-0.9367662,-0.56245923,11.374886
494,1715728598510,-0.9367662,-0.56245923,11.374886,-0.9367662,-0.56245923,11.374886
495,1715728598520,-0.9367661999999999,-0.56245923,11.374886,-0.9367661999999999,-0.56245923,11.374886
496,1715728598530,-0.9367662,-0.56245923,11.374886,-0.9367662,-0.56245923,11.374886
497,1715728598540,-0.9367661999999999,-0.56245923,11.374886,-0.9367661999999999,-0.56245923,11.374886
498,1715728598550,-0.9367662,-0.56245923,11.374886,-0.9367662,-0.56245923,11.374886
499,1715728598560,-0.9367662,-0.56245923,11.374886,-0.9367662,-0.56245923,11.374886
500,1715728598570,-0.9367661999999999,-0.56245923,11.374886,-0.9367661999999999,-0.56245923,11.374886
501,1715728598580,-0.9367662,-0.56245923,11.374886,-0.9367662,-0.56245923,11.374886
502,1715728598590,-1.184939325,-0.5861613450000001,11.181307375,-1.184939325,-0.5861613450000001,11.181307375
503,1715728598600,,,,,,
504,1715728598610,-0.8875310399999999,-0.6939860250000001,4.373805975,-0.8875310399999999,-0.6939860250000001,4.373805975
505,1715728598620,0.15592797,-1.0033453,2.1178772,0.15592797,-1.0033453,2.1178772
506,1715728598630,0.13533287166666666,-0.5461252333333334,1.62901,0.13533287166666666,-0.5461252333333334,1.62901
507,1715728598640,0.094142675,0.36831489999999995,0.6512756,0.094142675,0.36831489999999995,0.6512756
508,1715728598650,-0.40320229750000003,0.8603335,0.16564851999999997,-0.40320229750000003,0.8603335,0.16564851999999997
509,1715728598660,-1.074797776,1.4024195000000002,-0.5265864280000001,-1.074797776,1.4024195000000002,-0.5265864280000001
510,1715728598670,-1.7717998,1.6026891,-1.3530179,-1.7717998,1.6026891,-1.3530179
511,1715728598680,-1.8314545000000002,1.55901335,-1.75448925,-1.8314545000000002,1.55901335,-1.75448925
512,1715728598690,-1.8142326833333333,1.4590783333333335,-2.2587363333333332,-1.8142326833333333,1.4590783333333335,-2.2587363333333332
513,1715728598700,-1.00177392,0.9388168200000001,-3.04545558,-1.00177392,0.9388168200000001,-3.04545558
514,1715728598710,-0.47038047499999996,0.63835925,-3.365301,-0.47038047499999996,0.63835925,-3.365301
515,1715728598720,-0.22437115,0.4972118,-3.5032527,-0.22437115,0.4972118,-3.5032527
516,1715728598730,0.39507969000000004,0.1905224,-3.8551091800000004,0.39507969000000004,0.1905224,-3.8551091800000004
517,1715728598740,0.5499424,0.11385005,-3.9430733000000004,0.5499424,0.11385005,-3.9430733000000004
518,1715728598750,0.8747811999999999,0.07816371899999999,-4.234356399999999,0.8747811999999999,0.07816371899999999,-4.234356399999999
519,1715728598760,1.19962,0.042477388,-4.5256395,1.19962,0.042477388,-4.5256395
520,1715728598770,1.2464917,0.40666440000000004,-5.1188583,1.2464917,0.40666440000000004,-5.1188583
521,1715728598780,1.19983314,0.5361738199999999,-5.28732974,1.19983314,0.5361738199999999,-5.28732974
522,1715728598790,1.0131989,1.0542115,-5.961215499999999,1.0131989,1.0542115,-5.961215499999999
523,1715728598800,1.0054757349999999,1.198255125,-6.19261075,1.0054757349999999,1.198255125,-6.19261075
524,1715728598810,0.98230624,1.6303860000000001,-6.8867965,0.98230624,1.6303860000000001,-6.8867965
525,1715728598820,1.339835325,1.7763270750000002,-7.6170345,1.339835325,1.7763270750000002,-7.6170345
526,1715728598830,1.2772511,1.7965671,-7.541667000000001,1.2772511,1.7965671,-7.541667000000001
527,1715728598840,1.9216690499999998,1.57765545,-8.277098500000001,1.9216690499999998,1.57765545,-8.277098500000001
528,1715728598850,2.2571604,1.5632744,-8.714256,2.2571604,1.5632744,-8.714256
529,1715728598860,2.2736720999999998,1.5733944499999999,-8.7483445,2.2736720999999998,1.5733944499999999,-8.7483445
530,1715728598870,2.2901838,1.5835145,-8.782433,2.2901838,1.5835145,-8.782433
531,1715728598880,2.3748056,1.66021345,-8.9730485,2.3748056,1.66021345,-8.9730485
532,1715728598890,2.4594274,1.7369124,-9.163664,2.4594274,1.7369124,-9.163664
533,1715728598900,2.537191625,1.755288175,-9.14875,2.537191625,1.755288175,-9.14875
534,1715728598910,2.5616927,1.767805,-9.177512,2.5616927,1.767805,-9.177512
535,1715728598920,2.4626231,1.4109417,-7.9603157,2.4626231,1.4109417,-7.9603157
536,1715728598930,2.4626231,1.4109417,-7.9603157,2.4626231,1.4109417,-7.9603157
537,1715728598940,2.4320857,1.3201279666666668,-7.767858166666667,2.4320857,1.3201279666666668,-7.767858166666667
538,1715728598950,2.0856530399999995,0.426664724,-5.93551588,2.0856530399999995,0.426664724,-5.93551588
539,1715728598960,2.0221633199999998,0.30613014,-5.66392688,2.0221633199999998,0.30613014,-5.66392688
540,1715728598970,1.9769961999999999,0.25339958,-5.5011544,1.9769961999999999,0.25339958,-5.5011544
541,1715728598980,1.7465264,0.18437050000000002,-4.91371488,1.7465264,0.18437050000000002,-4.91371488
542,1715728598990,1.232350254,0.21289294399999997,-3.79590728,1.232350254,0.21289294399999997,-3.79590728
543,1715728599000,0.064315285,0.9653286,-2.3572953500000002,0.064315285,0.9653286,-2.3572953500000002
544,1715728599010,-0.4298339,1.1895,-1.8652767,-0.4298339,1.1895,-1.8652767
545,1715728599020,-0.879242,1.2523506,-1.409477,-0.879242,1.2523506,-1.409477
546,1715728599030,-1.3152011666666665,1.13943265,-0.7740028333333334,-1.3152011666666665,1.13943265,-0.7740028333333334
547,1715728599040,-2.1871195,0.91359675,0.4969455,-2.1871195,0.91359675,0.4969455
548,1715728599050,-2.345277775,0.2948450225,2.683365825,-2.345277775,0.2948450225,2.683365825
549,1715728599060,-2.3011026,-0.5145223,5.7867785,-2.3011026,-0.5145223,5.7867785
550,1715728599070,-2.3011026,-0.5145223,5.7867785,-2.3011026,-0.5145223,5.7867785
551,1715728599080,-1.6833828533333335,-0.6589987,7.1095250000000005,-1.6833828533333335,-0.6589987,7.1095250000000005
552,1715728599090,-0.44794336,-0.9479515,9.755018,-0.44794336,-0.9479515,9.755018
553,1715728599100,-0.2451105025,-0.9735178,10.110450499999999,-0.2451105025,-0.9735178,10.110450499999999
554,1715728599110,-0.10974878400000002,-1.03828582,10.3694896,-0.10974878400000002,-1.03828582,10.3694896
555,1715728599120,-0.008122635,-1.1226547,10.580332,-0.008122635,-1.1226547,10.580332
556,1715728599130,-0.1614762133333333,-1.1595838666666667,10.523872666666668,-0.1614762133333333,-1.1595838666666667,10.523872666666668
557,1715728599140,-0.46818337000000004,-1.2334422,10.410954,-0.46818337000000004,-1.2334422,10.410954
558,1715728599150,-1.0598374499999998,-1.250752675,10.04011,-1.0598374499999998,-1.250752675,10.04011
559,1715728599160,-1.1242526,-1.2760527,9.978591,-1.1242526,-1.2760527,9.978591
560,1715728599170,-1.27807668,-1.45445766,9.686415499999999,-1.27807668,-1.45445766,9.686415499999999
561,1715728599180,-1.34007506,-1.47661518,9.4580232,-1.34007506,-1.47661518,9.4580232
562,1715728599190,-1.3958949,-1.5060165,9.258606,-1.3958949,-1.5060165,9.258606
563,1715728599200,-1.4902594333333334,-0.9437348066666668,8.755978666666666,-1.4902594333333334,-0.9437348066666668,8.755978666666666
564,1715728599210,-1.5374417,-0.66259396,8.504665,-1.5374417,-0.66259396,8.504665
565,1715728599220,-1.7651085499999999,0.07786412,8.41917775,-1.7651085499999999,0.07786412,8.41917775
566,1715728599230,-1.7883646,0.183225356,8.3913212,-1.7883646,0.183225356,8.3913212
567,1715728599240,-2.5150874,1.4578133,8.342746,-2.5150874,1.4578133,8.342746
568,1715728599250,-3.23240935,1.02971045,7.807584,-3.23240935,1.02971045,7.807584
569,1715728599260,-3.9497313,0.6016076,7.272422000000001,-3.9497313,0.6016076,7.272422000000001
570,1715728599270,-3.0725310666666665,-0.4346276,6.535082,-3.0725310666666665,-0.4346276,6.535082
571,1715728599280,-1.3181306,-2.507098,5.060402,-1.3181306,-2.507098,5.060402
572,1715728599290,-0.3648528,-2.8138938,4.3512025,-0.3648528,-2.8138938,4.3512025
573,1715728599300,1.5893734000000002,-1.1780484,1.036901,1.5893734000000002,-1.1780484,1.036901
574,1715728599310,1.5893734,-1.1780484,1.036901,1.5893734,-1.1780484,1.036901
575,1715728599320,1.19962,-0.19401114,0.24447800000000003,1.19962,-0.19401114,0.24447800000000003
576,1715728599330,1.19962,-0.19401114,0.244478,1.19962,-0.19401114,0.244478
577,1715728599340,-0.733434,1.6772577,-1.0366347,-0.733434,1.6772577,-1.0366347
578,1715728599350,-1.506083,2.11867625,-1.51114305,-1.506083,2.11867625,-1.51114305
579,1715728599360,-2.3692794,2.5473118,-2.1144152,-2.3692794,2.5473118,-2.1144152
580,1715728599370,-1.6848476000000001,1.3872396200000001,-2.8471390666666667,-1.6848476000000001,1.3872396200000001,-2.8471390666666667
581,1715728599380,-1.3426317,0.8072035300000001,-3.2135009999999995,-1.3426317,0.8072035300000001,-3.2135009999999995
582,1715728599390,-1.3426317,0.80720353,-3.213501,-1.3426317,0.80720353,-3.213501
583,1715728599400,0.17077508750000003,-0.0963064875,-3.9992994,0.17077508750000003,-0.0963064875,-3.9992994
584,1715728599410,0.47111285,-0.21957746,-4.179562,0.47111285,-0.21957746,-4.179562
585,1715728599420,0.6294820266666666,0.04846950433333332,-4.513921666666667,0.6294820266666666,0.04846950433333332,-4.513921666666667
586,1715728599430,0.72890663,0.33848754,-4.822715,0.72890663,0.33848754,-4.822715
587,1715728599440,0.6681866,0.817723,-5.2402983,0.6681866,0.817723,-5.2402983
588,1715728599450,0.77138406,1.7038892999999997,-6.429798,0.77138406,1.7038892999999997,-6.429798
589,1715728599460,0.77138406,1.7038892999999997,-6.429798,0.77138406,1.7038892999999997,-6.429798
590,1715728599470,0.8480830199999999,1.7386878333333333,-6.579645133333333,0.8480830199999999,1.7386878333333333,-6.579645133333333
591,1715728599480,0.8864325,1.7560870999999998,-6.6545687000000004,0.8864325,1.7560870999999998,-6.6545687000000004
592,1715728599490,0.8864325,1.7560870999999998,-6.6545687000000004,0.8864325,1.7560870999999998,-6.6545687000000004
593,1715728599500,2.1811717666666666,1.3400128666666669,-8.103682333333333,2.1811717666666666,1.3400128666666669,-8.103682333333333
594,1715728599510,2.331163075,1.244094775,-8.28508775,2.331163075,1.244094775,-8.28508775
595,1715728599520,2.4509053,1.1522158,-8.464052,2.4509053,1.1522158,-8.464052
596,1715728599530,2.4839284,1.0435588,-8.935831,2.4839284,1.0435588,-8.935831
597,1715728599540,2.4839284,1.0435588,-8.935831,2.4839284,1.0435588,-8.935831
598,1715728599550,2.3803316,1.0506606,-9.274496333333333,2.3803316,1.0506606,-9.274496333333333
599,1715728599560,2.3285332,1.0542115,-9.443829,2.3285332,1.0542115,-9.443829
600,1715728599570,2.3285332,1.0542115,-9.443829,2.3285332,1.0542115,-9.443829
601,1715728599580,2.2209415,1.04782,-9.696163,2.2209415,1.04782,-9.696163
602,1715728599590,2.2057615,0.86895553,-9.50131975,2.2057615,0.86895553,-9.50131975
603,1715728599600,2.0862922999999998,0.40666441,-8.3129445,2.0862922999999998,0.40666441,-8.3129445
604,1715728599610,2.0547605,0.33209595,-8.0454035,2.0547605,0.33209595,-8.0454035
605,1715728599620,2.0254657,0.27570355,-7.77489325,2.0254657,0.27570355,-7.77489325
606,1715728599630,1.9961709,0.21931115,-7.504383,1.9961709,0.21931115,-7.504383
607,1715728599640,1.85475715,0.0664458205,-6.30419675,1.85475715,0.0664458205,-6.30419675
608,1715728599650,1.73365,0.112784782,-5.8478312,1.73365,0.112784782,-5.8478312
609,1715728599660,1.4775207,0.24381222,-5.2062097,1.4775207,0.24381222,-5.2062097
610,1715728599670,0.7455069933333333,0.48052266666666665,-4.764524766666667,0.7455069933333333,0.48052266666666665,-4.764524766666667
611,1715728599680,0.36139068,0.534496,-4.6353617,0.36139068,0.534496,-4.6353617
612,1715728599690,-0.15086797,0.4588623,-4.4073954,-0.15086797,0.4588623,-4.4073954
613,1715728599700,-0.5431513133333333,0.2618329133333333,-3.979603166666667,-0.5431513133333333,0.2618329133333333,-3.979603166666667
614,1715728599710,-1.327718,-0.13222586,-3.1240187,-1.327718,-0.13222586,-3.1240187
615,1715728599720,-1.6301197,-1.0012146,-0.80773616,-1.6301197,-1.0012146,-0.80773616
616,1715728599730,-1.0720547,-1.7574186,2.015612,-1.0720547,-1.7574186,2.015612
617,1715728599740,-0.65140873,-1.9181403,3.2915316,-0.65140873,-1.9181403,3.2915316
618,1715728599750,-0.65140873,-1.9181403,3.2915316,-0.65140873,-1.9181403,3.2915316
619,1715728599760,0.802809332,-1.8424266599999999,6.727406400000001,0.802809332,-1.8424266599999999,6.727406400000001
620,1715728599770,1.7092154700000002,-1.3048147700000001,8.788492,1.7092154700000002,-1.3048147700000001,8.788492
621,1715728599780,2.7268085,-0.73183614,11.085134,2.7268085,-0.73183614,11.085134
622,1715728599790,2.78814106,-0.5865608072599999,11.4538482,2.78814106,-0.5865608072599999,11.4538482
623,1715728599800,3.0334713,-0.0054594763,12.928705,3.0334713,-0.0054594763,12.928705
624,1715728599810,2.5126905,0.25339958,13.3632,2.5126905,0.25339958,13.3632
625,1715728599820,1.0806211466666669,0.3854035066666666,12.64539,1.0806211466666669,0.3854035066666666,12.64539
626,1715728599830,0.128790364,0.44842273600000004,12.1096778,0.128790364,0.44842273600000004,12.1096778
627,1715728599840,-0.81439406,0.43649179999999993,11.402449,-0.81439406,0.43649179999999993,11.402449
628,1715728599850,-0.81439406,0.4364918,11.402449,-0.81439406,0.4364918,11.402449
629,1715728599860,-1.8239975999999998,0.77631086,10.63679,-1.8239975999999998,0.77631086,10.63679
630,1715728599870,-2.4741414,1.1213564150000002,9.96956925,-2.4741414,1.1213564150000002,9.96956925
631,1715728599880,-2.7750118,1.2193274,9.57925,-2.7750118,1.2193274,9.57925
632,1715728599890,-2.7750118,1.2193274,9.57925,-2.7750118,1.2193274,9.57925
633,1715728599900,-2.7750118,1.2193274,9.57925,-2.7750118,1.2193274,9.57925
634,1715728599910,-1.308276925,-0.015313167249999999,9.68577625,-1.308276925,-0.015313167249999999,9.68577625
635,1715728599920,-1.291499,-0.63809294,8.677238,-1.291499,-0.63809294,8.677238
636,1715728599930,-1.291499,-0.63809294,8.677238,-1.291499,-0.63809294,8.677238
637,1715728599940,-1.291499,-0.63809294,8.677238,-1.291499,-0.63809294,8.677238
638,1715728599950,-0.48629284,-2.029993,6.6333966,-0.48629284,-2.029993,6.6333966
639,1715728599960,-0.48629284,-2.029993,6.6333966,-0.48629284,-2.029993,6.6333966
640,1715728599970,1.19514592,-0.9769799200000001,3.28849552,1.19514592,-0.9769799200000001,3.28849552
641,1715728599980,1.1783147500000002,-0.6066676400000001,2.9133628500000004,1.1783147500000002,-0.6066676400000001,2.9133628500000004
642,1715728599990,1.1325084,-0.47936863,2.8004447999999997,1.1325084,-0.47936863,2.8004447999999997
643,1715728600000,0.034842990000000025,0.5881143233333334,1.596697,0.034842990000000025,0.5881143233333334,1.596697
644,1715728600010,-0.09440899,0.9274452,1.3755217,-0.09440899,0.9274452,1.3755217
645,1715728600020,-2.010319,1.8188378,-1.057207598,-2.010319,1.8188378,-1.057207598
646,1715728600030,-2.1839237,1.9242656,-1.4116075,-2.1839237,1.9242656,-1.4116075
647,1715728600040,-2.1839237,1.9242656,-1.4116075,-2.1839237,1.9242656,-1.4116075
648,1715728600050,-2.24570895,2.1218720500000003,-2.0931764999999998,-2.24570895,2.1218720500000003,-2.0931764999999998
649,1715728600060,-2.3074942,2.3194785,-2.7747455,-2.3074942,2.3194785,-2.7747455
650,1715728600070,-2.2220068,2.2688784500000003,-2.938230175,-2.2220068,2.2688784500000003,-2.938230175
651,1715728600080,-1.9655446,2.1170783,-3.4286842,-1.9655446,2.1170783,-3.4286842
652,1715728600090,-1.1775157,1.3928322,-3.8993975999999995,-1.1775157,1.3928322,-3.8993975999999995
653,1715728600100,-0.7898663,1.22201716,-4.03569796,-0.7898663,1.22201716,-4.03569796
654,1715728600110,-0.2083922,0.9657946000000001,-4.2401485,-0.2083922,0.9657946000000001,-4.2401485
655,1715728600120,0.727208885,1.1351715150000001,-5.25514525,0.727208885,1.1351715150000001,-5.25514525
656,1715728600130,0.8193208999999999,1.2022831,-5.454283,0.8193208999999999,1.2022831,-5.454283
657,1715728600140,0.93756515,1.339635575,-5.8462000750000005,0.93756515,1.339635575,-5.8462000750000005
658,1715728600150,1.1484873,1.5717965,-6.5565643,1.1484873,1.5717965,-6.5565643
659,1715728600160,1.29323,1.7038893,-7.048583,1.29323,1.7038893,-7.048583
660,1715728600170,1.43251325,1.7952023,-7.515335,1.43251325,1.7952023,-7.515335
661,1715728600180,1.5467628,1.8753966,-7.8964,1.5467628,1.8753966,-7.8964
662,1715728600190,1.93867336,1.99459972,-8.847148,1.93867336,1.99459972,-8.847148
663,1715728600200,2.036651,2.0244005,-9.084835,2.036651,2.0244005,-9.084835
664,1715728600210,2.343347,1.9868498749999999,-9.445160125000001,2.343347,1.9868498749999999,-9.445160125000001
665,1715728600220,2.802442375,1.8229323750000002,-9.6668675,2.802442375,1.8229323750000002,-9.6668675
666,1715728600230,2.837596,1.7965671,-9.652487,2.837596,1.7965671,-9.652487
667,1715728600240,3.01048832,1.6269771800000001,-9.560555,3.01048832,1.6269771800000001,-9.560555
668,1715728600250,3.0944044400000004,1.5123814599999998,-9.529049800000001,3.0944044400000004,1.5123814599999998,-9.529049800000001
669,1715728600260,3.2571766,1.2235885,-9.494961,3.2571766,1.2235885,-9.494961
670,1715728600270,3.24972,0.84229065,-9.260070500000001,3.24972,0.84229065,-9.260070500000001
671,1715728600280,3.2337410000000006,0.8061383,-9.190296,3.2337410000000006,0.8061383,-9.190296
672,1715728600290,2.954708475,0.632766605,-8.3955757,2.954708475,0.632766605,-8.3955757
673,1715728600300,2.7089122,0.519795396,-7.73938004,2.7089122,0.519795396,-7.73938004
674,1715728600310,2.6628928,0.5121255,-7.63328,2.6628928,0.5121255,-7.63328
675,1715728600320,1.8993206666666669,0.4645437333333333,-6.154694,1.8993206666666669,0.4645437333333333,-6.154694
676,1715728600330,1.7779250000000002,0.4599276,-5.9569545,1.7779250000000002,0.4599276,-5.9569545
677,1715728600340,1.4189311,0.44820966999999995,-5.5586786,1.4189311,0.44820966999999995,-5.5586786
678,1715728600350,0.8392057999999999,0.3473647233333333,-5.467421333333334,0.8392057999999999,0.3473647233333333,-5.467421333333334
679,1715728600360,0.746883,0.32250857,-5.491567,0.746883,0.32250857,-5.491567
680,1715728600370,0.23142854999999998,0.1878192965,-5.4244555000000005,0.23142854999999998,0.1878192965,-5.4244555000000005
681,1715728600380,-0.2840259,0.053130023,-5.357344,-0.2840259,0.053130023,-5.357344
682,1715728600390,-0.2840259,0.053130023,-5.357344,-0.2840259,0.053130023,-5.357344
683,1715728600400,-1.2248868,-1.327085475,0.8097669,-1.2248868,-1.327085475,0.8097669
684,1715728600410,-1.0859032,-1.4793849,2.0209384,-1.0859032,-1.4793849,2.0209384
685,1715728600420,-0.1665140425,-1.5401049,5.994704725,-0.1665140425,-1.5401049,5.994704725
686,1715728600430,-0.023746506666666667,-1.4666017333333332,6.693849833333334,-0.023746506666666667,-1.4666017333333332,6.693849833333334
687,1715728600440,0.42424124,-1.4357091,8.655932,0.42424124,-1.4357091,8.655932
688,1715728600450,0.42424124,-1.4357090999999997,8.655932,0.42424124,-1.4357090999999997,8.655932
689,1715728600460,0.8768451,-0.6615287,12.138412,0.8768451,-0.6615287,12.138412
690,1715728600470,-0.023036325,-0.21425115,13.546425,-0.023036325,-0.21425115,13.546425
691,1715728600480,-0.23132200199999997,-0.19827219000000001,13.4307372,-0.23132200199999997,-0.19827219000000001,13.4307372
692,1715728600490,-0.37017912,-0.18761955,13.353612000000002,-0.37017912,-0.18761955,13.353612000000002
693,1715728600500,-2.054360866666667,-0.5212690166666667,12.120347833333334,-2.054360866666667,-0.5212690166666667,12.120347833333334
694,1715728600510,-2.218012,-0.60506976,11.927624,-2.218012,-0.60506976,11.927624
695,1715728600520,-2.5687501,-0.63525222,11.29357,-2.5687501,-0.63525222,11.29357
696,1715728600530,-2.5726118,-0.75633717,11.3131,-2.5726118,-0.75633717,11.3131
697,1715728600540,-2.9933908,-0.34727594,10.506828,-2.9933908,-0.34727594,10.506828
698,1715728600550,-2.9933908,-0.34727594,10.506828,-2.9933908,-0.34727594,10.506828
699,1715728600560,-3.16856015,-0.10606031,10.342311500000001,-3.16856015,-0.10606031,10.342311500000001
700,1715728600570,-3.5209625599999996,0.324106464,10.1270882,-3.5209625599999996,0.324106464,10.1270882
701,1715728600580,-4.208856533333333,0.7706294933333333,10.059196,-4.208856533333333,0.7706294933333333,10.059196
702,1715728600590,-4.588756,-0.12903006,9.189497,-4.588756,-0.12903006,9.189497
703,1715728600600,-4.54465412,-0.20293272399999998,9.147951699999998,-4.54465412,-0.20293272399999998,9.147951699999998
704,1715728600610,-4.3682466,-0.49854338,8.9817705,-4.3682466,-0.49854338,8.9817705
705,1715728600620,-4.3682466,-0.49854338,8.9817705,-4.3682466,-0.49854338,8.9817705
706,1715728600630,0.934069775,-3.630984425,6.16990725,0.934069775,-3.630984425,6.16990725
707,1715728600640,3.5414688999999995,-3.7617123,4.736695,3.5414688999999995,-3.7617123,4.736695
708,1715728600650,3.6971838399999997,-3.56277432,4.43040506,3.6971838399999997,-3.56277432,4.43040506
709,1715728600660,4.2806287,-2.5561001,2.9325376,4.2806287,-2.5561001,2.9325376
710,1715728600670,3.7374508200000003,-2.02320198,2.2781993999999997,3.7374508200000003,-2.02320198,2.2781993999999997
711,1715728600680,2.922684,-1.2238548,1.2966921,2.922684,-1.2238548,1.2966921
712,1715728600690,2.1774654937499998,-0.8103660500000001,0.991327635,2.1774654937499998,-0.8103660500000001,0.991327635
713,1715728600700,0.34115067,0.19907114,0.21571589,0.34115067,0.19907114,0.21571589
714,1715728600710,-2.0869846,1.8381124,-0.7704519,-2.0869846,1.8381124,-0.7704519
715,1715728600720,-2.62507594,2.29750738,-1.32763806,-2.62507594,2.29750738,-1.32763806
716,1715728600730,-2.9838035,2.6037707,-1.6990955,-2.9838035,2.6037707,-1.6990955
717,1715728600740,-2.3298203666666666,1.8738875666666666,-2.5980005,-2.3298203666666666,1.8738875666666666,-2.5980005
718,1715728600750,-2.0028288,1.508946,-3.047453,-2.0028288,1.508946,-3.047453
719,1715728600760,-1.07368585,0.582466195,-3.60441945,-1.07368585,0.582466195,-3.60441945
720,1715728600770,-0.20200062,0.04567318,-4.2060604,-0.20200062,0.04567318,-4.2060604
721,1715728600780,-0.20200062,0.04567318,-4.2060604,-0.20200062,0.04567318,-4.2060604
722,1715728600790,0.12610058,0.8922915000000001,-4.8706517,0.12610058,0.8922915000000001,-4.8706517
723,1715728600800,0.128870266,0.9150881399999999,-4.88961342,0.128870266,0.9150881399999999,-4.88961342
724,1715728600810,0.13994901,1.0062747,-4.9654603,0.13994901,1.0062747,-4.9654603
725,1715728600820,0.62717397,1.6085481,-6.2604880000000005,0.62717397,1.6085481,-6.2604880000000005
726,1715728600830,0.7711177133333335,1.6467200666666664,-6.522121233333333,0.7711177133333335,1.6467200666666664,-6.522121233333333
727,1715728600840,1.4988259,1.6974976,-7.6183662,1.4988259,1.6974976,-7.6183662
728,1715728600850,1.51714844,1.7002672799999998,-7.647980459999999,1.51714844,1.7002672799999998,-7.647980459999999
729,1715728600860,1.5904386,1.711346,-7.766437499999999,1.5904386,1.711346,-7.766437499999999
730,1715728600870,1.96504515,1.87822625,-8.428565625,1.96504515,1.87822625,-8.428565625
731,1715728600880,2.089914,1.933853,-8.649275,2.089914,1.933853,-8.649275
732,1715728600890,2.4956465,1.9391793,-9.598159,2.4956465,1.9391793,-9.598159
733,1715728600900,2.5084296200000002,1.91957842,-9.6207422,2.5084296200000002,1.91957842,-9.6207422
734,1715728600910,2.5276043,1.8901771,-9.654617,2.5276043,1.8901771,-9.654617
735,1715728600920,2.618684275,1.678555875,-9.7262565,2.618684275,1.678555875,-9.7262565
736,1715728600930,2.64243966,1.56263524,-9.7089726,2.64243966,1.56263524,-9.7089726
737,1715728600940,2.5750085499999997,1.45408485,-9.407076499999999,2.5750085499999997,1.45408485,-9.407076499999999
738,1715728600950,2.53697864,1.4392776999999999,-9.21714,2.53697864,1.4392776999999999,-9.21714
739,1715728600960,2.5286696,1.4354428,-9.167925,2.5286696,1.4354428,-9.167925
740,1715728600970,2.5286696,1.4354428,-9.167925,2.5286696,1.4354428,-9.167925
741,1715728600980,2.4192136250000003,1.377419225,-8.293376949999999,2.4192136250000003,1.377419225,-8.293376949999999
742,1715728600990,2.25503,1.0201231,-7.018755999999999,2.25503,1.0201231,-7.018755999999999
743,1715728601000,2.2405424,1.00265278,-6.9757193200000005,2.2405424,1.00265278,-6.9757193200000005
744,1715728601010,2.218811,0.9764473,-6.9111643,2.218811,0.9764473,-6.9111643
745,1715728601020,1.759749,0.84761698,-6.6513064,1.759749,0.84761698,-6.6513064
746,1715728601030,1.2440415999999999,0.712182028,-6.40401868,1.2440415999999999,0.712182028,-6.40401868
747,1715728601040,0.041944757,0.49295074000000005,-6.250967,0.041944757,0.49295074000000005,-6.250967
748,1715728601050,-0.042743706500000006,0.47590652,-6.1923775,-0.042743706500000006,0.47590652,-6.1923775
749,1715728601060,-0.12743217,0.4588623,-6.133788,-0.12743217,0.4588623,-6.133788
750,1715728601070,-0.656202385,0.257061425,-4.76685505,-0.656202385,0.257061425,-4.76685505
751,1715728601080,-1.1849726,0.05526055,-3.3999221,-1.1849726,0.05526055,-3.3999221
752,1715728601090,-1.1061431,-0.11198584,-1.9025608000000003,-1.1061431,-0.11198584,-1.9025608000000003
753,1715728601100,-1.1061431,-0.11198584,-1.9025608,-1.1061431,-0.11198584,-1.9025608
754,1715728601110,-0.31278804,-0.7478151,2.8366640000000003,-0.31278804,-0.7478151,2.8366640000000003
755,1715728601120,0.38376122999999995,-0.9181907,6.380995499999999,0.38376122999999995,-0.9181907,6.380995499999999
756,1715728601130,1.0803105,-1.0885663,9.925327,1.0803105,-1.0885663,9.925327
757,1715728601140,1.2224566000000001,-0.9772462500000001,11.351915,1.2224566000000001,-0.9772462500000001,11.351915
758,1715728601150,1.3646027,-0.8659262,12.778503,1.3646027,-0.8659262,12.778503
759,1715728601160,1.3528848,-1.0448905,13.286500999999998,1.3528848,-1.0448905,13.286500999999998
760,1715728601170,1.154657,-1.4668236666666665,13.116480333333334,1.154657,-1.4668236666666665,13.116480333333334
761,1715728601180,1.0355694,-1.6903071,13.007534999999999,1.0355694,-1.6903071,13.007534999999999
762,1715728601190,-0.232653584,-1.3661207599999998,12.1213958,-0.232653584,-1.3661207599999998,12.1213958
763,1715728601200,-0.555535,-1.200419,11.880753,-0.555535,-1.200419,11.880753
764,1715728601210,-0.9026778,-0.9394294000000001,11.545195,-0.9026778,-0.9394294000000001,11.545195
765,1715728601220,-2.1730046,0.1247689991,10.225166,-2.1730046,0.1247689991,10.225166
766,1715728601230,-2.222273,0.1649827,10.173534,-2.222273,0.1649827,10.173534
767,1715728601240,-3.743902475,1.2953938749999998,9.177479250000001,-3.743902475,1.2953938749999998,9.177479250000001
768,1715728601250,-3.9631537199999998,1.46974424,9.180974800000001,-3.9631537199999998,1.46974424,9.180974800000001
769,1715728601260,-3.9731672000000002,1.4780533,9.193758,-3.9731672000000002,1.4780533,9.193758
770,1715728601270,-4.0115166,1.4993585999999999,9.48344325,-4.0115166,1.4993585999999999,9.48344325
771,1715728601280,-4.049866,1.5206639,9.7731285,-4.049866,1.5206639,9.7731285
772,1715728601290,-2.8964075,-1.0310864083333333,8.58522625,-2.8964075,-1.0310864083333333,8.58522625
773,1715728601300,-2.66825245,-1.3343425500000001,8.410656,-2.66825245,-1.3343425500000001,8.410656
774,1715728601310,-2.4662185,-1.5219954,8.294808,-2.4662185,-1.5219954,8.294808
775,1715728601320,-1.93608339,-1.8143437,7.94656675,-1.93608339,-1.8143437,7.94656675
776,1715728601330,-0.15931018800000002,-2.6183381599999995,6.618323080000001,-0.15931018800000002,-2.6183381599999995,6.618323080000001
777,1715728601340,0.20021629600000002,-1.5439132,4.47980652,0.20021629600000002,-1.5439132,4.47980652
778,1715728601350,0.103730045,-1.3483574,4.2286973,0.103730045,-1.3483574,4.2286973
779,1715728601360,-0.04221107,-1.2174631,4.0369496,-0.04221107,-1.2174631,4.0369496
780,1715728601370,-0.209830308,-1.10521096,3.81138008,-0.209830308,-1.10521096,3.81138008
781,1715728601380,-0.88030726,-0.6562024,2.9091019999999994,-0.88030726,-0.6562024,2.9091019999999994
782,1715728601390,-2.0944414,1.0403631,0.11025479,-2.0944414,1.0403631,0.11025479
783,1715728601400,-2.10296355,1.0717884,0.058356475000000005,-2.10296355,1.0717884,0.058356475000000005
784,1715728601410,-2.12853,1.1660643,-0.09733847,-2.12853,1.1660643,-0.09733847
785,1715728601420,-1.7920064999999998,1.496695425,-1.6013909,-1.7920064999999998,1.496695425,-1.6013909
786,1715728601430,-1.707884,1.4695312,-1.7480977,-1.707884,1.4695312,-1.7480977
787,1715728601440,-1.16633057,1.08616943,-2.21827845,-1.16633057,1.08616943,-2.21827845
788,1715728601450,-0.512285292,0.6192910039999999,-2.76643644,-0.512285292,0.6192910039999999,-2.76643644
789,1715728601460,-0.34354752,0.49401602,-2.8834023,-0.34354752,0.49401602,-2.8834023
790,1715728601470,0.170122616,0.21374514800000002,-3.3562727800000003,0.170122616,0.21374514800000002,-3.3562727800000003
791,1715728601480,0.29854015,0.14367743,-3.4744903999999996,0.29854015,0.14367743,-3.4744903999999996
792,1715728601490,0.38056543,1.2566116,-4.7173867,0.38056543,1.2566116,-4.7173867
793,1715728601500,0.38056543,1.2566116,-4.7173867,0.38056543,1.2566116,-4.7173867
794,1715728601510,0.32517174,1.5430344,-4.932437,0.32517174,1.5430344,-4.932437
795,1715728601520,0.327035945,2.1426446500000003,-5.6116755,0.327035945,2.1426446500000003,-5.6116755
796,1715728601530,0.28469172,2.2726068,-5.649226,0.28469172,2.2726068,-5.649226
797,1715728601540,0.5378249999999999,2.4415399,-6.447596966666667,0.5378249999999999,2.4415399,-6.447596966666667
798,1715728601550,0.58935714,2.5270717,-6.6886573,0.58935714,2.5270717,-6.6886573
799,1715728601560,1.049444468,2.53815034,-7.491226899999999,1.049444468,2.53815034,-7.491226899999999
800,1715728601570,1.2949278,2.556899,-7.843636225,1.2949278,2.556899,-7.843636225
801,1715728601580,1.6863123,2.604836,-8.298937,1.6863123,2.604836,-8.298937
802,1715728601590,1.793338025,2.5598286000000003,-8.41075625,1.793338025,2.5598286000000003,-8.41075625
803,1715728601600,2.07073932,2.49644526,-8.662484599999999,2.07073932,2.49644526,-8.662484599999999
804,1715728601610,2.1186762,2.38659,-8.77178,2.1186762,2.38659,-8.77178
805,1715728601620,2.1346551999999996,2.0087765,-8.818297333333334,2.1346551999999996,2.0087765,-8.818297333333334
806,1715728601630,2.1410468,1.9700719,-8.820783,2.1410468,1.9700719,-8.820783
807,1715728601640,2.187652,1.865010275,-8.8325,2.187652,1.865010275,-8.8325
808,1715728601650,2.203364625,1.8508955500000002,-8.800276,2.203364625,1.8508955500000002,-8.800276
809,1715728601660,2.2848573,1.767805,-8.690821,2.2848573,1.767805,-8.690821
810,1715728601670,2.27553625,1.7654081750000001,-8.5217435,2.27553625,1.7654081750000001,-8.5217435
811,1715728601680,2.2475731,1.7582177,-8.014511,2.2475731,1.7582177,-8.014511
812,1715728601690,2.12616635,1.7382440000000001,-7.677188500000001,2.12616635,1.7382440000000001,-7.677188500000001
813,1715728601700,1.7619461,1.6783229,-6.665221,1.7619461,1.6783229,-6.665221
814,1715728601710,1.3927212666666666,1.6108561833333335,-6.097236166666666,1.3927212666666666,1.6108561833333335,-6.097236166666666
815,1715728601720,1.1016158,1.5654049,-5.675858,1.1016158,1.5654049,-5.675858
816,1715728601730,1.0171936400000001,1.5488933,-5.599957925,1.0171936400000001,1.5488933,-5.599957925
817,1715728601740,0.6026063100000001,1.35454925,-5.221589549999999,0.6026063100000001,1.35454925,-5.221589549999999
818,1715728601750,0.44128546,1.20974,-5.0709214,0.44128546,1.20974,-5.0709214
819,1715728601760,0.02466085520000001,0.42165796800000005,-4.63043492,0.02466085520000001,0.42165796800000005,-4.63043492
820,1715728601770,-0.419580732,-0.8495921799999998,-2.8419015,-0.419580732,-0.8495921799999998,-2.8419015
821,1715728601780,-0.58962345,-1.386707,-2.0026956,-0.58962345,-1.386707,-2.0026956
822,1715728601790,-0.428981678,-2.13012782,2.007089878,-0.428981678,-2.13012782,2.007089878
823,1715728601800,-0.39041913,-2.1897826,2.5555675,-0.39041913,-2.1897826,2.5555675
824,1715728601810,-0.0805605655,-1.8450033000000001,6.214947875,-0.0805605655,-1.8450033000000001,6.214947875
825,1715728601820,-0.013448954000000003,-1.7361134,7.043523300000001,-0.013448954000000003,-1.7361134,7.043523300000001
826,1715728601830,-0.023036327,-1.207343175,8.716586150000001,-0.023036327,-1.207343175,8.716586150000001
827,1715728601840,-0.26272064,-0.30679592,11.458908,-0.26272064,-0.30679592,11.458908
828,1715728601850,-0.26272064,-0.30679592,11.458908,-0.26272064,-0.30679592,11.458908
829,1715728601860,-0.93173951,-0.08641951149999999,11.993570625,-0.93173951,-0.08641951149999999,11.993570625
830,1715728601870,-1.40668064,-0.1426654348,11.906052399999998,-1.40668064,-0.1426654348,11.906052399999998
831,1715728601880,-1.6120102,-0.20146799,11.802988,-1.6120102,-0.20146799,11.802988
832,1715728601890,-2.1044283666666668,-0.6905571333333332,11.270799666666667,-2.1044283666666668,-0.6905571333333332,11.270799666666667
833,1715728601900,-2.20336475,-0.87098615,11.069187375,-2.20336475,-0.87098615,11.069187375
834,1715728601910,-2.0497005,-1.3803153000000001,9.908283,-2.0497005,-1.3803153000000001,9.908283
835,1715728601920,-1.99089786,-1.4092904999999998,9.766923,-1.99089786,-1.4092904999999998,9.766923
836,1715728601930,-1.9761972,-1.4165343,9.731583,-1.9761972,-1.4165343,9.731583
837,1715728601940,-1.73446225,-1.40609472,9.4936562,-1.73446225,-1.40609472,9.4936562
838,1715728601950,-1.1193257833333334,-1.3871063666666668,8.736804333333334,-1.1193257833333334,-1.3871063666666668,8.736804333333334
839,1715728601960,-1.42074211,-0.6764157799999999,8.6009654,-1.42074211,-0.6764157799999999,8.6009654
840,1715728601970,-1.8198964,-0.41401472000000006,8.607996,-1.8198964,-0.41401472000000006,8.607996
841,1715728601980,-2.43356812,-0.20828567799999997,8.6005392,-2.43356812,-0.20828567799999997,8.6005392
842,1715728601990,-3.4843442,-0.8787093,8.069106,-3.4843442,-0.8787093,8.069106
843,1715728602000,-3.4843442,-0.8787093,8.069106,-3.4843442,-0.8787093,8.069106
844,1715728602010,-3.2190936,-1.18444,7.5706954,-3.2190936,-1.18444,7.5706954
845,1715728602020,-2.0599802400000002,-1.0770614799999998,5.69452636,-2.0599802400000002,-1.0770614799999998,5.69452636
846,1715728602030,-1.287238,-1.0054758,4.443747,-1.287238,-1.0054758,4.443747
847,1715728602040,0.18938389749999998,-0.6319676675,1.21446715,0.18938389749999998,-0.6319676675,1.21446715
848,1715728602050,0.28362644,-0.6125266,0.9207873,0.28362644,-0.6125266,0.9207873
849,1715728602060,0.3315633,-0.565655,0.4447475699999999,0.3315633,-0.565655,0.4447475699999999
850,1715728602070,0.156913328,-0.41657135199999995,-0.080960034,0.156913328,-0.41657135199999995,-0.080960034
851,1715728602080,-0.10506162999999999,-0.19294588,-0.86952144,-0.10506162999999999,-0.19294588,-0.86952144
852,1715728602090,-0.7847664325,0.69185543,-1.8431724600000001,-0.7847664325,0.69185543,-1.8431724600000001
853,1715728602100,-1.0709895,1.0893652,-2.2656827,-1.0709895,1.0893652,-2.2656827
854,1715728602110,-1.2616717,1.4631397,-2.9473180000000005,-1.2616717,1.4631397,-2.9473180000000005
855,1715728602120,-1.1729884875,1.3598424,-3.125450075,-1.1729884875,1.3598424,-3.125450075
856,1715728602130,-0.9069388499999999,1.0499505,-3.6598462999999994,-0.9069388499999999,1.0499505,-3.6598462999999994
857,1715728602140,0.042317588,0.30743510399999996,-4.438288,0.042317588,0.30743510399999996,-4.438288
858,1715728602150,0.463016822,0.146021016,-4.8172554,0.463016822,0.146021016,-4.8172554
859,1715728602160,0.9130641,0.51106024,-5.665205,0.9130641,0.51106024,-5.665205
860,1715728602170,0.9130641,0.51106024,-5.665205,0.9130641,0.51106024,-5.665205
861,1715728602180,0.9364998999999999,0.6207824,-5.7951674,0.9364998999999999,0.6207824,-5.7951674
862,1715728602190,0.9364998999999999,0.6207824,-5.7951674,0.9364998999999999,0.6207824,-5.7951674
863,1715728602200,0.90241146,1.3704617,-6.620480500000001,0.90241146,1.3704617,-6.620480500000001
864,1715728602210,0.7916240200000001,1.8348100999999999,-7.45372946,0.7916240200000001,1.8348100999999999,-7.45372946
865,1715728602220,0.7946067680000001,2.04485348,-8.24543328,0.7946067680000001,2.04485348,-8.24543328
866,1715728602230,0.81505984,2.107491,-8.634361,0.81505984,2.107491,-8.634361
867,1715728602240,1.4844449499999999,2.1804615,-9.330378,1.4844449499999999,2.1804615,-9.330378
868,1715728602250,1.6905735,2.1607542,-9.423589,1.6905735,2.1607542,-9.423589
869,1715728602260,1.9088193,2.107491,-9.4896345,1.9088193,2.107491,-9.4896345
870,1715728602270,1.9088193,2.107491,-9.4896345,1.9088193,2.107491,-9.4896345
871,1715728602280,2.7842884,1.7599930666666666,-9.588615666666668,2.7842884,1.7599930666666666,-9.588615666666668
872,1715728602290,3.4709750400000003,1.4209552,-9.291282599999999,3.4709750400000003,1.4209552,-9.291282599999999
873,1715728602300,3.534012,1.3853754,-9.228645,3.534012,1.3853754,-9.228645
874,1715728602310,3.5768356999999993,1.39198004,-8.6503132,3.5768356999999993,1.39198004,-8.6503132
875,1715728602320,3.57688895,1.401088025,-8.4929805,3.57688895,1.401088025,-8.4929805
876,1715728602330,3.5649047000000005,1.4130722,-8.39481,3.5649047000000005,1.4130722,-8.39481
877,1715728602340,3.2260709399999996,1.3824459199999999,-7.2666694000000005,3.2260709399999996,1.3824459199999999,-7.2666694000000005
878,1715728602350,3.0675597,1.3237232,-6.983602,3.0675597,1.3237232,-6.983602
879,1715728602360,2.5556562333333335,1.2278495,-6.562956,2.5556562333333335,1.2278495,-6.562956
880,1715728602370,1.8843181999999998,1.1554116,-6.1007648,1.8843181999999998,1.1554116,-6.1007648
881,1715728602380,1.8843182,1.1554116,-6.1007648,1.8843182,1.1554116,-6.1007648
882,1715728602390,0.394380575,1.69217135,-5.93618125,0.394380575,1.69217135,-5.93618125
883,1715728602400,0.12431626200000001,1.87491736,-5.949497,0.12431626200000001,1.87491736,-5.949497
884,1715728602410,-0.75580454,2.548377,-5.405281,-0.75580454,2.548377,-5.405281
885,1715728602420,-0.75580454,2.548377,-5.405281,-0.75580454,2.548377,-5.405281
886,1715728602430,-0.9815073,2.6304023,-4.9835696,-0.9815073,2.6304023,-4.9835696
887,1715728602440,-1.31059392,2.330717,-3.56304056,-1.31059392,2.330717,-3.56304056
888,1715728602450,-1.58282204,1.9247982399999999,-2.1500749600000004,-1.58282204,1.9247982399999999,-2.1500749600000004
889,1715728602460,-1.7984314,-2.4964454,5.9476333,-1.7984314,-2.4964454,5.9476333
890,1715728602470,-1.79076148,-2.63002946,6.32841172,-1.79076148,-2.63002946,6.32841172
891,1715728602480,-1.7856482,-2.7190855,6.5822639999999994,-1.7856482,-2.7190855,6.5822639999999994
892,1715728602490,-1.7590166,-2.7941865999999997,8.4944785,-1.7590166,-2.7941865999999997,8.4944785
893,1715728602500,-1.7209334,-2.790458175,10.62051175,-1.7209334,-2.790458175,10.62051175
894,1715728602510,-1.6535555000000002,-2.5337296,11.655982,-1.6535555000000002,-2.5337296,11.655982
895,1715728602520,-1.6535555000000002,-2.5337296,11.655982,-1.6535555000000002,-2.5337296,11.655982
896,1715728602530,-1.6535555000000002,-2.5337296,11.655982,-1.6535555000000002,-2.5337296,11.655982
897,1715728602540,-1.540903825,-3.1951251999999997,11.8737615,-1.540903825,-3.1951251999999997,11.8737615
898,1715728602550,-1.4852438,-3.3676979999999994,11.973297,-1.4852438,-3.3676979999999994,11.973297
899,1715728602560,-1.61627125,-3.3128368,11.453048500000001,-1.61627125,-3.3128368,11.453048500000001
900,1715728602570,-1.7472987,-3.2579756,10.9328,-1.7472987,-3.2579756,10.9328
901,1715728602580,-1.7472987,-3.2579756,10.9328,-1.7472987,-3.2579756,10.9328
902,1715728602590,-1.7391316666666665,-3.140485933333333,10.862181999999999,-1.7391316666666665,-3.140485933333333,10.862181999999999
903,1715728602600,-1.6791219,-1.4218607,10.417346,-1.6791219,-1.4218607,10.417346
904,1715728602610,-1.63097188,-0.399686912,10.084904,-1.63097188,-0.399686912,10.084904
905,1715728602620,-1.51208852,-0.5978259400000001,9.9890308,-1.51208852,-0.5978259400000001,9.9890308
906,1715728602630,-1.4618081,-0.6732466,9.948764,-1.4618081,-0.6732466,9.948764
907,1715728602640,-1.4828470500000002,-0.8516117,9.75734925,-1.4828470500000002,-0.8516117,9.75734925
908,1715728602650,-1.5459639,-1.386707,9.183105,-1.5459639,-1.386707,9.183105
909,1715728602660,-1.4108086,-2.5379906,7.9593834999999995,-1.4108086,-2.5379906,7.9593834999999995
910,1715728602670,-1.4108086,-2.5379906,7.9593834999999995,-1.4108086,-2.5379906,7.9593834999999995
911,1715728602680,0.51798445,-3.182342,6.849645,0.51798445,-3.182342,6.849645
912,1715728602690,0.51798445,-3.182342,6.849645,0.51798445,-3.182342,6.849645
913,1715728602700,2.8791413,-1.7457008000000003,5.161602,2.8791413,-1.7457008000000003,5.161602
914,1715728602710,2.208391375,-0.376370965,2.91203135,2.208391375,-0.376370965,2.91203135
915,1715728602720,1.584047,0.31132331999999996,1.692371025,1.584047,0.31132331999999996,1.692371025
916,1715728602730,0.7150582,0.853942,0.58962345,0.7150582,0.853942,0.58962345
917,1715728602740,-0.34887385,1.26826295,-0.10586057499999996,-0.34887385,1.26826295,-0.10586057499999996
918,1715728602750,-1.4128058999999997,1.6825839,-0.8013445999999999,-1.4128058999999997,1.6825839,-0.8013445999999999
919,1715728602760,-1.88358585,1.92965845,-1.09156235,-1.88358585,1.92965845,-1.09156235
920,1715728602770,-2.3543658,2.176733,-1.3817801,-2.3543658,2.176733,-1.3817801
921,1715728602780,-2.206294,2.0489016,-1.7598156000000003,-2.206294,2.0489016,-1.7598156000000003
922,1715728602790,-2.206294,2.0489016,-1.7598156000000003,-2.206294,2.0489016,-1.7598156000000003
923,1715728602800,-1.287238,1.0169274,-2.0845878,-1.287238,1.0169274,-2.0845878
924,1715728602810,-1.0287118175,0.7221822425,-2.23289245,-1.0287118175,0.7221822425,-2.23289245
925,1715728602820,-0.25313327,-0.16205323,-2.6778064,-0.25313327,-0.16205323,-2.6778064
926,1715728602830,0.10159951999999998,-0.37816858,-3.3807473000000003,0.10159951999999998,-0.37816858,-3.3807473000000003
927,1715728602840,0.10159952,-0.37816858,-3.3807473,0.10159952,-0.37816858,-3.3807473
928,1715728602850,0.06005424,0.25766066,-3.9920754,0.06005424,0.25766066,-3.9920754
929,1715728602860,-0.122638475,1.43171435,-4.8956855,-0.122638475,1.43171435,-4.8956855
930,1715728602870,-0.1263669,1.4950975,-4.960134,-0.1263669,1.4950975,-4.960134
931,1715728602880,-0.019840535,1.9274614,-5.652421999999999,-0.019840535,1.9274614,-5.652421999999999
932,1715728602890,-0.019840535,1.9274614,-5.652421999999999,-0.019840535,1.9274614,-5.652421999999999
933,1715728602900,0.366717,1.9967035,-6.3223395,0.366717,1.9967035,-6.3223395
934,1715728602910,0.366717,1.9967035,-6.322339500000001,0.366717,1.9967035,-6.322339500000001
935,1715728602920,0.366717,1.9967035,-6.3223395,0.366717,1.9967035,-6.3223395
936,1715728602930,0.366717,1.9967035,-6.3223395,0.366717,1.9967035,-6.3223395
937,1715728602940,0.366717,1.9967035,-6.322339500000001,0.366717,1.9967035,-6.322339500000001
938,1715728602950,0.366717,1.9967035,-6.3223395,0.366717,1.9967035,-6.3223395
939,1715728602960,0.366717,1.9967035,-6.322339500000001,0.366717,1.9967035,-6.322339500000001
940,1715728602970,0.366717,1.9967035,-6.3223395,0.366717,1.9967035,-6.3223395
941,1715728602980,0.366717,1.9967035,-6.322339500000001,0.366717,1.9967035,-6.322339500000001
942,1715728602990,1.19742295,1.9439730499999999,-7.3393335,1.19742295,1.9439730499999999,-7.3393335
943,1715728603000,1.9429077,2.0467708,-8.108254,1.9429077,2.0467708,-8.108254
944,1715728603010,2.7145580999999996,1.53777465,-8.212117500000002,2.7145580999999996,1.53777465,-8.212117500000002
945,1715728603020,3.14937216,1.18971304,-8.0899318,3.14937216,1.18971304,-8.0899318
946,1715728603030,3.1794126000000005,1.1500852,-7.985749000000001,3.1794126000000005,1.1500852,-7.985749000000001
947,1715728603040,3.13126252,0.84912163,-7.30951944,3.13126252,0.84912163,-7.30951944
948,1715728603050,3.03115436,0.6678670259999999,-6.905465000000001,3.03115436,0.6678670259999999,-6.905465000000001
949,1715728603060,2.7193518,0.31505173,-6.115679,2.7193518,0.31505173,-6.115679
950,1715728603070,2.5385565750000003,0.23252708525,-5.8678054,2.5385565750000003,0.23252708525,-5.8678054
951,1715728603080,2.1069584,0.02223738,-5.2360373,2.1069584,0.02223738,-5.2360373
952,1715728603090,1.8505627249999999,-0.051232524999999994,-5.096787375,1.8505627249999999,-0.051232524999999994,-5.096787375
953,1715728603100,0.8074032207499999,-0.31345383,-4.62204595,0.8074032207499999,-0.31345383,-4.62204595
954,1715728603110,-1.1125348,-0.38456017000000003,-3.706585,-1.1125348,-0.38456017000000003,-3.706585
955,1715728603120,-1.1125348,-0.38456017,-3.7065849999999996,-1.1125348,-0.38456017,-3.7065849999999996
956,1715728603130,-1.1125348,-0.38456017,-3.706585,-1.1125348,-0.38456017,-3.706585
957,1715728603140,-1.5317159999999999,-0.07105308408,-1.9863971599999999,-1.5317159999999999,-0.07105308408,-1.9863971599999999
958,1715728603150,-1.6365112999999998,0.0073236874,-1.5563502,-1.6365112999999998,0.0073236874,-1.5563502
959,1715728603160,-1.6365113,0.0073236874,-1.5563502,-1.6365113,0.0073236874,-1.5563502
960,1715728603170,-0.8218509,-0.11518163,4.1370845,-0.8218509,-0.11518163,4.1370845
961,1715728603180,-0.37017912,-0.31531805,6.2532306,-0.37017912,-0.31531805,6.2532306
962,1715728603190,0.1454750675,-0.4775044225,8.964193400000001,0.1454750675,-0.4775044225,8.964193400000001
963,1715728603200,0.42104545,-0.5273055,10.606963,0.42104545,-0.5273055,10.606963
964,1715728603210,0.478836005,-0.557132875,12.58835375,0.478836005,-0.557132875,12.58835375
965,1715728603220,0.45619917,-0.6189182,13.665602000000002,0.45619917,-0.6189182,13.665602000000002
966,1715728603230,0.29427907,-0.7062698,13.945765499999998,0.29427907,-0.7062698,13.945765499999998
967,1715728603240,0.21760672199999997,-0.7656848999999999,13.8328743,0.21760672199999997,-0.7656848999999999,13.8328743
968,1715728603250,-0.08908266999999999,-1.0033453,13.3813095,-0.08908266999999999,-1.0033453,13.3813095
969,1715728603260,-0.08908266999999999,-1.0033453,13.3813095,-0.08908266999999999,-1.0033453,13.3813095
970,1715728603270,-0.34887385,-1.3515532,11.798727,-0.34887385,-1.3515532,11.798727
971,1715728603280,-0.4303665175,-0.720584275,10.26195075,-0.4303665175,-0.720584275,10.26195075
972,1715728603290,-1.4628733,0.56964976,8.00732,-1.4628733,0.56964976,8.00732
973,1715728603300,-1.4628733,0.56964976,8.00732,-1.4628733,0.56964976,8.00732
974,1715728603310,-2.3937361666666668,0.9253590533333332,7.875937666666666,-2.3937361666666668,0.9253590533333332,7.875937666666666
975,1715728603320,-2.883935,1.059537875,7.81504025,-2.883935,1.059537875,7.81504025
976,1715728603330,-2.582199,-0.1748364,7.6366086,-2.582199,-0.1748364,7.6366086
977,1715728603340,-2.4342606,-0.4186486,7.548325,-2.4342606,-0.4186486,7.548325
978,1715728603350,-2.4342606,-0.4186486,7.548325000000001,-2.4342606,-0.4186486,7.548325000000001
979,1715728603360,-2.4342606,-0.4186485999999999,7.548325,-2.4342606,-0.4186485999999999,7.548325
980,1715728603370,-0.39787596,-1.6125429,5.1626673,-0.39787596,-1.6125429,5.1626673
981,1715728603380,-0.39787596,-1.6125429,5.1626673,-0.39787596,-1.6125429,5.1626673
982,1715728603390,-0.39787596,-1.6125429,5.1626673,-0.39787596,-1.6125429,5.1626673
983,1715728603400,-0.39787596,-1.6125429,5.1626673,-0.39787596,-1.6125429,5.1626673
984,1715728603410,-0.39787596,-1.6125429,5.1626673,-0.39787596,-1.6125429,5.1626673
985,1715728603420,-0.39787596,-1.6125429,5.1626673,-0.39787596,-1.6125429,5.1626673
986,1715728603430,-0.39787596,-1.6125429,5.1626673,-0.39787596,-1.6125429,5.1626673
987,1715728603440,-0.39787596,-1.6125429,5.1626673,-0.39787596,-1.6125429,5.1626673
988,1715728603450,-0.39787596,-1.6125429,5.1626673,-0.39787596,-1.6125429,5.1626673
989,1715728603460,-0.39787596,-1.6125429,5.1626673,-0.39787596,-1.6125429,5.1626673
990,1715728603470,-0.39787596,-1.6125429,5.1626673,-0.39787596,-1.6125429,5.1626673
991,1715728603480,-0.39787596,-1.6125429,5.1626673,-0.39787596,-1.6125429,5.1626673
992,1715728603490,-0.39787596,-1.6125429,5.1626673,-0.39787596,-1.6125429,5.1626673
993,1715728603500,-0.39787596,-1.6125429,5.1626673,-0.39787596,-1.6125429,5.1626673
994,1715728603510,-0.39787596,-1.6125429,5.1626673,-0.39787596,-1.6125429,5.1626673
995,1715728603520,-0.6908235,0.9902957,-1.4574138,-0.6908235,0.9902957,-1.4574138
996,1715728603530,-0.92777803,0.250137205,-2.50050665,-0.92777803,0.250137205,-2.50050665
997,1715728603540,-0.18069535000000003,1.019057865,-4.4175153,-0.18069535000000003,1.019057865,-4.4175153
998,1715728603550,0.2559296,1.5973629,-4.9143276,0.2559296,1.5973629,-4.9143276
999,1715728603560,0.36085806,1.68521385,-5.101780625,0.36085806,1.68521385,-5.101780625
1000,1715728603570,0.6935531833333334,1.9636803833333332,-5.711166666666666,0.6935531833333334,1.9636803833333332,-5.711166666666666
1001,1715728603580,0.7831019,2.0382488,-5.9463015,0.7831019,2.0382488,-5.9463015
1002,1715728603590,1.0302431,2.0467709333333333,-6.6151098333333325,1.0302431,2.0467709333333333,-6.6151098333333325
1003,1715728603600,1.1538137,2.051032,-6.949514,1.1538137,2.051032,-6.949514
1004,1715728603610,1.1538137,2.051032,-6.949514,1.1538137,2.051032,-6.949514
1005,1715728603620,1.1538137,2.051032,-6.949514,1.1538137,2.051032,-6.949514
1006,1715728603630,2.01260254,1.80253266,-8.113154660000001,2.01260254,1.80253266,-8.113154660000001
1007,1715728603640,2.2829931666666665,1.6900408,-8.192055,2.2829931666666665,1.6900408,-8.192055
1008,1715728603650,2.3923159,1.6399734,-8.216911,2.3923159,1.6399734,-8.216911
1009,1715728603660,2.5778848,1.4403962399999999,-8.1578954,2.5778848,1.4403962399999999,-8.1578954
1010,1715728603670,2.7193518,1.2789822,-8.095471,2.7193518,1.2789822,-8.095471
1011,1715728603680,2.742077333333333,1.0030789133333333,-7.5597764,2.742077333333333,1.0030789133333333,-7.5597764
1012,1715728603690,2.724678,0.95407677,-7.4308796,2.724678,0.95407677,-7.4308796
1013,1715728603700,2.6969812,0.9263799,-7.342596,2.6969812,0.9263799,-7.342596
1014,1715728603710,2.6969812,0.9263799,-7.342596,2.6969812,0.9263799,-7.342596
1015,1715728603720,2.21404404,0.8503200700000001,-6.496536760000001,2.21404404,0.8503200700000001,-6.496536760000001
1016,1715728603730,1.3571459,0.87098616,-5.394628,1.3571459,0.87098616,-5.394628
1017,1715728603740,1.2771445399999999,0.8769516319999999,-5.2933216000000005,1.2771445399999999,0.8769516319999999,-5.2933216000000005
1018,1715728603750,1.2571442,0.8784430000000001,-5.267995,1.2571442,0.8784430000000001,-5.267995
1019,1715728603760,1.0317876959999999,0.9031571359999999,-4.9574174,1.0317876959999999,0.9031571359999999,-4.9574174
1020,1715728603770,0.6937529400000001,0.94022834,-4.491551,0.6937529400000001,0.94022834,-4.491551
1021,1715728603780,0.12823111,0.8677904,-3.6385412,0.12823111,0.8677904,-3.6385412
1022,1715728603790,-0.04110142666666666,0.66902996,-3.261881733333334,-0.04110142666666666,0.66902996,-3.261881733333334
1023,1715728603800,-0.3797665,0.27150908,-2.5085628,-0.3797665,0.27150908,-2.5085628
1024,1715728603810,-0.7184315666666666,-0.22765572,-1.5727286000000003,-0.7184315666666666,-0.22765572,-1.5727286000000003
1025,1715728603820,-0.8877640999999998,-0.47723812,-1.1048115,-0.8877640999999998,-0.47723812,-1.1048115
1026,1715728603830,-1.2808464,-1.2994884,3.7089818,-1.2808464,-1.2994884,3.7089818
1027,1715728603840,-1.26848934,-1.3011928400000001,3.9098371800000002,-1.26848934,-1.3011928400000001,3.9098371800000002
1028,1715728603850,-1.2190611,-1.3080106,4.7132587,-1.2190611,-1.3080106,4.7132587
1029,1715728603860,-1.0046324,-1.1446701666666668,6.410490133333333,-1.0046324,-1.1446701666666668,6.410490133333333
1030,1715728603870,-0.575775,-0.8179893000000001,9.804953,-0.575775,-0.8179893000000001,9.804953
1031,1715728603880,-0.32663646,-0.74568456,11.949862000000001,-0.32663646,-0.74568456,11.949862000000001
1032,1715728603890,-0.317688264,-0.767415924,12.061074999999999,-0.317688264,-0.767415924,12.061074999999999
1033,1715728603900,-0.3117228,-0.7819035,12.135217000000003,-0.3117228,-0.7819035,12.135217000000003
1034,1715728603910,-0.41072572,-1.178048425,12.37536725,-0.41072572,-1.178048425,12.37536725
1035,1715728603920,-0.570448672,-1.9122547600000002,12.494956400000001,-0.570448672,-1.9122547600000002,12.494956400000001
1036,1715728603930,-0.52703918,-4.042109525000001,11.01992,-0.52703918,-4.042109525000001,11.01992
1037,1715728603940,-0.46285704,-4.4092593,10.676206,-0.46285704,-4.4092593,10.676206
1038,1715728603950,-0.46285704,-4.4092593,10.676206,-0.46285704,-4.4092593,10.676206
1039,1715728603960,-0.46285704,-4.4092593,10.676206,-0.46285704,-4.4092593,10.676206
1040,1715728603970,-0.46285704,-4.4092593,10.676206,-0.46285704,-4.4092593,10.676206
1041,1715728603980,-0.46285704,-4.4092593,10.676206,-0.46285704,-4.4092593,10.676206
1042,1715728603990,-0.46285704,-4.4092593,10.676206,-0.46285704,-4.4092593,10.676206
1043,1715728604000,-0.46285704,-4.4092593,10.676206,-0.46285704,-4.4092593,10.676206
1044,1715728604010,-1.8591514,-2.3996396,8.020103,-1.8591514,-2.3996396,8.020103
1045,1715728604020,-3.2656543666666664,0.6800376533333333,6.067919333333333,-3.2656543666666664,0.6800376533333333,6.067919333333333
1046,1715728604030,-1.252936412,-1.011228148,4.78460496,-1.252936412,-1.011228148,4.78460496
1047,1715728604040,0.565894672,-1.8996847,2.88955414,0.565894672,-1.8996847,2.88955414
1048,1715728604050,1.062201,-1.8532925,2.0465045,1.062201,-1.8532925,2.0465045
1049,1715728604060,0.9376095333333333,-1.3058801166666667,1.26513366,0.9376095333333333,-1.3058801166666667,1.26513366
1050,1715728604070,0.5339634,-0.022503695,-0.55526865,0.5339634,-0.022503695,-0.55526865
1051,1715728604080,-0.6274069499999999,0.33532502125,-1.5201978375,-0.6274069499999999,0.33532502125,-1.5201978375
1052,1715728604090,-1.0454230666666666,0.42512896666666666,-1.8358043666666666,-1.0454230666666666,0.42512896666666666,-1.8358043666666666
1053,1715728604100,-1.1072084,0.36618438,-1.8237312999999997,-1.1072084,0.36618438,-1.8237312999999997
1054,1715728604110,-1.079245175,0.19451049,-1.722264925,-1.079245175,0.19451049,-1.722264925
1055,1715728604120,-0.99453008,0.08125299000000001,-1.6969649400000002,-0.99453008,0.08125299000000001,-1.6969649400000002
1056,1715728604130,-0.47564021599999995,-0.12412985000000001,-2.00876774,-0.47564021599999995,-0.12412985000000001,-2.00876774
1057,1715728604140,-0.404054504,-0.104102892,-2.1171849000000003,-0.404054504,-0.104102892,-2.1171849000000003
1058,1715728604150,-0.39254966,-0.09387636,-2.1431773,-0.39254966,-0.09387636,-2.1431773
1059,1715728604160,-0.298406975,0.2591586725,-2.64584855,-0.298406975,0.2591586725,-2.64584855
1060,1715728604170,-0.2906838125,0.348174775,-2.726775275,-0.2906838125,0.348174775,-2.726775275
1061,1715728604180,-0.142345854,1.17354774,-3.4736384399999998,-0.142345854,1.17354774,-3.4736384399999998
1062,1715728604190,-0.114649,1.2736559,-3.556516,-0.114649,1.2736559,-3.556516
1063,1715728604200,-0.08162583,1.3471590000000002,-3.6396065000000006,-0.08162583,1.3471590000000002,-3.6396065000000006
1064,1715728604210,0.16540881000000002,1.64873516,-4.0579353,0.16540881000000002,1.64873516,-4.0579353
1065,1715728604220,0.22716747,1.7241292,-4.1625175,0.22716747,1.7241292,-4.1625175
1066,1715728604230,0.648113055,1.9325548000000001,-4.619315875,0.648113055,1.9325548000000001,-4.619315875
1067,1715728604240,0.9132971375000001,2.026264675,-4.94944775,0.9132971375000001,2.026264675,-4.94944775
1068,1715728604250,1.2879038,2.0989687,-5.483045,1.2879038,2.0989687,-5.483045
1069,1715728604260,1.4384610333333334,2.080149066666667,-5.935338333333333,1.4384610333333334,2.080149066666667,-5.935338333333333
1070,1715728604270,1.7434104599999998,2.02610476,-6.9063708,1.7434104599999998,2.02610476,-6.9063708
1071,1715728604280,1.7555544,1.7539566,-7.5917344,1.7555544,1.7539566,-7.5917344
1072,1715728604290,1.7555544,1.7539565999999998,-7.5917344,1.7555544,1.7539565999999998,-7.5917344
1073,1715728604300,1.7555544,1.7539565999999998,-7.5917344,1.7555544,1.7539565999999998,-7.5917344
1074,1715728604310,1.767272325,1.6852471,-7.6615091500000005,1.767272325,1.6852471,-7.6615091500000005
1075,1715728604320,1.7747293,1.5355775,-7.844202,1.7747293,1.5355775,-7.844202
1076,1715728604330,1.797332825,1.486875,-7.854322,1.797332825,1.486875,-7.854322
1077,1715728604340,1.9258635,1.1948264,-7.786678,1.9258635,1.1948264,-7.786678
1078,1715728604350,1.9173414000000002,1.1319758,-7.702522,1.9173414000000002,1.1319758,-7.702522
1079,1715728604360,1.7947029,0.9574856,-7.422650620000001,1.7947029,0.9574856,-7.422650620000001
1080,1715728604370,1.7129439,0.8411588,-7.236069699999999,1.7129439,0.8411588,-7.236069699999999
1081,1715728604380,1.7129439,0.8411588,-7.236069699999999,1.7129439,0.8411588,-7.236069699999999
1082,1715728604390,0.67116938,0.40325555599999996,-5.48134092,0.67116938,0.40325555599999996,-5.48134092
1083,1715728604400,0.61172765,0.40772966,-5.4020853,0.61172765,0.40772966,-5.4020853
1084,1715728604410,0.61172765,0.40772966,-5.4020853,0.61172765,0.40772966,-5.4020853
1085,1715728604420,0.61172765,0.40772966000000005,-5.4020853,0.61172765,0.40772966000000005,-5.4020853
1086,1715728604430,0.61172765,0.40772966,-5.4020853,0.61172765,0.40772966,-5.4020853
1087,1715728604440,0.61172765,0.40772966000000005,-5.4020853,0.61172765,0.40772966000000005,-5.4020853
1088,1715728604450,0.61172765,0.40772966000000005,-5.4020853,0.61172765,0.40772966000000005,-5.4020853
1089,1715728604460,0.61172765,0.40772966,-5.4020853,0.61172765,0.40772966,-5.4020853
1090,1715728604470,0.61172765,0.40772966000000005,-5.4020853,0.61172765,0.40772966000000005,-5.4020853
1091,1715728604480,0.61172765,0.40772966000000005,-5.4020853,0.61172765,0.40772966000000005,-5.4020853
1092,1715728604490,0.61172765,0.40772966000000005,-5.4020853,0.61172765,0.40772966000000005,-5.4020853
1093,1715728604500,0.61172765,0.40772966000000005,-5.4020853,0.61172765,0.40772966000000005,-5.4020853
1094,1715728604510,0.61172765,0.40772966,-5.4020853,0.61172765,0.40772966,-5.4020853
1095,1715728604520,0.61172765,0.40772966,-5.4020853,0.61172765,0.40772966,-5.4020853
1096,1715728604530,0.3124551435,0.513190765,-5.1001496500000005,0.3124551435,0.513190765,-5.1001496500000005
1097,1715728604540,-0.76752245,0.69854665,-4.4606586,-0.76752245,0.69854665,-4.4606586
1098,1715728604550,-1.6546208,0.80933404,-3.66717,-1.6546208,0.80933404,-3.66717
1099,1715728604560,-0.5207364166666667,-0.3902415833333333,5.9993874,-0.5207364166666667,-0.3902415833333333,5.9993874
1100,1715728604570,0.62024975,-2.0076225,12.956402,0.62024975,-2.0076225,12.956402
1101,1715728604580,-0.73168078,-1.9208034500000002,12.435754833333334,-0.73168078,-1.9208034500000002,12.435754833333334
1102,1715728604590,-0.9097884200000002,-1.8274331,12.143366400000001,-0.9097884200000002,-1.8274331,12.143366400000001
1103,1715728604600,-1.036901,-1.7361134,11.896731,-1.036901,-1.7361134,11.896731
1104,1715728604610,-1.9522954,-0.6823013800000001,10.702304,-1.9522954,-0.6823013800000001,10.702304
1105,1715728604620,-2.0550268,-0.57843816,10.608028,-2.0550268,-0.57843816,10.608028
1106,1715728604630,-2.0550268,-0.57843816,10.608028,-2.0550268,-0.57843816,10.608028
1107,1715728604640,-3.934218375,0.9253812,9.4511855,-3.934218375,0.9253812,9.4511855
1108,1715728604650,-4.4461973200000005,1.18180352,9.353706800000001,-4.4461973200000005,1.18180352,9.353706800000001
1109,1715728604660,-5.2154201,1.2597852333333333,9.022428166666666,-5.2154201,1.2597852333333333,9.022428166666666
1110,1715728604670,-5.265998,1.2193274,8.978575,-5.265998,1.2193274,8.978575
1111,1715728604680,-2.6230341999999998,-2.1251566,7.255421933333333,-2.6230341999999998,-2.1251566,7.255421933333333
1112,1715728604690,-2.0006983,-2.6338644,6.9955864,-2.0006983,-2.6338644,6.9955864
1113,1715728604700,-0.8026095999999999,-3.2361378500000004,6.60044005,-0.8026095999999999,-3.2361378500000004,6.60044005
1114,1715728604710,0.3954791,-3.8384112999999997,6.2052937,0.3954791,-3.8384112999999997,6.2052937
1115,1715728604720,4.3147173,-3.445462,3.5758237999999998,4.3147173,-3.445462,3.5758237999999998
1116,1715728604730,3.2113705,-0.9298420000000001,1.1466231,3.2113705,-0.9298420000000001,1.1466231
1117,1715728604740,3.2113704999999997,-0.929842,1.1466231,3.2113704999999997,-0.929842,1.1466231
1118,1715728604750,-0.355098975,1.18490605,-0.33931975625,-0.355098975,1.18490605,-0.33931975625
1119,1715728604760,-0.7781751,1.3512869,-0.46472125999999997,-0.7781751,1.3512869,-0.46472125999999997
1120,1715728604770,-1.2904338,1.4642048999999997,-0.63835925,-1.2904338,1.4642048999999997,-0.63835925
1121,1715728604780,-1.4738189,1.4765619399999999,-0.7619032000000001,-1.4738189,1.4765619399999999,-0.7619032000000001
1122,1715728604790,-2.2073593,1.5259901000000002,-1.256079,-2.2073593,1.5259901000000002,-1.256079
1123,1715728604800,-1.71078015,0.8071702000000001,-2.50500065,-1.71078015,0.8071702000000001,-2.50500065
1124,1715728604810,-1.51914586,0.635696052,-2.67951084,-1.51914586,0.635696052,-2.67951084
1125,1715728604820,-1.3096085,0.47803705999999996,-2.8354654,-1.3096085,0.47803705999999996,-2.8354654
1126,1715728604830,-0.5473679333333333,0.13906129,-3.4776862666666664,-0.5473679333333333,0.13906129,-3.4776862666666664
1127,1715728604840,-0.5012065,0.14048164,-3.5277536,-0.5012065,0.14048164,-3.5277536
1128,1715728604850,-0.3585499666666667,0.5253081466666666,-3.9495092,-0.3585499666666667,0.5253081466666666,-3.9495092
1129,1715728604860,-0.28679560000000004,0.75772204,-4.237885,-0.28679560000000004,0.75772204,-4.237885
1130,1715728604870,-0.28615645,0.817723,-4.354132,-0.28615645,0.817723,-4.354132
1131,1715728604880,0.20373167,2.1064258,-6.0911775,0.20373167,2.1064258,-6.0911775
1132,1715728604890,0.246768322,2.13156596,-6.1691549,0.246768322,2.13156596,-6.1691549
1133,1715728604900,0.9691236199999999,2.3311963600000003,-7.1347098,0.9691236199999999,2.3311963600000003,-7.1347098
1134,1715728604910,1.276319,2.3812637,-7.493730000000001,1.276319,2.3812637,-7.493730000000001
1135,1715728604920,1.276319,2.3812637,-7.49373,1.276319,2.3812637,-7.49373
1136,1715728604930,1.491968325,2.3546321249999997,-7.6990265,1.491968325,2.3546321249999997,-7.6990265
1137,1715728604940,1.9738004,2.334392,-8.152995,1.9738004,2.334392,-8.152995
1138,1715728604950,2.4381222,1.9299914333333332,-8.820072000000001,2.4381222,1.9299914333333332,-8.820072000000001
1139,1715728604960,2.4178822,2.0052257,-8.747279,2.4178822,2.0052257,-8.747279
1140,1715728604970,2.4871242,1.7443693,-8.990159,2.4871242,1.7443693,-8.990159
1141,1715728604980,2.4871242,1.7443693,-8.990159,2.4871242,1.7443693,-8.990159
1142,1715728604990,2.4871242,1.7443693,-8.990159,2.4871242,1.7443693,-8.990159
1143,1715728605000,2.469813725,1.532115425,-8.95047875,2.469813725,1.532115425,-8.95047875
1144,1715728605010,2.43964016,1.53280784,-8.8772686,2.43964016,1.53280784,-8.8772686
1145,1715728605020,2.19431,1.5558176,-8.344743,2.19431,1.5558176,-8.344743
1146,1715728605030,2.0398911666666666,1.5007789666666664,-7.976605566666667,2.0398911666666666,1.5007789666666664,-7.976605566666667
1147,1715728605040,1.71315706,1.3792234799999998,-7.1885588600000005,1.71315706,1.3792234799999998,-7.1885588600000005
1148,1715728605050,1.3944301,1.25235052,-6.2956551,1.3944301,1.25235052,-6.2956551
1149,1715728605060,1.31517448,1.23381494,-6.084573000000001,1.31517448,1.23381494,-6.084573000000001
1150,1715728605070,1.288969,1.2363716,-6.025130999999999,1.288969,1.2363716,-6.025130999999999
1151,1715728605080,1.1724824200000001,1.28705152,-5.91266586,1.1724824200000001,1.28705152,-5.91266586
1152,1715728605090,0.9833715,1.420529,-5.613007,0.9833715,1.420529,-5.613007
1153,1715728605100,0.10654855333333334,1.3352414333333333,-5.6490487499999995,0.10654855333333334,1.3352414333333333,-5.6490487499999995
1154,1715728605110,0.031292118,1.3056138,-5.6779885,0.031292118,1.3056138,-5.6779885
1155,1715728605120,-0.1466069,1.1628684,-5.6140723,-0.1466069,1.1628684,-5.6140723
1156,1715728605130,-0.3587941,0.6415217275,-4.839026575,-0.3587941,0.6415217275,-4.839026575
1157,1715728605140,-0.555535,0.3832286,-4.705669,-0.555535,0.3832286,-4.705669
1158,1715728605150,-0.36844806933333335,-0.0023080666666666825,-2.82592252,-0.36844806933333335,-0.0023080666666666825,-2.82592252
1159,1715728605160,0.07475487519999999,-0.79932056,1.4805300240000001,0.07475487519999999,-0.79932056,1.4805300240000001
1160,1715728605170,0.1782985,-0.8382293,2.3009694,0.1782985,-0.8382293,2.3009694
1161,1715728605180,0.30750609999999995,-0.8566938833333332,3.6986397333333336,0.30750609999999995,-0.8566938833333332,3.6986397333333336
1162,1715728605190,0.6064013,-0.9053409,7.1392636,0.6064013,-0.9053409,7.1392636
1163,1715728605200,0.666695236,-0.75037168,11.0652926,0.666695236,-0.75037168,11.0652926
1164,1715728605210,0.71612346,-0.784034,10.355561,0.71612346,-0.784034,10.355561
1165,1715728605220,0.5488771,-0.7105308999999999,12.379163,0.5488771,-0.7105308999999999,12.379163
1166,1715728605230,-0.027830017000000006,-0.9570062175,12.99551725,-0.027830017000000006,-0.9570062175,12.99551725
1167,1715728605240,-0.25286695960000005,-1.063426064,12.8692636,-0.25286695960000005,-1.063426064,12.8692636
1168,1715728605250,-1.0869684,-1.2749875,12.459057,-1.0869684,-1.2749875,12.459057
1169,1715728605260,-1.1274484,-1.2681697799999998,12.4411606,-1.1274484,-1.2681697799999998,12.4411606
1170,1715728605270,-1.1881684,-1.2579432,12.414316,-1.1881684,-1.2579432,12.414316
1171,1715728605280,-2.10566005,-0.6428533225,12.079557249999999,-2.10566005,-0.6428533225,12.079557249999999
1172,1715728605290,-2.2254689,-0.53795815,12.113912,-2.2254689,-0.53795815,12.113912
1173,1715728605300,-4.195674,-0.2568617,12.04467,-4.195674,-0.2568617,12.04467
1174,1715728605310,-4.2763677,-0.34464607999999997,11.96877,-4.2763677,-0.34464607999999997,11.96877
1175,1715728605320,-4.3032656,-0.37390754,11.94347,-4.3032656,-0.37390754,11.94347
1176,1715728605330,-4.026629949999999,-0.809234155,11.48820275,-4.026629949999999,-0.809234155,11.48820275
1177,1715728605340,-2.6650766,-2.03044574,9.6278262,-2.6650766,-2.03044574,9.6278262
1178,1715728605350,0.3578842,-1.8390000999999998,6.5457790000000005,0.3578842,-1.8390000999999998,6.5457790000000005
1179,1715728605360,1.0896582,-1.3375450199999999,5.736525,1.0896582,-1.3375450199999999,5.736525
1180,1715728605370,1.3486237999999997,-0.7957519,5.160537,1.3486237999999997,-0.7957519,5.160537
1181,1715728605380,0.52437603,1.5920365,2.6035044,0.52437603,1.5920365,2.6035044
1182,1715728605390,0.483682956,1.56220912,2.5653679599999997,0.483682956,1.56220912,2.5653679599999997
1183,1715728605400,0.32091066,1.4428995999999998,2.4128222,0.32091066,1.4428995999999998,2.4128222
1184,1715728605410,0.26658222,-0.48256442,1.9399782,0.26658222,-0.48256442,1.9399782
1185,1715728605420,0.26658222,-0.48256441999999994,1.9399781999999999,0.26658222,-0.48256441999999994,1.9399781999999999
1186,1715728605430,0.26125590499999995,-0.72511164,1.62286255,0.26125590499999995,-0.72511164,1.62286255
1187,1715728605440,0.3518033,-1.5976292,1.0614021,0.3518033,-1.5976292,1.0614021
1188,1715728605450,-1.1764505,1.164999,-1.5819165,-1.1764505,1.164999,-1.5819165
1189,1715728605460,-1.1764505,1.164999,-1.5819165,-1.1764505,1.164999,-1.5819165
1190,1715728605470,-1.486309,1.3534174000000003,-1.7140092000000002,-1.486309,1.3534174000000003,-1.7140092000000002
1191,1715728605480,-1.9160431,1.790341975,-2.0342873999999997,-1.9160431,1.790341975,-2.0342873999999997
1192,1715728605490,-2.0592878,1.9359835,-2.1410468,-2.0592878,1.9359835,-2.1410468
1193,1715728605500,-1.5971409666666665,1.0812425466666666,-2.2457976333333334,-1.5971409666666665,1.0812425466666666,-2.2457976333333334
1194,1715728605510,-1.0993964333333333,0.46560897333333334,-2.3011913666666666,-1.0993964333333333,0.46560897333333334,-2.3011913666666666
1195,1715728605520,-1.0528799,0.41412124,-2.3093584,-1.0528799,0.41412124,-2.3093584
1196,1715728605530,-0.65917623,0.11345057666666668,-2.4563203999999996,-0.65917623,0.11345057666666668,-2.4563203999999996
1197,1715728605540,0.2030325925,-0.48496127,-2.8133612500000003,0.2030325925,-0.48496127,-2.8133612500000003
1198,1715728605550,0.5424855199999999,-0.081705718,-3.2855393200000003,0.5424855199999999,-0.081705718,-3.2855393200000003
1199,1715728605560,0.571034592,0.040133808,-3.3688163,0.571034592,0.040133808,-3.3688163
1200,1715728605570,0.5701824,0.1330248,-3.4190966999999994,0.5701824,0.1330248,-3.4190966999999994
1201,1715728605580,0.5898897525,1.0779136249999999,-4.2460410500000005,0.5898897525,1.0779136249999999,-4.2460410500000005
1202,1715728605590,0.57630765,0.955142,-4.097503275,0.57630765,0.955142,-4.097503275
1203,1715728605600,0.929282712,1.3218058,-5.24320118,0.929282712,1.3218058,-5.24320118
1204,1715728605610,0.99295884,1.3407675,-5.4074116,0.99295884,1.3407675,-5.4074116
1205,1715728605620,1.0526136,1.3418328,-5.545895599999999,1.0526136,1.3418328,-5.545895599999999
1206,1715728605630,1.11160258,1.33629342,-5.74909468,1.11160258,1.33629342,-5.74909468
1207,1715728605640,1.3475585,1.3141359,-6.561891,1.3475585,1.3141359,-6.561891
1208,1715728605650,1.41733325,1.34336405,-6.94745,1.41733325,1.34336405,-6.94745
1209,1715728605660,1.5537935600000001,1.3013526800000002,-7.99453696,1.5537935600000001,1.3013526800000002,-7.99453696
1210,1715728605670,1.5563502,1.2843084,-8.069904,1.5563502,1.2843084,-8.069904
1211,1715728605680,1.5258126,1.1287799333333333,-8.400757333333333,1.5258126,1.1287799333333333,-8.400757333333333
1212,1715728605690,1.5105438,1.0510157,-8.566184,1.5105438,1.0510157,-8.566184
1213,1715728605700,1.44130165,0.866525365,-8.8756435,1.44130165,0.866525365,-8.8756435
1214,1715728605710,1.40124772,0.7773761,-9.0416646,1.40124772,0.7773761,-9.0416646
1215,1715728605720,1.3922995,0.7773761,-9.048615,1.3922995,0.7773761,-9.048615
1216,1715728605730,1.3922995,0.7773761,-9.048615,1.3922995,0.7773761,-9.048615
1217,1715728605740,1.297790725,0.7906919225,-8.99868125,1.297790725,0.7906919225,-8.99868125
1218,1715728605750,1.2464917,0.8816388,-8.419312,1.2464917,0.8816388,-8.419312
1219,1715728605760,1.2464917,0.884621544,-8.3741448,1.2464917,0.884621544,-8.3741448
1220,1715728605770,1.2464917,0.8890956600000001,-8.306394,1.2464917,0.8890956600000001,-8.306394
1221,1715728605780,1.2376145,0.8443989733333334,-7.8643981,1.2376145,0.8443989733333334,-7.8643981
1222,1715728605790,1.2198601,0.7550056,-6.980406300000001,1.2198601,0.7550056,-6.980406300000001
1223,1715728605800,1.1303779333333333,0.47417548000000004,-6.269032166666666,1.1303779333333333,0.47417548000000004,-6.269032166666666
1224,1715728605810,0.979643085,0.10266478500000001,-5.40268425,0.979643085,0.10266478500000001,-5.40268425
1225,1715728605820,0.5009402,-0.29188225,-4.6268396,0.5009402,-0.29188225,-4.6268396
1226,1715728605830,0.5009402,-0.29188225,-4.6268396,0.5009402,-0.29188225,-4.6268396
1227,1715728605840,0.30818075199999995,-0.36602459200000004,-4.44768888,0.30818075199999995,-0.36602459200000004,-4.44768888
1228,1715728605850,-0.962998368,-0.800545624,-2.7837469599999998,-0.962998368,-0.800545624,-2.7837469599999998
1229,1715728605860,-1.0880337,-0.83503354,-2.5469122,-1.0880337,-0.83503354,-2.5469122
1230,1715728605870,-1.1040126,-0.9660609399999999,0.7141261,-1.1040126,-0.9660609399999999,0.7141261
1231,1715728605880,-1.0315746799999999,-0.982252948,1.1546126600000002,-1.0315746799999999,-0.982252948,1.1546126600000002
1232,1715728605890,-1.0134652,-0.98630095,1.2647343,-1.0134652,-0.98630095,1.2647343
1233,1715728605900,-0.009942463333333337,-1.1553228333333332,5.940797800000001,-0.009942463333333337,-1.1553228333333332,5.940797800000001
1234,1715728605910,0.34491238,-1.01855851,7.8017246,0.34491238,-1.01855851,7.8017246
1235,1715728605920,1.1484873,-0.64874554,12.18635,1.1484873,-0.64874554,12.18635
1236,1715728605930,1.1484873,-0.64874554,12.18635,1.1484873,-0.64874554,12.18635
1237,1715728605940,1.1484873,-0.64874554,12.18635,1.1484873,-0.64874554,12.18635
1238,1715728605950,0.9688129,-0.3952128133333333,13.215128,0.9688129,-0.3952128133333333,13.215128
1239,1715728605960,0.48705855,-0.41302269999999996,13.4723225,0.48705855,-0.41302269999999996,13.4723225
1240,1715728605970,-0.6886929,-0.8467514499999999,12.700739,-0.6886929,-0.8467514499999999,12.700739
1241,1715728605980,-1.0645978,-1.301619,12.052127,-1.0645978,-1.301619,12.052127
1242,1715728605990,-1.0645978,-1.301619,12.052127,-1.0645978,-1.301619,12.052127
1243,1715728606000,-1.3329555333333334,-1.6140075333333332,11.127744333333332,-1.3329555333333334,-1.6140075333333332,11.127744333333332
1244,1715728606010,-1.48545692,-1.6813854400000001,10.5164426,-1.48545692,-1.6813854400000001,10.5164426
1245,1715728606020,-1.558747,-1.32612,9.920001,-1.558747,-1.32612,9.920001
1246,1715728606030,-1.6436130333333334,-0.8596233233333334,9.855419333333332,-1.6436130333333334,-0.8596233233333334,9.855419333333332
1247,1715728606040,-1.8133451,0.07337003,9.726255999999998,-1.8133451,0.07337003,9.726255999999998
1248,1715728606050,-1.9893799,0.3701347433333333,10.01876,-1.9893799,0.3701347433333333,10.01876
1249,1715728606060,-2.0773973,0.5185171,10.165012,-2.0773973,0.5185171,10.165012
1250,1715728606070,-1.0241178,-0.703074,9.9178705,-1.0241178,-0.703074,9.9178705
1251,1715728606080,-1.0241178,-0.703074,9.9178705,-1.0241178,-0.703074,9.9178705
1252,1715728606090,-1.0241178,-0.703074,9.9178705,-1.0241178,-0.703074,9.9178705
1253,1715728606100,-0.353201465,-1.2259853,9.11166575,-0.353201465,-1.2259853,9.11166575
1254,1715728606110,1.7502281499999999,-1.03743362,3.6668373499999998,1.7502281499999999,-1.03743362,3.6668373499999998
1255,1715728606120,1.6980302,-0.31851384,2.330797,1.6980302,-0.31851384,2.330797
1256,1715728606130,0.49450424166666673,0.89644161,0.6791943749999999,0.49450424166666673,0.89644161,0.6791943749999999
1257,1715728606140,0.25379905,1.1394327,0.34887385,0.25379905,1.1394327,0.34887385
1258,1715728606150,-0.642353975,1.0957568500000001,-0.414187775,-0.642353975,1.0957568500000001,-0.414187775
1259,1715728606160,-1.5979487,1.0561289999999999,-1.35831762,-1.5979487,1.0561289999999999,-1.35831762
1260,1715728606170,-1.7164060000000003,1.0957568,-1.8727335,-1.7164060000000003,1.0957568,-1.8727335
1261,1715728606180,-1.6981444285714287,1.0896695857142857,-1.916105,-1.6981444285714287,1.0896695857142857,-1.916105
1262,1715728606190,-1.6908398000000002,1.0872347,-1.9334536,-1.6908398000000002,1.0872347,-1.9334536
1263,1715728606200,-1.62950724,1.03588899,-1.9854118200000002,-1.62950724,1.03588899,-1.9854118200000002
