id,timestamp,acc_x,acc_y,acc_z,gyro_x,gyro_y,gyro_z
0,1715729345310,0.0,0.0,0.0,0.0,0.0,0.0
1,1715729345320,0.241681645,-3.3960162099999995,-0.66041907,0.241681645,-3.3960162099999995,-0.66041907
2,1715729345330,1.0395641,-5.3628035,-0.46445495,1.0395641,-5.3628035,-0.46445495
3,1715729345340,1.0736526,-5.4489565,-0.6412886999999999,1.0736526,-5.4489565,-0.6412886999999999
4,1715729345350,1.079435457142857,-5.447130357142858,-0.6747303857142857,1.079435457142857,-5.447130357142858,-0.6747303857142857
5,1715729345360,1.1258505285714286,-5.329399857142858,-0.8998624714285715,1.1258505285714286,-5.329399857142858,-0.8998624714285715
6,1715729345370,1.1748526333333333,-5.121698866666667,-1.1155529666666666,1.1748526333333333,-5.121698866666667,-1.1155529666666666
7,1715729345380,1.1109368,-4.27437,-1.2654,1.1109368,-4.27437,-1.2654
8,1715729345390,1.1109368,-4.27437,-1.2654,1.1109368,-4.27437,-1.2654
9,1715729345400,1.0260200857142858,-4.0123153714285715,-1.2699654,1.0260200857142858,-4.0123153714285715,-1.2699654
10,1715729345410,1.0218097333333334,-3.9483997999999993,-1.2636246,1.0218097333333334,-3.9483997999999993,-1.2636246
11,1715729345420,1.2269363714285715,-3.896353914285714,-1.3533985142857143,1.2269363714285715,-3.896353914285714,-1.3533985142857143
12,1715729345430,1.5709976,-3.6875432,-1.7169386,1.5709976,-3.6875432,-1.7169386
13,1715729345440,1.6423702,-3.3999221,-2.0449066,1.6423702,-3.3999221,-2.0449066
14,1715729345450,1.5471051857142857,-3.1292880714285713,-2.2261346,1.5471051857142857,-3.1292880714285713,-2.2261346
15,1715729345460,1.3206606,-2.6044364,-2.5049675,1.3206606,-2.6044364,-2.5049675
16,1715729345470,1.2162647,-2.4020364,-2.5891232,1.2162647,-2.4020364,-2.5891232
17,1715729345480,1.0770037,-2.093220816666667,-2.8376847,1.0770037,-2.093220816666667,-2.8376847
18,1715729345490,1.0427599,-1.9728682,-3.2260177,1.0427599,-1.9728682,-3.2260177
19,1715729345500,1.0735004000000001,-1.9646505142857145,-3.489042728571429,1.0735004000000001,-1.9646505142857145,-3.489042728571429
20,1715729345510,1.1556779,-1.9057567000000002,-4.105659,1.1556779,-1.9057567000000002,-4.105659
21,1715729345520,1.1698813666666668,-1.891553166666667,-4.247694200000001,1.1698813666666668,-1.891553166666667,-4.247694200000001
22,1715729345530,1.3171319333333333,-1.9252865666666665,-4.78021505,1.3171319333333333,-1.9252865666666665,-4.78021505
23,1715729345540,1.4650038666666667,-1.9627482666666667,-5.114752616666666,1.4650038666666667,-1.9627482666666667,-5.114752616666666
24,1715729345550,1.5365540333333332,-2.0108626666666667,-5.315865466666667,1.5365540333333332,-2.0108626666666667,-5.315865466666667
25,1715729345560,1.6168039,-2.1028304,-5.629652,1.6168039,-2.1028304,-5.629652
26,1715729345570,1.7222649999999997,-2.2081583,-5.9236646,1.7222649999999997,-2.2081583,-5.9236646
27,1715729345580,1.8029365000000002,-2.2498811333333335,-6.1872066,1.8029365000000002,-2.2498811333333335,-6.1872066
28,1715729345590,1.8169403,-2.2848573,-6.557363499999999,1.8169403,-2.2848573,-6.557363499999999
29,1715729345600,1.7076176333333333,-2.3299535500000004,-6.7595195,1.7076176333333333,-2.3299535500000004,-6.7595195
30,1715729345610,1.5217823799999999,-2.40629752,-7.075587659999999,1.5217823799999999,-2.40629752,-7.075587659999999
31,1715729345620,1.47746742,-2.46041278,-7.197214239999999,1.47746742,-2.46041278,-7.197214239999999
32,1715729345630,1.457280625,-2.569282625,-7.4002535,1.457280625,-2.569282625,-7.4002535
33,1715729345640,1.4580796,-2.6044364,-7.449788,1.4580796,-2.6044364,-7.449788
34,1715729345650,1.45807965,-2.56741855,-7.4402006,1.45807965,-2.56741855,-7.4402006
35,1715729345660,1.451688,-2.4819312,-7.3943944,1.451688,-2.4819312,-7.3943944
36,1715729345670,1.4180257,-2.3709307199999996,-7.284485800000001,1.4180257,-2.3709307199999996,-7.284485800000001
37,1715729345680,1.350488,-2.2369206,-7.0909276,1.350488,-2.2369206,-7.0909276
38,1715729345690,1.2524837,-2.1305273,-6.8086324,1.2524837,-2.1305273,-6.8086324
39,1715729345700,1.21631798,-2.1079437,-6.70556824,1.21631798,-2.1079437,-6.70556824
40,1715729345710,1.0193242,-1.9994998,-6.1813254,1.0193242,-1.9994998,-6.1813254
41,1715729345720,0.9852357300000001,-1.9792598,-6.09190985,0.9852357300000001,-1.9792598,-6.09190985
42,1715729345730,0.8147935,-1.8631461,-5.4572124,0.8147935,-1.8631461,-5.4572124
43,1715729345740,0.7008103,-1.7587502999999998,-5.0163264,0.7008103,-1.7587502999999998,-5.0163264
44,1715729345750,0.6678315100000001,-1.7257714999999998,-4.940337599999999,0.6678315100000001,-1.7257714999999998,-4.940337599999999
45,1715729345760,0.42823598,-1.4968286,-4.534827,0.42823598,-1.4968286,-4.534827
46,1715729345770,0.304692032,-1.35773174,-4.402627799999999,0.304692032,-1.35773174,-4.402627799999999
47,1715729345780,0.10452899,-1.0729868,-4.189815,0.10452899,-1.0729868,-4.189815
48,1715729345790,0.074701615,-0.7843003,-4.119508,0.074701615,-0.7843003,-4.119508
49,1715729345800,0.08298404,-0.740651132,-4.11396854,0.08298404,-0.740651132,-4.11396854
50,1715729345810,0.16831166,-0.46591967,-4.003394,0.16831166,-0.46591967,-4.003394
51,1715729345820,0.20000325,-0.4249070325,-3.79420275,0.20000325,-0.4249070325,-3.79420275
52,1715729345830,0.25459802,-0.36791542,-3.3623714,0.25459802,-0.36791542,-3.3623714
53,1715729345840,0.25992432,-0.2752375,-3.0182915,0.25992432,-0.2752375,-3.0182915
54,1715729345850,0.25992432,-0.2241048435,-2.977578425,0.25992432,-0.2241048435,-2.977578425
55,1715729345860,0.32597068,0.31798118,-2.669018,0.32597068,0.31798118,-2.669018
56,1715729345870,0.320857416,0.41001997999999995,-2.6016933599999996,0.320857416,0.41001997999999995,-2.6016933599999996
57,1715729345880,-0.0030626379999999925,0.884301995,-2.253964775,-0.0030626379999999925,0.884301995,-2.253964775
58,1715729345890,-0.23315959,0.9761810000000001,-2.142911,-0.23315959,0.9761810000000001,-2.142911
59,1715729345900,-0.357728845,0.9207873,-2.1072246,-0.357728845,0.9207873,-2.1072246
60,1715729345910,-0.8402267,0.4287686,-1.8277261,-0.8402267,0.4287686,-1.8277261
61,1715729345920,-0.92033454,0.273666232,-1.6879635400000002,-0.92033454,0.273666232,-1.6879635400000002
62,1715729345930,-0.95847094,-0.50107336,-0.8243809,-0.95847094,-0.50107336,-0.8243809
63,1715729345940,-0.78749611,-0.783002065,-0.35000568249999997,-0.78749611,-0.783002065,-0.35000568249999997
64,1715729345950,-0.43145839199999997,-1.05586266,0.425466296,-0.43145839199999997,-1.05586266,0.425466296
65,1715729345960,0.3195791,-0.9110667,2.1501014,0.3195791,-0.9110667,2.1501014
66,1715729345970,0.46738444999999995,-0.78243615,2.5047343250000003,0.46738444999999995,-0.78243615,2.5047343250000003
67,1715729345980,0.5187834,0.06125266,3.8892775,0.5187834,0.06125266,3.8892775
68,1715729345990,0.042743705,0.8675241,4.485692,0.042743705,0.8675241,4.485692
69,1715729346000,-0.2767688225,1.27911535,4.6976130000000005,-0.2767688225,1.27911535,4.6976130000000005
70,1715729346010,-1.2278495,2.3819294,5.2161965,-1.2278495,2.3819294,5.2161965
71,1715729346020,-1.39083482,2.54866976,5.2903388,-1.39083482,2.54866976,5.2903388
72,1715729346030,-2.018142,3.1976552,5.610344,-2.018142,3.1976552,5.610344
73,1715729346040,-2.24491,3.43947,5.7529564,-2.24491,3.43947,5.7529564
74,1715729346050,-2.46645155,3.5449311,5.927925925,-2.46645155,3.5449311,5.927925925
75,1715729346060,-2.8157582,3.608847,6.1939754,-2.8157582,3.608847,6.1939754
76,1715729346070,-2.9523782499999998,3.2259512,6.2822923500000005,-2.9523782499999998,3.2259512,6.2822923500000005
77,1715729346080,-3.01986268,2.4492808399999997,6.410090680000001,-3.01986268,2.4492808399999997,6.410090680000001
78,1715729346090,-2.89804975,1.628188875,6.6207132,-2.89804975,1.628188875,6.6207132
79,1715729346100,-2.7806044,1.0155957,6.8307366,-2.7806044,1.0155957,6.8307366
80,1715729346110,-2.6346633,0.29454538,7.245124299999999,-2.6346633,0.29454538,7.245124299999999
81,1715729346120,-2.569249425,-0.029727522499999985,7.521460525,-2.569249425,-0.029727522499999985,7.521460525
82,1715729346130,-2.5005732,-0.6042708,8.217443,-2.5005732,-0.6042708,8.217443
83,1715729346140,-2.6847308,-0.5649892,8.568848,-2.6847308,-0.5649892,8.568848
84,1715729346150,-3.10461105,-0.24118234749999998,8.579234,-3.10461105,-0.24118234749999998,8.579234
85,1715729346160,-3.8999302,0.361657,8.504931,-3.8999302,0.361657,8.504931
86,1715729346170,-4.4887014800000005,0.7194790560000001,8.280054199999999,-4.4887014800000005,0.7194790560000001,8.280054199999999
87,1715729346180,-6.0533605,1.5108101,7.537938600000001,-6.0533605,1.5108101,7.537938600000001
88,1715729346190,-7.166295,1.8249298,6.9063706,-7.166295,1.8249298,6.9063706
89,1715729346200,-7.166295,1.8249298,6.9063706,-7.166295,1.8249298,6.9063706
90,1715729346210,-7.99836575,1.7080503999999999,6.262851274999999,-7.99836575,1.7080503999999999,6.262851274999999
91,1715729346220,-7.9169062,1.2662988249999998,5.9670407999999995,-7.9169062,1.2662988249999998,5.9670407999999995
92,1715729346230,-6.3111544,-0.18575534,5.6444325,-6.3111544,-0.18575534,5.6444325
93,1715729346240,-4.603936,-1.2837758,5.4835777,-4.603936,-1.2837758,5.4835777
94,1715729346250,-4.131591525,-1.55162305,5.3962594,-4.131591525,-1.55162305,5.3962594
95,1715729346260,-1.1255842,-3.1188257,4.695416,-1.1255842,-3.1188257,4.695416
96,1715729346270,-0.8241811750000001,-3.22794855,4.6054678,-0.8241811750000001,-3.22794855,4.6054678
97,1715729346280,0.4335623,-3.379682,4.0352187,0.4335623,-3.379682,4.0352187
98,1715729346290,0.4182225,-3.0951500000000003,3.7684765400000004,0.4182225,-3.0951500000000003,3.7684765400000004
99,1715729346300,-0.06461490749999999,-2.35306745,3.410807625,-0.06461490749999999,-2.35306745,3.410807625
100,1715729346310,-0.89242464,-1.3189296,2.9020445,-0.89242464,-1.3189296,2.9020445
101,1715729346320,-1.0601370700000001,-1.1778487,2.76462555,-1.0601370700000001,-1.1778487,2.76462555
102,1715729346330,-1.7028238999999998,-0.53196603,1.5409038,-1.7028238999999998,-0.53196603,1.5409038
103,1715729346340,-1.3556812,-0.43183124,0.6761761,-1.3556812,-0.43183124,0.6761761
104,1715729346350,-0.9930255,-0.39294912000000004,0.17190691999999996,-0.9930255,-0.39294912000000004,0.17190691999999996
105,1715729346360,0.012916322,-0.23262694,-1.1460905,0.012916322,-0.23262694,-1.1460905
106,1715729346370,0.42667138549999994,-0.13595426875,-1.72912265,0.42667138549999994,-0.13595426875,-1.72912265
107,1715729346380,1.2418311,0.09853689,-3.1216218,1.2418311,0.09853689,-3.1216218
108,1715729346390,1.411208,0.26578328,-3.5454638,1.411208,0.26578328,-3.5454638
109,1715729346400,1.5923028,0.6534061,-3.979958,1.5923028,0.6534061,-3.979958
110,1715729346410,1.7967002,1.1006837,-4.355996,1.7967002,1.1006837,-4.355996
111,1715729346420,1.9258101800000003,1.24449428,-4.52018,1.9258101800000003,1.24449428,-4.52018
112,1715729346430,2.4975107,1.4756565,-5.0737176,2.4975107,1.4756565,-5.0737176
113,1715729346440,2.7265422,1.4330459,-5.261204,2.7265422,1.4330459,-5.261204
114,1715729346450,2.946186275,1.285540175,-5.422558125,2.946186275,1.285540175,-5.422558125
115,1715729346460,3.8766608750000002,0.54671327,-6.115845,3.8766608750000002,0.54671327,-6.115845
116,1715729346470,4.048135,0.35659700250000004,-6.2577580500000005,4.048135,0.35659700250000004,-6.2577580500000005
117,1715729346480,4.6733117,-0.52770495,-6.935399000000001,4.6733117,-0.52770495,-6.935399000000001
118,1715729346490,4.705269633333334,-0.6050253833333333,-6.995053666666666,4.705269633333334,-0.6050253833333333,-6.995053666666666
119,1715729346500,4.79219496,-1.33064748,-7.6314955,4.79219496,-1.33064748,-7.6314955
120,1715729346510,4.730836,-1.4968286,-7.7788215,4.730836,-1.4968286,-7.7788215
121,1715729346520,4.562823675000001,-1.6597806,-7.9399426250000005,4.562823675000001,-1.6597806,-7.9399426250000005
122,1715729346530,4.281960275,-1.8407755,-8.152196,4.281960275,-1.8407755,-8.152196
123,1715729346540,4.184489,-1.895104,-8.208122,4.184489,-1.895104,-8.208122
124,1715729346550,3.7031226600000005,-2.25119488,-8.3728918,3.7031226600000005,-2.25119488,-8.3728918
125,1715729346560,3.6051185,-2.3295984,-8.384823,3.6051185,-2.3295984,-8.384823
126,1715729346570,3.41153342,-2.4829963200000003,-8.376514199999999,3.41153342,-2.4829963200000003,-8.376514199999999
127,1715729346580,2.981007,-2.768354,-8.298537,2.981007,-2.768354,-8.298537
128,1715729346590,2.8041735,-2.8482487,-8.226233,2.8041735,-2.8482487,-8.226233
129,1715729346600,2.50070645,-2.89298975,-8.0035925,2.50070645,-2.89298975,-8.0035925
130,1715729346610,1.9639467,-2.878076,-7.543531400000001,1.9639467,-2.878076,-7.543531400000001
131,1715729346620,1.8084182333333334,-2.8184213333333332,-7.388002733333334,1.8084182333333334,-2.8184213333333332,-7.388002733333334
132,1715729346630,1.3249216,-2.5170848,-6.892788399999999,1.3249216,-2.5170848,-6.892788399999999
133,1715729346640,1.1333073,-2.3146846,-6.651106999999999,1.1333073,-2.3146846,-6.651106999999999
134,1715729346650,1.0076063,-2.1347883,-6.477468499999999,1.0076063,-2.1347883,-6.477468499999999
135,1715729346660,0.56458974,-1.6980302000000003,-6.210088,0.56458974,-1.6980302000000003,-6.210088
136,1715729346670,0.24956464379999996,-1.46993066,-6.118768,0.24956464379999996,-1.46993066,-6.118768
137,1715729346680,-0.8359656300000001,-0.6436856,-5.6637406,-0.8359656300000001,-0.6436856,-5.6637406
138,1715729346690,-1.4387717,-0.10266478,-5.1216545,-1.4387717,-0.10266478,-5.1216545
139,1715729346700,-2.12293725,0.6739124000000001,-3.8489973500000003,-2.12293725,0.6739124000000001,-3.8489973500000003
140,1715729346710,-2.2140174,0.9495494000000001,-3.2164304,-2.2140174,0.9495494000000001,-3.2164304
141,1715729346720,-2.13390948,1.1471558000000002,-2.73162896,-2.13390948,1.1471558000000002,-2.73162896
142,1715729346730,-1.8594177,1.4160017,-1.6668713,-1.8594177,1.4160017,-1.6668713
143,1715729346740,-1.75949596,1.48415192,-1.0902973226000001,-1.75949596,1.48415192,-1.0902973226000001
144,1715729346750,-1.6058849,1.6385086999999998,0.030759486999999995,-1.6058849,1.6385086999999998,0.030759486999999995
145,1715729346760,-1.6516913,1.9783278,0.8624641,-1.6516913,1.9783278,0.8624641
146,1715729346770,-1.76434295,2.2642512,1.245958975,-1.76434295,2.2642512,1.245958975
147,1715729346780,-2.3514364,2.9932578,2.1213393,-2.3514364,2.9932578,2.1213393
148,1715729346790,-2.5470787,3.16732845,2.353034325,-2.5470787,3.16732845,2.353034325
149,1715729346800,-3.1288126,3.6258912,3.5846121,-3.1288126,3.6258912,3.5846121
150,1715729346810,-3.1969894,3.5815762399999995,4.24923042,-3.1969894,3.5815762399999995,4.24923042
151,1715729346820,-3.20636362,3.47909782,4.76428518,-3.20636362,3.47909782,4.76428518
152,1715729346830,-3.224419975,3.1841729500000002,5.602288075000001,-3.224419975,3.1841729500000002,5.602288075000001
153,1715729346840,-3.2645272,3.03714654,5.9072066,-3.2645272,3.03714654,5.9072066
154,1715729346850,-3.7114849999999997,2.1953485,6.617577440000001,-3.7114849999999997,2.1953485,6.617577440000001
155,1715729346860,-3.9968689999999993,1.5555513,6.9021096,-3.9968689999999993,1.5555513,6.9021096
156,1715729346870,-4.112627666666667,1.1536805266666665,7.0420142666666665,-4.112627666666667,1.1536805266666665,7.0420142666666665
157,1715729346880,-4.239616,-0.1782985,7.462305,-4.239616,-0.1782985,7.462305
158,1715729346890,-4.16984128,-0.5471992999999999,7.576501,-4.16984128,-0.5471992999999999,7.576501
159,1715729346900,-3.52296,-1.9302577,7.9777594,-3.52296,-1.9302577,7.9777594
160,1715729346910,-3.52296,-1.9302576999999999,7.977759399999999,-3.52296,-1.9302576999999999,7.977759399999999
161,1715729346920,-3.0679858799999997,-2.26634838,8.10857364,-3.0679858799999997,-2.26634838,8.10857364
162,1715729346930,-1.7624787,-2.7481139,8.374038,-1.7624787,-2.7481139,8.374038
163,1715729346940,-1.6463649,-2.6236112,8.333557,-1.6463649,-2.6236112,8.333557
164,1715729346950,-1.8093502999999997,-2.0623505,8.029958,-1.8093502999999997,-2.0623505,8.029958
165,1715729346960,-2.2715416,-1.6724639,7.7563176,-2.2715416,-1.6724639,7.7563176
166,1715729346970,-2.4989087999999997,-1.52286095,7.6338124,-2.4989087999999997,-1.52286095,7.6338124
167,1715729346980,-3.5037854,-0.7747129999999999,6.9969177,-3.5037854,-0.7747129999999999,6.9969177
168,1715729346990,-3.7337758,-0.5660278240000001,6.82817994,-3.7337758,-0.5660278240000001,6.82817994
169,1715729347000,-4.377035,0.09427583,6.3429794,-4.377035,0.09427583,6.3429794
170,1715729347010,-4.6763744,0.7918904,6.1385818,-4.6763744,0.7918904,6.1385818
171,1715729347020,-4.7205162000000005,0.96599445,6.1284619,-4.7205162000000005,0.96599445,6.1284619
172,1715729347030,-4.785963333333334,1.3375272999999999,6.134676,-4.785963333333334,1.3375272999999999,6.134676
173,1715729347040,-4.77680202,1.43496334,6.1396471,-4.77680202,1.43496334,6.1396471
174,1715729347050,-4.023501,0.8206524999999999,5.9883795,-4.023501,0.8206524999999999,5.9883795
175,1715729347060,-2.9798088,-0.10053425,5.7923713,-2.9798088,-0.10053425,5.7923713
176,1715729347070,-2.9798088,-0.10053425,5.7923713,-2.9798088,-0.10053425,5.7923713
177,1715729347080,-1.7358471000000002,-0.5820334,5.6881084,-1.7358471000000002,-0.5820334,5.6881084
178,1715729347090,-0.7006239,-0.837590168,5.59436528,-0.7006239,-0.837590168,5.59436528
179,1715729347100,-0.38968676,-0.6519746275,5.3187615500000005,-0.38968676,-0.6519746275,5.3187615500000005
180,1715729347110,-0.6143908,-0.46165862999999996,4.9777107,-0.6143908,-0.46165862999999996,4.9777107
181,1715729347120,-0.86359595,-0.44248389000000005,4.7583328499999995,-0.86359595,-0.44248389000000005,4.7583328499999995
182,1715729347130,-1.9765967,-0.44887546,3.6677027,-1.9765967,-0.44887546,3.6677027
183,1715729347140,-2.1682441999999997,-0.410525965,3.40255205,-2.1682441999999997,-0.410525965,3.40255205
184,1715729347150,-2.4622238,0.30200225,2.2502363,-2.4622238,0.30200225,2.2502363
185,1715729347160,-2.0893815,0.96233255,1.4407691,-2.0893815,0.96233255,1.4407691
186,1715729347170,-1.65089235,1.0041108625,0.87368265,-1.65089235,1.0041108625,0.87368265
187,1715729347180,-0.3354249,1.1294458,-0.8275767,-0.3354249,1.1294458,-0.8275767
188,1715729347190,0.945820945,0.71785452,-2.2072928000000003,0.945820945,0.71785452,-2.2072928000000003
189,1715729347200,1.6540880999999998,0.4968123400000001,-2.9352007,1.6540880999999998,0.4968123400000001,-2.9352007
190,1715729347210,2.7808707,0.3797665,-4.093941,2.7808707,0.3797665,-4.093941
191,1715729347220,2.8804396,0.393082295,-4.228131,2.8804396,0.393082295,-4.228131
192,1715729347230,3.3686300000000005,0.5330313,-5.329381,3.3686300000000005,0.5330313,-5.329381
193,1715729347240,3.3552076400000006,0.53942289,-5.4725524,3.3552076400000006,0.53942289,-5.4725524
194,1715729347250,3.3336093,0.36911386,-6.244176,3.3336093,0.36911386,-6.244176
195,1715729347260,3.4804826,0.07616635,-6.686127,3.4804826,0.07616635,-6.686127
196,1715729347270,3.4804826000000006,0.07616635,-6.686127000000001,3.4804826000000006,0.07616635,-6.686127000000001
197,1715729347280,3.9623013,-0.597692788,-7.3971908,3.9623013,-0.597692788,-7.3971908
198,1715729347290,4.1223485,-0.8570933666666667,-7.612063233333333,4.1223485,-0.8570933666666667,-7.612063233333333
199,1715729347300,4.4709115,-1.4606096,-8.074965,4.4709115,-1.4606096,-8.074965
200,1715729347310,4.526305,-1.5895065,-8.178295,4.526305,-1.5895065,-8.178295
201,1715729347320,4.52886164,-1.64423442,-8.2066044,4.52886164,-1.64423442,-8.2066044
202,1715729347330,4.420844,-2.0154788,-8.380562,4.420844,-2.0154788,-8.380562
203,1715729347340,4.298705,-2.0666114,-8.418113,4.298705,-2.0666114,-8.418113
204,1715729347350,3.8639774,-2.1443758,-8.459392,3.8639774,-2.1443758,-8.459392
205,1715729347360,3.5209627,-2.1987042,-8.398672,3.5209627,-2.1987042,-8.398672
206,1715729347370,3.3740228500000002,-2.2305956,-8.341680499999999,3.3740228500000002,-2.2305956,-8.341680499999999
207,1715729347380,3.0289440000000005,-2.3200111,-8.174034,3.0289440000000005,-2.3200111,-8.174034
208,1715729347390,2.889927,-2.361556375,-8.082953999999999,2.889927,-2.361556375,-8.082953999999999
209,1715729347400,2.4889884,-2.4180152,-7.8086486,2.4889884,-2.4180152,-7.8086486
210,1715729347410,2.235589,-2.3849921,-7.671363000000001,2.235589,-2.3849921,-7.671363000000001
211,1715729347420,2.0738685833333332,-2.333171483333333,-7.598570033333334,2.0738685833333332,-2.333171483333333,-7.598570033333334
212,1715729347430,1.6615448999999998,-2.1720726,-7.400785999999999,1.6615448999999998,-2.1720726,-7.400785999999999
213,1715729347440,1.5124080666666666,-2.0758438,-7.222576166666666,1.5124080666666666,-2.0758438,-7.222576166666666
214,1715729347450,1.2727238,-1.911083,-6.9098325,1.2727238,-1.911083,-6.9098325
215,1715729347460,1.0661957,-1.6470307,-6.4305973,1.0661957,-1.6470307,-6.4305973
216,1715729347470,0.924941756,-1.49235442,-6.2095283199999995,0.924941756,-1.49235442,-6.2095283199999995
217,1715729347480,0.112917945,-0.8109319000000001,-5.499823,0.112917945,-0.8109319000000001,-5.499823
218,1715729347490,-0.08089346249999999,-0.67464475,-5.392231499999999,-0.08089346249999999,-0.67464475,-5.392231499999999
219,1715729347500,-1.239194574,0.15438332800000001,-4.7018344,-1.239194574,0.15438332800000001,-4.7018344
220,1715729347510,-1.97523836,0.8106656319999999,-4.2272858,-1.97523836,0.8106656319999999,-4.2272858
221,1715729347520,-2.2054951,1.05964438,-4.0236872,-2.2054951,1.05964438,-4.0236872
222,1715729347530,-2.3695457,1.4479597,-3.3655672,-2.3695457,1.4479597,-3.3655672
223,1715729347540,-2.32310022,1.43815926,-3.2829028,-2.32310022,1.43815926,-3.2829028
224,1715729347550,-1.7344488666666666,1.1550342999999998,-2.4016813666666668,-1.7344488666666666,1.1550342999999998,-2.4016813666666668
225,1715729347560,-1.4185317,0.9207873,-1.8160082,-1.4185317,0.9207873,-1.8160082
226,1715729347570,-1.3431643,0.8675241,-1.593934025,-1.3431643,0.8675241,-1.593934025
227,1715729347580,-0.9435572600000001,0.75034505,0.058456343,-0.9435572600000001,0.75034505,0.058456343
228,1715729347590,-0.942918104,0.8992689200000001,0.5268794132,-0.942918104,0.8992689200000001,0.5268794132
229,1715729347600,-1.04465082,1.6285483799999998,2.2485052320000003,-1.04465082,1.6285483799999998,2.2485052320000003
230,1715729347610,-1.0861695,1.8771276000000001,2.8125622,-1.0861695,1.8771276000000001,2.8125622
231,1715729347620,-1.0861695,1.8771276,2.8125622,-1.0861695,1.8771276,2.8125622
232,1715729347630,-1.5771228,2.7567692,5.124717,-1.5771228,2.7567692,5.124717
233,1715729347640,-1.9009186166666667,2.8730604,5.578563750000001,-1.9009186166666667,2.8730604,5.578563750000001
234,1715729347650,-2.6059012,3.007106,6.3238044,-2.6059012,3.007106,6.3238044
235,1715729347660,-3.5783536,2.7780745,6.9468502999999995,-3.5783536,2.7780745,6.9468502999999995
236,1715729347670,-3.7327503249999996,2.688625625,7.042424475000001,-3.7327503249999996,2.688625625,7.042424475000001
237,1715729347680,-4.887163,1.7237297,7.8521914,-4.887163,1.7237297,7.8521914
238,1715729347690,-5.1617014999999995,0.7695531,8.408891599999999,-5.1617014999999995,0.7695531,8.408891599999999
239,1715729347700,-5.314201,-0.6277066,9.201481,-5.314201,-0.6277066,9.201481
240,1715729347710,-4.8157907,-1.7694029,9.790439,-4.8157907,-1.7694029,9.790439
241,1715729347720,-3.9563891999999994,-2.505367,10.032121,-3.9563891999999994,-2.505367,10.032121
242,1715729347730,-3.0352025,-2.866358,9.8959,-3.0352025,-2.866358,9.8959
243,1715729347740,-2.64369138,-2.7536797799999997,9.559968999999999,-2.64369138,-2.7536797799999997,9.559968999999999
244,1715729347750,-2.1980383,-2.4116237,8.876709,-2.1980383,-2.4116237,8.876709
245,1715729347760,-2.584596,-2.1081567,8.368711,-2.584596,-2.1081567,8.368711
246,1715729347770,-3.1767492,-1.7480977,8.069372,-3.1767492,-1.7480977,8.069372
247,1715729347780,-3.7912734,-1.2326432,7.958585000000001,-3.7912734,-1.2326432,7.958585000000001
248,1715729347790,-4.2401488333333335,-0.49423794666666665,7.88261825,-4.2401488333333335,-0.49423794666666665,7.88261825
249,1715729347800,-4.8189864,0.6885598,7.7115765,-4.8189864,0.6885598,7.7115765
250,1715729347810,-5.0256476,1.1347721,7.5826797,-5.0256476,1.1347721,7.5826797
251,1715729347820,-5.02298445,1.3648357500000001,7.220589975,-5.02298445,1.3648357500000001,7.220589975
252,1715729347830,-4.805138,1.4543512,6.636992000000001,-4.805138,1.4543512,6.636992000000001
253,1715729347840,-4.5559728,1.25796984,6.49936,-4.5559728,1.25796984,6.49936
254,1715729347850,-3.0285446,0.048336336,5.90014928,-3.0285446,0.048336336,5.90014928
255,1715729347860,-1.7334502975,-0.87005409,5.56180805,-1.7334502975,-0.87005409,5.56180805
256,1715729347870,0.074222248,-2.0961991600000003,5.14911132,0.074222248,-2.0961991600000003,5.14911132
257,1715729347880,0.6688524,-2.5128238,5.0128646,0.6688524,-2.5128238,5.0128646
258,1715729347890,0.9836378250000001,-2.73962515,4.8778421750000005,0.9836378250000001,-2.73962515,4.8778421750000005
259,1715729347900,1.01879155,-2.8344336,4.500306175,1.01879155,-2.8344336,4.500306175
260,1715729347910,0.8648609,-2.7258766,4.205528,0.8648609,-2.7258766,4.205528
261,1715729347920,0.6470810690000001,-2.6230786,4.04683695,0.6470810690000001,-2.6230786,4.04683695
262,1715729347930,-0.24913853349999998,-2.214117175,3.2552791500000002,-0.24913853349999998,-2.214117175,3.2552791500000002
263,1715729347940,-0.269591594,-2.1332969,2.31473792,-0.269591594,-2.1332969,2.31473792
264,1715729347950,-0.08508793,-2.0591545,1.670866,-0.08508793,-2.0591545,1.670866
265,1715729347960,0.20666115000000002,-1.6246603,0.8306393,0.20666115000000002,-1.6246603,0.8306393
266,1715729347970,0.2428801,-0.988831,-0.12583427,0.2428801,-0.988831,-0.12583427
267,1715729347980,0.05552686799999999,-0.25073642,-1.0768484,0.05552686799999999,-0.25073642,-1.0768484
268,1715729347990,-0.02756369733333333,0.11065427333333332,-1.5376636666666668,-0.02756369733333333,0.11065427333333332,-1.5376636666666668
269,1715729348000,0.095261204,0.8434757639999999,-2.66182746,0.095261204,0.8434757639999999,-2.66182746
270,1715729348010,0.6638589749999999,1.1326415250000001,-3.6057177,0.6638589749999999,1.1326415250000001,-3.6057177
271,1715729348020,1.4889723,1.1582079,-4.4827623,1.4889723,1.1582079,-4.4827623
272,1715729348030,2.21961,0.9602020400000001,-5.152547,2.21961,0.9602020400000001,-5.152547
273,1715729348040,2.5589852333333334,0.7617522933333333,-5.513937666666667,2.5589852333333334,0.7617522933333333,-5.513937666666667
274,1715729348050,3.2377357,0.3648528,-6.236719,3.2377357,0.3648528,-6.236719
275,1715729348060,3.5529206600000003,0.12647343,-6.67387652,3.5529206600000003,0.12647343,-6.67387652
276,1715729348070,3.7915397,-0.08562057,-7.0802746,3.7915397,-0.08562057,-7.0802746
277,1715729348080,3.9053895,-0.25925854,-7.428483,3.9053895,-0.25925854,-7.428483
278,1715729348090,3.9120474,-0.36601793,-7.59116875,3.9120474,-0.36601793,-7.59116875
279,1715729348100,3.9320211,-0.6862961,-8.079226,3.9320211,-0.6862961,-8.079226
280,1715729348110,3.9275826000000005,-0.78749615,-8.189302666666668,3.9275826000000005,-0.78749615,-8.189302666666668
281,1715729348120,3.886215,-1.2049463,-8.479631,3.886215,-1.2049463,-8.479631
282,1715729348130,3.8330848000000004,-1.4840454,-8.582962,3.8330848000000004,-1.4840454,-8.582962
283,1715729348140,3.7694353,-1.655253275,-8.619181000000001,3.7694353,-1.655253275,-8.619181000000001
284,1715729348150,3.6381416,-1.987782,-8.67564,3.6381416,-1.987782,-8.67564
285,1715729348160,3.4953963999999997,-2.2731395,-8.688423,3.4953963999999997,-2.2731395,-8.688423
286,1715729348170,3.26244976,-2.55905622,-8.6281298,3.26244976,-2.55905622,-8.6281298
287,1715729348180,3.101382,-2.7013755,-8.544613,3.101382,-2.7013755,-8.544613
288,1715729348190,3.00614742,-2.7747987600000004,-8.4679138,3.00614742,-2.7747987600000004,-8.4679138
289,1715729348200,2.664757,-3.0186908,-8.080291,2.664757,-3.0186908,-8.080291
290,1715729348210,2.459161,-3.19659,-7.737409,2.459161,-3.19659,-7.737409
291,1715729348220,2.34712194,-3.29986728,-7.5384446,2.34712194,-3.29986728,-7.5384446
292,1715729348230,2.0608857,-3.5575812,-7.035534,2.0608857,-3.5575812,-7.035534
293,1715729348240,1.88575632,-3.67518624,-6.7914552,1.88575632,-3.67518624,-6.7914552
294,1715729348250,1.3611406,-3.9430733,-6.2292624,1.3611406,-3.9430733,-6.2292624
295,1715729348260,0.83077246,-4.05173,-5.8331175,0.83077246,-4.05173,-5.8331175
296,1715729348270,0.28493582666666667,-3.9398775,-5.529628083333333,0.28493582666666667,-3.9398775,-5.529628083333333
297,1715729348280,-0.87431514,-3.2146993,-5.3038144,-0.87431514,-3.2146993,-5.3038144
298,1715729348290,-1.37505561,-2.66991685,-5.2718566000000004,-1.37505561,-2.66991685,-5.2718566000000004
299,1715729348300,-2.2470405,-1.3998896,-5.087566,-2.2470405,-1.3998896,-5.087566
300,1715729348310,-2.593118,-0.28908592,-4.6583977,-2.593118,-0.28908592,-4.6583977
301,1715729348320,-2.3844595,0.5564671,-3.7159059999999995,-2.3844595,0.5564671,-3.7159059999999995
302,1715729348330,-2.0917783400000003,0.76179666,-3.17192908,-2.0917783400000003,0.76179666,-3.17192908
303,1715729348340,-0.95314467,1.2743217,-1.37925,-0.95314467,1.2743217,-1.37925
304,1715729348350,-0.046738442,1.4703301,-0.1833585,-0.046738442,1.4703301,-0.1833585
305,1715729348360,0.05339634,1.5523554,0.39814228,0.05339634,1.5523554,0.39814228
306,1715729348370,-0.49508128199999996,1.82407754,0.733886748,-0.49508128199999996,1.82407754,0.733886748
307,1715729348380,-1.225719,2.2242706,0.9807083599999998,-1.225719,2.2242706,0.9807083599999998
308,1715729348390,-1.5196652,2.38778855,1.0515483799999998,-1.5196652,2.38778855,1.0515483799999998
309,1715729348400,-2.3897858,2.8803396,1.5579481,-2.3897858,2.8803396,1.5579481
310,1715729348410,-2.411091,2.7567692,2.1777983,-2.411091,2.7567692,2.1777983
311,1715729348420,-2.054604916666667,2.1857656166666666,3.1918182833333333,-2.054604916666667,2.1857656166666666,3.1918182833333333
312,1715729348430,-1.6889755000000002,1.6789887000000001,3.9649112000000004,-1.6889755000000002,1.6789887000000001,3.9649112000000004
313,1715729348440,-1.46385866,1.335015052,4.51205728,-1.46385866,1.335015052,4.51205728
314,1715729348450,-1.1745863,0.80680406,5.367464,-1.1745863,0.80680406,5.367464
315,1715729348460,-1.30944866,0.48000778000000005,6.20268412,-1.30944866,0.48000778000000005,6.20268412
316,1715729348470,-1.5721627,0.3664507075,6.6295021,-1.5721627,0.3664507075,6.6295021
317,1715729348480,-1.8924409,0.27856645,6.9745474000000005,-1.8924409,0.27856645,6.9745474000000005
318,1715729348490,-2.4246732499999997,0.2274337925,7.2709237,-2.4246732499999997,0.2274337925,7.2709237
319,1715729348500,-2.9350677,0.15286534,7.535808,-2.9350677,0.15286534,7.535808
320,1715729348510,-3.2129682749999997,-0.082258327775,7.7466972,-3.2129682749999997,-0.082258327775,7.7466972
321,1715729348520,-3.2832756000000005,-0.34341437,7.951128,-3.2832756000000005,-0.34341437,7.951128
322,1715729348530,-3.1044445,-0.5351618,8.229161,-3.1044445,-0.5351618,8.229161
323,1715729348540,-3.03227295,-0.54737905,8.40140125,-3.03227295,-0.54737905,8.40140125
324,1715729348550,-2.9840698,-0.51705235,8.61998,-2.9840698,-0.51705235,8.61998
325,1715729348560,-3.1969893,-0.31358698,8.475104,-3.1969893,-0.31358698,8.475104
326,1715729348570,-3.8647764,0.09108004,7.9617805,-3.8647764,0.09108004,7.9617805
327,1715729348580,-4.533629,0.36378753,7.462304999999999,-4.533629,0.36378753,7.462304999999999
328,1715729348590,-4.8467497999999996,0.42077914000000005,7.202447149999999,-4.8467497999999996,0.42077914000000005,7.202447149999999
329,1715729348600,-5.614605,0.3563307,6.401568999999999,-5.614605,0.3563307,6.401568999999999
330,1715729348610,-5.742437,0.18162745,6.03099,-5.742437,0.18162745,6.03099
331,1715729348620,-5.4345756,-0.0962732,5.5560155,-5.4345756,-0.0962732,5.5560155
332,1715729348630,-4.805138,-0.103730045,5.4569464,-4.805138,-0.103730045,5.4569464
333,1715729348640,-4.409525800000001,-0.1458079625,5.5192642,-4.409525800000001,-0.1458079625,5.5192642
334,1715729348650,-3.1033792000000004,-0.5330313,5.706084700000001,-3.1033792000000004,-0.5330313,5.706084700000001
335,1715729348660,-2.5792696,-0.7725825,5.70715,-2.5792696,-0.7725825,5.70715
336,1715729348670,-0.7158305134,-1.7243423,5.405387119999999,-0.7158305134,-1.7243423,5.405387119999999
337,1715729348680,0.016112113,-2.0208051,5.2289796,0.016112113,-2.0208051,5.2289796
338,1715729348690,0.23124210779999999,-2.0442409,5.17960456,0.23124210779999999,-2.0442409,5.17960456
339,1715729348700,0.80201036,-1.8290577,5.1076727,0.80201036,-1.8290577,5.1076727
340,1715729348710,0.818202376,-1.7400548999999998,5.1110815,0.818202376,-1.7400548999999998,5.1110815
341,1715729348720,0.5613939,-0.88763094,5.026713,0.5613939,-0.88763094,5.026713
342,1715729348730,0.174783114,-0.734872116,4.6944306,0.174783114,-0.734872116,4.6944306
343,1715729348740,-0.3318961975,-0.637293975,3.9656769499999998,-0.3318961975,-0.637293975,3.9656769499999998
344,1715729348750,-0.6953508,-0.6458161,3.0574398,-0.6953508,-0.6458161,3.0574398
345,1715729348760,-0.66871923,-0.56072813,2.1863205,-0.66871923,-0.56072813,2.1863205
346,1715729348770,0.03528686,-0.04314318,0.64315295,0.03528686,-0.04314318,0.64315295
347,1715729348780,0.8718650200000001,0.326503314,-0.3367032,0.8718650200000001,0.326503314,-0.3367032
348,1715729348790,1.40862482,0.44602589200000003,-1.02718044,1.40862482,0.44602589200000003,-1.02718044
349,1715729348800,1.8925741000000003,0.48096654,-1.7616798,1.8925741000000003,0.48096654,-1.7616798
350,1715729348810,2.0327894,0.46285706,-1.9909778000000002,2.0327894,0.46285706,-1.9909778000000002
351,1715729348820,3.01208624,0.20825904739999998,-3.6042396400000003,3.01208624,0.20825904739999998,-3.6042396400000003
352,1715729348830,3.3537164000000006,0.007989477,-4.120573,3.3537164000000006,0.007989477,-4.120573
353,1715729348840,3.5020010400000006,-0.1249021538,-4.32888524,3.5020010400000006,-0.1249021538,-4.32888524
354,1715729348850,4.024699,-0.67883927,-5.0950227,4.024699,-0.67883927,-5.0950227
355,1715729348860,4.123236,-0.810931955,-5.25268185,4.123236,-0.810931955,-5.25268185
356,1715729348870,4.5923514,-1.4787191,-5.984385,4.5923514,-1.4787191,-5.984385
357,1715729348880,4.76108924,-1.76410318,-6.24249812,4.76108924,-1.76410318,-6.24249812
358,1715729348890,4.907935975,-2.048768325,-6.481197099999999,4.907935975,-2.048768325,-6.481197099999999
359,1715729348900,5.1173935,-2.6097627,-6.862961,5.1173935,-2.6097627,-6.862961
360,1715729348910,5.1173935,-2.6097627,-6.862961,5.1173935,-2.6097627,-6.862961
361,1715729348920,5.1440251,-2.86748995,-7.006239000000001,5.1440251,-2.86748995,-7.006239000000001
362,1715729348930,5.15307985,-3.4127718,-7.25224825,5.15307985,-3.4127718,-7.25224825
363,1715729348940,5.06056168,-4.10118504,-7.431252499999999,5.06056168,-4.10118504,-7.431252499999999
364,1715729348950,4.735097,-5.311671,-7.637274700000001,4.735097,-5.311671,-7.637274700000001
365,1715729348960,4.5201534,-5.6637406,-7.66071024,4.5201534,-5.6637406,-7.66071024
366,1715729348970,4.216447,-5.966675,-7.6362095,4.216447,-5.966675,-7.6362095
367,1715729348980,3.906455,-5.936847,-7.501986,3.906455,-5.936847,-7.501986
368,1715729348990,3.906455,-5.936847,-7.501986,3.906455,-5.936847,-7.501986
369,1715729349000,3.065163,-5.474523,-7.300651,3.065163,-5.474523,-7.300651
370,1715729349010,2.81213622,-5.3167308,-7.275723999999999,2.81213622,-5.3167308,-7.275723999999999
371,1715729349020,1.8084181999999998,-4.7088647,-7.133538,1.8084181999999998,-4.7088647,-7.133538
372,1715729349030,1.6619444399999999,-4.62108702,-7.10626728,1.6619444399999999,-4.62108702,-7.10626728
373,1715729349040,1.2283488465,-4.1856538500000005,-7.0131632,1.2283488465,-4.1856538500000005,-7.0131632
374,1715729349050,0.037417386,-2.9451876,-6.754304,0.037417386,-2.9451876,-6.754304
375,1715729349060,0.0016245263999999982,-2.56624668,-6.70956302,0.0016245263999999982,-2.56624668,-6.70956302
376,1715729349070,0.044874232,-1.2976242,-6.361355,0.044874232,-1.2976242,-6.361355
377,1715729349080,-0.17670060959999997,-1.19195012,-5.84757844,-0.17670060959999997,-1.19195012,-5.84757844
378,1715729349090,-0.420046765,-1.22998005,-5.483777625,-0.420046765,-1.22998005,-5.483777625
379,1715729349100,-1.9755315,-1.8066871,-3.7851481,-1.9755315,-1.8066871,-3.7851481
380,1715729349110,-2.264484233333333,-1.8926184333333333,-3.477020566666667,-2.264484233333333,-1.8926184333333333,-3.477020566666667
381,1715729349120,-2.9478507,-1.9334536,-2.1130836,-2.9478507,-1.9334536,-2.1130836
382,1715729349130,-2.9291021400000004,-1.82437048,-1.70072008,-2.9291021400000004,-1.82437048,-1.70072008
383,1715729349140,-2.6832926,-1.4350166039999999,-1.020416076,-2.6832926,-1.4350166039999999,-1.020416076
384,1715729349150,-2.0467708,-0.49042076,0.24061643,-2.0467708,-0.49042076,0.24061643
385,1715729349160,-1.9967701,-0.322109095,0.454135215,-1.9967701,-0.322109095,0.454135215
386,1715729349170,-2.20153375,0.4324304475,1.420861975,-2.20153375,0.4324304475,1.420861975
387,1715729349180,-2.5463796,1.2657995,2.3066952,-2.5463796,1.2657995,2.3066952
388,1715729349190,-2.5990102000000004,1.75675285,2.857802725,-2.5990102000000004,1.75675285,2.857802725
389,1715729349200,-2.5367923,2.0411782,3.2555788,-2.5367923,2.0411782,3.2555788
390,1715729349210,-2.4057648250000003,2.14653955,3.55828015,-2.4057648250000003,2.14653955,3.55828015
391,1715729349220,-2.0042934,2.1518326,4.4036665,-2.0042934,2.1518326,4.4036665
392,1715729349230,-1.7741966,2.0550268,5.019256,-1.7741966,2.0550268,5.019256
393,1715729349240,-1.7028238999999998,1.9144119,5.57306,-1.7028238999999998,1.9144119,5.57306
394,1715729349250,-1.7912408,1.8046897999999998,6.018207,-1.7912408,1.8046897999999998,6.018207
395,1715729349260,-1.8952371999999997,1.6946569,6.237607000000001,-1.8952371999999997,1.6946569,6.237607000000001
396,1715729349270,-2.10323,1.4745911,6.676407,-2.10323,1.4745911,6.676407
397,1715729349280,-2.0989687,1.2040142,6.8871956,-2.0989687,1.2040142,6.8871956
398,1715729349290,-1.8903103,0.9655283000000001,7.1013136,-1.8903103,0.9655283000000001,7.1013136
399,1715729349300,-1.4622076,0.665124,7.438869,-1.4622076,0.665124,7.438869
400,1715729349310,-1.10939224,0.461552104,7.730325239999999,-1.10939224,0.461552104,7.730325239999999
401,1715729349320,-0.11917637,-0.04420844,8.491083,-0.11917637,-0.04420844,8.491083
402,1715729349330,-0.02063948,-0.083023985,8.553401000000001,-0.02063948,-0.083023985,8.553401000000001
403,1715729349340,1.2386353,-0.2816291,9.090693,1.2386353,-0.2816291,9.090693
404,1715729349350,1.4421006,-0.20812588999999998,9.034235,1.4421006,-0.20812588999999998,9.034235
405,1715729349360,1.3150680000000001,-0.1314269045,8.917688375000001,1.3150680000000001,-0.1314269045,8.917688375000001
406,1715729349370,0.39095175,0.3094591,8.499605,0.39095175,0.3094591,8.499605
407,1715729349380,0.013149345,0.516286675,8.3519,0.013149345,0.516286675,8.3519
408,1715729349390,-1.9020281999999997,1.6502266000000003,7.676423,-1.9020281999999997,1.6502266000000003,7.676423
409,1715729349400,-3.114032,2.4192138,7.385606,-3.114032,2.4192138,7.385606
410,1715729349410,-3.114032,2.4192138,7.385606,-3.114032,2.4192138,7.385606
411,1715729349420,-5.1161947,3.9485328,7.0437894,-5.1161947,3.9485328,7.0437894
412,1715729349430,-5.3299934,4.04568492,6.90213588,-5.3299934,4.04568492,6.90213588
413,1715729349440,-5.8147416,4.150933,6.450570600000001,-5.8147416,4.150933,6.450570600000001
414,1715729349450,-5.2568097,3.1370683000000006,5.8754616,-5.2568097,3.1370683000000006,5.8754616
415,1715729349460,-4.5914193999999995,2.2224728675,5.5669013000000005,-4.5914193999999995,2.2224728675,5.5669013000000005
416,1715729349470,-3.3120377,0.52877027,5.004342,-3.3120377,0.52877027,5.004342
417,1715729349480,-2.678339,-0.20919114,4.7401567,-2.678339,-0.20919114,4.7401567
418,1715729349490,-2.678339,-0.20919114,4.7401567,-2.678339,-0.20919114,4.7401567
419,1715729349500,-0.9861411999999999,-2.09281694,3.55595652,-0.9861411999999999,-2.09281694,3.55595652
420,1715729349510,-0.9552752,-2.1241357,3.4920673,-0.9552752,-2.1241357,3.4920673
421,1715729349520,-1.7667397,-1.4435654,2.9595687,-1.7667397,-1.4435654,2.9595687
422,1715729349530,-2.09687155,-1.031374925,2.763593525,-2.09687155,-1.031374925,2.763593525
423,1715729349540,-2.4845943,-0.3892207,2.3567626,-2.4845943,-0.3892207,2.3567626
424,1715729349550,-1.8583524,0.014381058999999998,1.6069502,-1.8583524,0.014381058999999998,1.6069502
425,1715729349560,-1.6128757125,0.06231792175,1.4306823575,-1.6128757125,0.06231792175,1.4306823575
426,1715729349570,1.1002842,0.39787596,-0.23009695,1.1002842,0.39787596,-0.23009695
427,1715729349580,1.63857525,0.44900861249999996,-0.5376918175,1.63857525,0.44900861249999996,-0.5376918175
428,1715729349590,3.2814114000000005,0.70453876,-1.686046,3.2814114000000005,0.70453876,-1.686046
429,1715729349600,3.7329502,1.0155957,-2.3186796,3.7329502,1.0155957,-2.3186796
430,1715729349610,3.771000075,1.09652245,-2.447543175,3.771000075,1.09652245,-2.447543175
431,1715729349620,3.906455,1.8398435,-3.7862134,3.906455,1.8398435,-3.7862134
432,1715729349630,3.9000633,1.9090856,-3.9694386,3.9000633,1.9090856,-3.9694386
433,1715729349640,3.9277601,1.7929718,-5.04935,3.9277601,1.7929718,-5.04935
434,1715729349650,4.039613,1.4191974,-5.536042,4.039613,1.4191974,-5.536042
435,1715729349660,4.039613,1.4191974,-5.536042,4.039613,1.4191974,-5.536042
436,1715729349670,4.276101533333333,1.0265590199999999,-6.041509533333333,4.276101533333333,1.0265590199999999,-6.041509533333333
437,1715729349680,4.5742686,0.6596112300000001,-6.6242353199999995,4.5742686,0.6596112300000001,-6.6242353199999995
438,1715729349690,4.8245792,0.46285704,-7.094123399999999,4.8245792,0.46285704,-7.094123399999999
439,1715729349700,4.9098,0.34354752,-7.360305999999999,4.9098,0.34354752,-7.360305999999999
440,1715729349710,4.91363492,0.29710202799999996,-7.4237956,4.91363492,0.29710202799999996,-7.4237956
441,1715729349720,4.836297,-0.092012145,-7.7214303,4.836297,-0.092012145,-7.7214303
442,1715729349730,4.772381,-0.23518356499999998,-7.786091659999999,4.772381,-0.23518356499999998,-7.786091659999999
443,1715729349740,4.4709115,-0.6841656,-8.061116,4.4709115,-0.6841656,-8.061116
444,1715729349750,4.2036633,-0.9462204599999999,-8.296407,4.2036633,-0.9462204599999999,-8.296407
445,1715729349760,3.98720194,-1.104625132,-8.4353166,3.98720194,-1.104625132,-8.4353166
446,1715729349770,3.6530554000000004,-1.3540833,-8.517982,3.6530554000000004,-1.3540833,-8.517982
447,1715729349780,3.6274890399999995,-1.3815670800000002,-8.5135078,3.6274890399999995,-1.3815670800000002,-8.5135078
448,1715729349790,3.5073272,-1.62902776,-8.4210426,3.5073272,-1.62902776,-8.4210426
449,1715729349800,3.4806956400000004,-1.72721846,-8.3765144,3.4806956400000004,-1.72721846,-8.3765144
450,1715729349810,3.5928679,-2.0167770750000003,-8.0946385,3.5928679,-2.0167770750000003,-8.0946385
451,1715729349820,3.7105796,-2.2113543,-7.810778999999999,3.7105796,-2.2113543,-7.810778999999999
452,1715729349830,3.75931535,-2.2584921,-7.680650775,3.75931535,-2.2584921,-7.680650775
453,1715729349840,3.9330866,-2.4766047,-7.065361,3.9330866,-2.4766047,-7.065361
454,1715729349850,3.9578006799999996,-2.60528854,-6.69390372,3.9578006799999996,-2.60528854,-6.69390372
455,1715729349860,3.9639792,-2.6374595,-6.6010394,3.9639792,-2.6374595,-6.6010394
456,1715729349870,3.448058625,-2.943356675,-5.528252375,3.448058625,-2.943356675,-5.528252375
457,1715729349880,3.0140303,-3.081275075,-4.780070875,3.0140303,-3.081275075,-4.780070875
458,1715729349890,1.7530245,-2.9622319,-3.2153652,1.7530245,-2.9622319,-3.2153652
459,1715729349900,0.97138727,-2.6683524,-2.5039022,0.97138727,-2.6683524,-2.5039022
460,1715729349910,0.871918282,-2.60571488,-2.40571152,0.871918282,-2.60571488,-2.40571152
461,1715729349920,-0.065913185,-1.8024261,-1.4527533,-0.065913185,-1.8024261,-1.4527533
462,1715729349930,-0.32716909625,-1.450190025,-1.23953415,-0.32716909625,-1.450190025,-1.23953415
463,1715729349940,-0.9966872999999999,-0.41265651999999997,-0.60187393,-0.9966872999999999,-0.41265651999999997,-0.60187393
464,1715729349950,-1.3748559,0.054861075999999995,0.07017424,-1.3748559,0.054861075999999995,0.07017424
465,1715729349960,-1.43261315,0.112651632,0.23126207999999998,-1.43261315,0.112651632,0.23126207999999998
466,1715729349970,-1.7422385999999999,0.46179178,1.6516913,-1.7422385999999999,0.46179178,1.6516913
467,1715729349980,-1.747831275,0.49764456999999995,2.170907525,-1.747831275,0.49764456999999995,2.170907525
468,1715729349990,-1.72753806,0.56243254,3.2897204799999997,-1.72753806,0.56243254,3.2897204799999997
469,1715729350000,-1.763544,0.64807975,4.1948752,-1.763544,0.64807975,4.1948752
470,1715729350010,-1.8217073400000001,0.68131597,4.48689028,-1.8217073400000001,0.68131597,4.48689028
471,1715729350020,-2.0542278,0.8004125,5.354681,-2.0542278,0.8004125,5.354681
472,1715729350030,-2.19569476,0.86773714,5.75511356,-2.19569476,0.86773714,5.75511356
473,1715729350040,-2.6442506,1.0198568,6.7605624,-2.6442506,1.0198568,6.7605624
474,1715729350050,-2.7156234,1.0219873,6.888261,-2.7156234,1.0219873,6.888261
475,1715729350060,-2.9179568500000004,0.94528832,7.2077735,-2.9179568500000004,0.94528832,7.2077735
476,1715729350070,-3.204446,0.6097303,7.762708999999999,-3.204446,0.6097303,7.762708999999999
477,1715729350080,-3.1103922333333336,0.2970310233333333,7.935548166666667,-3.1103922333333336,0.2970310233333333,7.935548166666667
478,1715729350090,-2.944655,-0.15166691,8.174833,-2.944655,-0.15166691,8.174833
479,1715729350100,-2.8924571333333335,-0.24363467333333333,8.219219,-2.8924571333333335,-0.24363467333333333,8.219219
480,1715729350110,-2.7880614,-0.4275702,8.307991,-2.7880614,-0.4275702,8.307991
481,1715729350120,-2.113216766666667,-1.1063206666666667,8.662235333333333,-2.113216766666667,-1.1063206666666667,8.662235333333333
482,1715729350130,-1.79843135,-1.2600737,8.76059525,-1.79843135,-1.2600737,8.76059525
483,1715729350140,-1.9808577,-0.6127929,8.436755,-1.9808577,-0.6127929,8.436755
484,1715729350150,-2.2619874749999997,-0.3340600125,8.26268375,-2.2619874749999997,-0.3340600125,8.26268375
485,1715729350160,-2.5143883750000002,-0.113350705,8.1112166,-2.5143883750000002,-0.113350705,8.1112166
486,1715729350170,-3.6730290000000005,0.79295564,7.418629,-3.6730290000000005,0.79295564,7.418629
487,1715729350180,-4.07527276,1.150777688,7.17329908,-4.07527276,1.150777688,7.17329908
488,1715729350190,-4.9777107,2.1475716,6.4772024,-4.9777107,2.1475716,6.4772024
489,1715729350200,-5.5570807,2.5640895,6.1630826,-5.5570807,2.5640895,6.1630826
490,1715729350210,-5.5570807,2.5640895,6.1630826,-5.5570807,2.5640895,6.1630826
491,1715729350220,-6.2184763,3.1061757,5.5528197,-6.2184763,3.1061757,5.5528197
492,1715729350230,-6.24020776,3.01094112,5.408370119999999,-6.24020776,3.01094112,5.408370119999999
493,1715729350240,-5.7616115,2.153963,5.066128,-5.7616115,2.153963,5.066128
494,1715729350250,-4.8285737,1.1006837,4.9691887,-4.8285737,1.1006837,4.9691887
495,1715729350260,-4.8285737,1.1006837,4.9691887,-4.8285737,1.1006837,4.9691887
496,1715729350270,-2.438788,-1.1155974,5.148153,-2.438788,-1.1155974,5.148153
497,1715729350280,-2.438788,-1.1155974,5.148153,-2.438788,-1.1155974,5.148153
498,1715729350290,-0.875114108,-2.04530624,5.30716988,-0.875114108,-2.04530624,5.30716988
499,1715729350300,-0.46312338,-2.1987042,5.340832,-0.46312338,-2.1987042,5.340832
500,1715729350310,-0.976480585,-1.7503280625,5.126514375,-0.976480585,-1.7503280625,5.126514375
501,1715729350320,-2.5165522,-0.40519965,4.4835615,-2.5165522,-0.40519965,4.4835615
502,1715729350330,-2.9049295333333336,-0.1900164,4.2626969,-2.9049295333333336,-0.1900164,4.2626969
503,1715729350340,-2.952112,0.14327796,3.5389390000000005,-2.952112,0.14327796,3.5389390000000005
504,1715729350350,-1.7784576,0.19867167,2.964895,-1.7784576,0.19867167,2.964895
505,1715729350360,-1.7784576,0.19867167,2.964895,-1.7784576,0.19867167,2.964895
506,1715729350370,0.9625656307499999,0.2159822075,1.84340545,0.9625656307499999,0.2159822075,1.84340545
507,1715729350380,2.0078556499999998,0.316616325,1.2227562299999999,2.0078556499999998,0.316616325,1.2227562299999999
508,1715729350390,4.123769,0.5937513,-0.20466378000000002,4.123769,0.5937513,-0.20466378000000002
509,1715729350400,4.6262070500000005,0.937997925,-0.8276432699999999,4.6262070500000005,0.937997925,-0.8276432699999999
510,1715729350410,4.7936864,1.0527468,-1.0353031,4.7936864,1.0527468,-1.0353031
511,1715729350420,5.23403975,1.68967455,-2.670283025,5.23403975,1.68967455,-2.670283025
512,1715729350430,5.265465,1.72745815,-3.01935655,5.265465,1.72745815,-3.01935655
513,1715729350440,5.271857,1.1699258,-4.2281647,5.271857,1.1699258,-4.2281647
514,1715729350450,5.4209933,0.70453876,-4.9726505,5.4209933,0.70453876,-4.9726505
515,1715729350460,5.4209933,0.70453876,-4.9726505,5.4209933,0.70453876,-4.9726505
516,1715729350470,5.8405743,-0.011185268,-6.008886,5.8405743,-0.011185268,-6.008886
517,1715729350480,6.0556245,-0.2954775,-6.442315,6.0556245,-0.2954775,-6.442315
518,1715729350490,6.134454,-0.6926877,-6.786262,6.134454,-0.6926877,-6.786262
519,1715729350500,5.99812668,-1.24286974,-7.06831706,5.99812668,-1.24286974,-7.06831706
520,1715729350510,5.8704014,-1.5990939,-7.2889333,5.8704014,-1.5990939,-7.2889333
521,1715729350520,5.6925025,-2.064481,-7.654318999999999,5.6925025,-2.064481,-7.654318999999999
522,1715729350530,5.6925025,-2.064481,-7.654319,5.6925025,-2.064481,-7.654319
523,1715729350540,5.107806,-2.809899,-8.400803,5.107806,-2.809899,-8.400803
524,1715729350550,4.7024998,-2.95690554,-8.6494349,4.7024998,-2.95690554,-8.6494349
525,1715729350560,4.457063,-3.0208213,-8.7278385,4.457063,-3.0208213,-8.7278385
526,1715729350570,4.220708,-3.0272129,-8.738491,4.220708,-3.0272129,-8.738491
527,1715729350580,4.203024600000001,-3.0220996199999997,-8.7397694,4.203024600000001,-3.0220996199999997,-8.7397694
528,1715729350590,3.9213686,-2.9920592,-8.766188,3.9213686,-2.9920592,-8.766188
529,1715729350600,3.89899805,-3.007239275,-8.763791000000001,3.89899805,-3.007239275,-8.763791000000001
530,1715729350610,3.6147058,-3.2349393,-8.626638,3.6147058,-3.2349393,-8.626638
531,1715729350620,3.3739562,-3.4595768,-8.445543,3.3739562,-3.4595768,-8.445543
532,1715729350630,3.3084758,-3.5029862749999996,-8.398971,3.3084758,-3.5029862749999996,-8.398971
533,1715729350640,2.6327991,-3.7418716,-7.963112,2.6327991,-3.7418716,-7.963112
534,1715729350650,2.32411228,-3.64237612,-7.67551732,2.32411228,-3.64237612,-7.67551732
535,1715729350660,2.0438414,-3.427619,-7.3517838,2.0438414,-3.427619,-7.3517838
536,1715729350670,1.8222666,-3.1656973,-7.115428400000001,1.8222666,-3.1656973,-7.115428400000001
537,1715729350680,1.62898785,-2.96223185,-6.932203050000001,1.62898785,-2.96223185,-6.932203050000001
538,1715729350690,0.9383641,-2.2635522,-6.2175446,0.9383641,-2.2635522,-6.2175446
539,1715729350700,0.4998416725,-1.6182021,-5.4547491500000005,0.4998416725,-1.6182021,-5.4547491500000005
540,1715729350710,0.028043065199999995,-0.6637391480000001,-3.9201433999999997,0.028043065199999995,-0.6637391480000001,-3.9201433999999997
541,1715729350720,-0.04354265,-0.35619754,-3.195125,-0.04354265,-0.35619754,-3.195125
542,1715729350730,0.030193570000000003,-0.11391663749999997,-2.744618375,0.030193570000000003,-0.11391663749999997,-2.744618375
543,1715729350740,0.25140223,0.61292607,-1.3930985,0.25140223,0.61292607,-1.3930985
544,1715729350750,0.36218965,0.8824377699999999,-0.9415599,0.36218965,0.8824377699999999,-0.9415599
545,1715729350760,0.36218965,0.88243777,-0.9415599,0.36218965,0.88243777,-0.9415599
546,1715729350770,-0.123011326,0.99769928,0.538144539,-0.123011326,0.99769928,0.538144539
547,1715729350780,-0.3090596175,0.9455546125000001,1.08886594,-0.3090596175,0.9455546125000001,1.08886594
548,1715729350790,-0.5920203,0.8494145999999999,2.1991036,-0.5920203,0.8494145999999999,2.1991036
549,1715729350800,-0.6287718925000001,0.844887225,2.357528275,-0.6287718925000001,0.844887225,2.357528275
550,1715729350810,-0.73902667,0.8313051000000001,2.8328022999999996,-0.73902667,0.8313051000000001,2.8328022999999996
551,1715729350820,-1.1234536,0.8952209400000001,5.0203214,-1.1234536,0.8952209400000001,5.0203214
552,1715729350830,-1.17618415,0.93676622,5.372790350000001,-1.17618415,0.93676622,5.372790350000001
553,1715729350840,-1.4547507,1.1294458,6.762693,-1.4547507,1.1294458,6.762693
554,1715729350850,-1.6133418,1.2050794,7.2770824,-1.6133418,1.2050794,7.2770824
555,1715729350860,-1.921203,1.2338417,7.9660416,-1.921203,1.2338417,7.9660416
556,1715729350870,-2.0649137250000003,1.155544775,8.212916400000001,-2.0649137250000003,1.155544775,8.212916400000001
557,1715729350880,-2.23233982,0.9639837159999999,8.474731600000002,-2.23233982,0.9639837159999999,8.474731600000002
558,1715729350890,-2.3359900749999998,0.459095335,8.71265825,-2.3359900749999998,0.459095335,8.71265825
559,1715729350900,-2.246541225,-0.0017976450000000144,8.748078249999999,-2.246541225,-0.0017976450000000144,8.748078249999999
560,1715729350910,-2.0053587,-0.7193193,8.72331,-2.0053587,-0.7193193,8.72331
561,1715729350920,-1.7688702,-1.0591384,8.725441,-1.7688702,-1.0591384,8.725441
562,1715729350930,-1.7156070333333335,-1.0815089333333334,8.737159,-1.7156070333333335,-1.0815089333333334,8.737159
563,1715729350940,-1.5605046999999999,-0.9600688399999999,8.8142838,-1.5605046999999999,-0.9600688399999999,8.8142838
564,1715729350950,-1.759782225,-0.587559465,8.841555,-1.759782225,-0.587559465,8.841555
565,1715729350960,-2.269411,0.09853689,8.851143,-2.269411,0.09853689,8.851143
566,1715729350970,-3.0927267,0.7535409,8.72331,-3.0927267,0.7535409,8.72331
567,1715729350980,-3.6092465000000002,1.1028807999999999,8.570978,-3.6092465000000002,1.1028807999999999,8.570978
568,1715729350990,-5.2514834,2.1177442,7.944736000000001,-5.2514834,2.1177442,7.944736000000001
569,1715729351000,-5.8221984,2.4266706,7.672162,-5.8221984,2.4266706,7.672162
570,1715729351010,-7.6870756,3.4266868,6.8445854,-7.6870756,3.4266868,6.8445854
571,1715729351020,-8.347405,3.7333495999999995,6.600773000000001,-8.347405,3.7333495999999995,6.600773000000001
572,1715729351030,-8.6498735,3.8212339,6.441516,-8.6498735,3.8212339,6.441516
573,1715729351040,-9.048535600000001,3.7046940399999997,5.9900573999999995,-9.048535600000001,3.7046940399999997,5.9900573999999995
574,1715729351050,-8.996018,3.5310826,5.8712006,-8.996018,3.5310826,5.8712006
575,1715729351060,-7.792536700000001,2.2050958,5.5709295,-7.792536700000001,2.2050958,5.5709295
576,1715729351070,-7.0885305,1.5363765,5.367464,-7.0885305,1.5363765,5.367464
577,1715729351080,-6.795649625,1.1928955525,5.280412,-6.795649625,1.1928955525,5.280412
578,1715729351090,-3.8860816999999996,-1.8013608,4.695416,-3.8860816999999996,-1.8013608,4.695416
579,1715729351100,-2.15229857,-2.7843994,4.5569982499999995,-2.15229857,-2.7843994,4.5569982499999995
580,1715729351110,-0.009534091999999994,-3.88267294,4.359138740000001,-0.009534091999999994,-3.88267294,4.359138740000001
581,1715729351120,2.207892,-4.264783,3.9372144,2.207892,-4.264783,3.9372144
582,1715729351130,2.207892,-4.264783,3.9372144,2.207892,-4.264783,3.9372144
583,1715729351140,0.4857602,-1.9313229,4.032023,0.4857602,-1.9313229,4.032023
584,1715729351150,-0.10359688666666667,-1.23410792,3.9347288,-0.10359688666666667,-1.23410792,3.9347288
585,1715729351160,-3.0511813,2.330797,2.3546321,-3.0511813,2.330797,2.3546321
586,1715729351170,-4.2577257,3.8633118,0.7230477,-4.2577257,3.8633118,0.7230477
587,1715729351180,-4.302999375,4.042775425,0.43149835,-4.302999375,4.042775425,0.43149835
588,1715729351190,-2.8391938,4.916591,-1.7680713,-2.8391938,4.916591,-1.7680713
589,1715729351200,-2.12605318,4.841809700000001,-1.9584606,-2.12605318,4.841809700000001,-1.9584606
590,1715729351210,2.2270668,3.860116,-2.7915235,2.2270668,3.860116,-2.7915235
591,1715729351220,2.4954466999999996,3.77868985,-2.8575032499999997,2.4954466999999996,3.77868985,-2.8575032499999997
592,1715729351230,2.7638266,3.6972637,-2.923483,2.7638266,3.6972637,-2.923483
593,1715729351240,5.7372437,2.9602344,-4.403933,5.7372437,2.9602344,-4.403933
594,1715729351250,5.85357068,2.97493506,-4.51187084,5.85357068,2.97493506,-4.51187084
595,1715729351260,6.26737895,2.971153525,-4.883434975,6.26737895,2.971153525,-4.883434975
596,1715729351270,6.39544355,2.95837035,-5.000081375,6.39544355,2.95837035,-5.000081375
597,1715729351280,6.4433804,2.9336028000000005,-5.050415,6.4433804,2.9336028000000005,-5.050415
598,1715729351290,7.186668,1.9687403,-5.8459005,7.186668,1.9687403,-5.8459005
599,1715729351300,7.4039817,1.4543512,-6.148302,7.4039817,1.4543512,-6.148302
600,1715729351310,7.7394066,0.5554018,-6.673344,7.7394066,0.5554018,-6.673344
601,1715729351320,7.820899275,0.11767833549999998,-6.88027155,7.820899275,0.11767833549999998,-6.88027155
602,1715729351330,7.848063499999999,-0.028229486,-6.9492474,7.848063499999999,-0.028229486,-6.9492474
603,1715729351340,7.755918225,-1.5284535750000001,-7.439135524999999,7.755918225,-1.5284535750000001,-7.439135524999999
604,1715729351350,7.6336260199999995,-1.98266858,-7.546940140000001,7.6336260199999995,-1.98266858,-7.546940140000001
605,1715729351360,7.2782807,-2.550108,-7.585077,7.2782807,-2.550108,-7.585077
606,1715729351370,6.8725486,-2.829074,-7.497725,6.8725486,-2.829074,-7.497725
607,1715729351380,6.872548599999999,-2.829074,-7.497725,6.872548599999999,-2.829074,-7.497725
608,1715729351390,5.8735976,-3.1465225,-7.244192,5.8735976,-3.1465225,-7.244192
609,1715729351400,5.7052858,-3.16995835,-7.2425942,5.7052858,-3.16995835,-7.2425942
610,1715729351410,4.978909,-3.2146993,-7.2942595,4.978909,-3.2146993,-7.2942595
611,1715729351420,4.786415959999999,-3.1584534599999996,-7.313860700000001,4.786415959999999,-3.1584534599999996,-7.313860700000001
612,1715729351430,4.57637265,-3.08047615,-7.3352724,4.57637265,-3.08047615,-7.3352724
613,1715729351440,4.102973766666667,-2.92246205,-7.313611716666667,4.102973766666667,-2.92246205,-7.313611716666667
614,1715729351450,3.888977975,-2.8501128749999998,-7.243659575000001,3.888977975,-2.8501128749999998,-7.243659575000001
615,1715729351460,3.205778,-2.5980449,-6.8139586,3.205778,-2.5980449,-6.8139586
616,1715729351470,2.7830012,-2.3583605,-6.458294,2.7830012,-2.3583605,-6.458294
617,1715729351480,2.7830012,-2.3583605,-6.458294,2.7830012,-2.3583605,-6.458294
618,1715729351490,2.278965175,-1.5356773750000001,-5.7236614249999995,2.278965175,-1.5356773750000001,-5.7236614249999995
619,1715729351500,2.088848975,-1.2166642,-5.445194949999999,2.088848975,-1.2166642,-5.445194949999999
620,1715729351510,1.3142691,-0.5245092,-4.946019,1.3142691,-0.5245092,-4.946019
621,1715729351520,0.42717072,-0.14421007,-4.4838276,0.42717072,-0.14421007,-4.4838276
622,1715729351530,-0.54867735,0.0953410925,-3.9858504999999997,-0.54867735,0.0953410925,-3.9858504999999997
623,1715729351540,-1.1980221,0.20399797999999997,-3.6008575,-1.1980221,0.20399797999999997,-3.6008575
624,1715729351550,-1.5238928999999999,0.2159822075,-3.33410875,-1.5238928999999999,0.2159822075,-3.33410875
625,1715729351560,-1.7752618999999998,0.17736639,-2.5912538,-1.7752618999999998,0.17736639,-2.5912538
626,1715729351570,-1.7092154999999998,0.15393059,-2.4602263,-1.7092154999999998,0.15393059,-2.4602263
627,1715729351580,-1.5171573333333335,0.07727599666666667,-2.0640814,-1.5171573333333335,0.07727599666666667,-2.0640814
628,1715729351590,-0.9179909,-0.26458487,-0.1396827,-0.9179909,-0.26458487,-0.1396827
629,1715729351600,-0.8860330249999999,-0.2677806575,0.5129577,-0.8860330249999999,-0.2677806575,0.5129577
630,1715729351610,-0.9799426250000001,0.08339016249999999,1.799197125,-0.9799426250000001,0.08339016249999999,1.799197125
631,1715729351620,-1.2180491,0.570155716,2.5522652999999997,-1.2180491,0.570155716,2.5522652999999997
632,1715729351630,-1.5244589,1.10501125,3.04419065,-1.5244589,1.10501125,3.04419065
633,1715729351640,-2.2608888,2.2242706,4.068242,-2.2608888,2.2242706,4.068242
634,1715729351650,-2.3535667499999997,2.3446454,4.2402155,-2.3535667499999997,2.3446454,4.2402155
635,1715729351660,-2.81258894,2.69415844,5.2641865999999995,-2.81258894,2.69415844,5.2641865999999995
636,1715729351670,-2.942524525,2.739458675,5.605017725,-2.942524525,2.739458675,5.605017725
637,1715729351680,-2.9553077,2.7354639,5.6476283,-2.9553077,2.7354639,5.6476283
638,1715729351690,-3.3003200000000006,1.9016287,6.9873304,-3.3003200000000006,1.9016287,6.9873304
639,1715729351700,-3.3386695,1.767971425,7.075181300000001,-3.3386695,1.767971425,7.075181300000001
640,1715729351710,-3.5900717,-0.021837905,7.82556,-3.5900717,-0.021837905,7.82556
641,1715729351720,-3.3812799999999994,-1.0420941,8.052328,-3.3812799999999994,-1.0420941,8.052328
642,1715729351730,-3.15231495,-1.484578,8.184953,-3.15231495,-1.484578,8.184953
643,1715729351740,-2.2789984,-2.4574301,8.626371,-2.2789984,-2.4574301,8.626371
644,1715729351750,-2.2789984,-2.4574301,8.626371,-2.2789984,-2.4574301,8.626371
645,1715729351760,-1.2076095,-2.057024,9.038496,-1.2076095,-2.057024,9.038496
646,1715729351770,-1.245959,-1.4574138,9.020386,-1.245959,-1.4574138,9.020386
647,1715729351780,-1.5020883500000002,-1.102214965,8.902740999999999,-1.5020883500000002,-1.102214965,8.902740999999999
648,1715729351790,-2.694318,-0.045273706,8.358059,-2.694318,-0.045273706,8.358059
649,1715729351800,-3.443830875,0.4326967685,8.011082425,-3.443830875,0.4326967685,8.011082425
650,1715729351810,-4.6060667,1.1592731,7.485740699999999,-4.6060667,1.1592731,7.485740699999999
651,1715729351820,-5.19047014,1.5605579,7.2293321399999995,-5.19047014,1.5605579,7.2293321399999995
652,1715729351830,-5.336571,1.6608791,7.16523,-5.336571,1.6608791,7.16523
653,1715729351840,-6.839392,3.0720873,6.5507054,-6.839392,3.0720873,6.5507054
654,1715729351850,-6.839392000000001,3.0720873,6.5507054,-6.839392000000001,3.0720873,6.5507054
655,1715729351860,-6.894752325,2.93250445,6.5043668,-6.894752325,2.93250445,6.5043668
656,1715729351870,-6.805835999999999,2.75570395,6.50063825,-6.805835999999999,2.75570395,6.50063825
657,1715729351880,-6.279382719999999,2.02211008,6.34068862,-6.279382719999999,2.02211008,6.34068862
658,1715729351890,-4.7412224,0.14434323,5.8445687,-4.7412224,0.14434323,5.8445687
659,1715729351900,-3.9541921999999996,-0.550541535,5.65182285,-3.9541921999999996,-0.550541535,5.65182285
660,1715729351910,-2.034121,-2.1060262,5.3248534,-2.034121,-2.1060262,5.3248534
661,1715729351920,-1.5725955333333335,-2.3786449333333333,5.349709799999999,-1.5725955333333335,-2.3786449333333333,5.349709799999999
662,1715729351930,-0.72517824,-2.7003102,5.481447,-0.72517824,-2.7003102,5.481447
663,1715729351940,-0.71559083,-2.5256069,5.53258,-0.71559083,-2.5256069,5.53258
664,1715729351950,-0.977113046,-2.1942033,5.5598507999999995,-0.977113046,-2.1942033,5.5598507999999995
665,1715729351960,-1.533447,-1.1516832,5.3823776,-1.533447,-1.1516832,5.3823776
666,1715729351970,-1.5611438666666666,-0.6270408199999999,4.882502533333333,-1.5611438666666666,-0.6270408199999999,4.882502533333333
667,1715729351980,-0.7556492216666667,0.203642905,3.28260985,-0.7556492216666667,0.203642905,3.28260985
668,1715729351990,0.30573067,0.34035173,2.2086911,0.30573067,0.34035173,2.2086911
669,1715729352000,1.1715902425,0.2860232975,1.475456675,1.1715902425,0.2860232975,1.475456675
670,1715729352010,3.2089736,-0.10692583999999998,-0.15353112,3.2089736,-0.10692583999999998,-0.15353112
671,1715729352020,4.2494698,-0.3189133,-1.0768484,4.2494698,-0.3189133,-1.0768484
672,1715729352030,4.897017,-0.24327959,-1.9138793,4.897017,-0.24327959,-1.9138793
673,1715729352040,5.15086948,0.0020506291999999983,-2.53759106,5.15086948,0.0020506291999999983,-2.53759106
674,1715729352050,5.24629045,0.17683376199999998,-2.9682905,5.24629045,0.17683376199999998,-2.9682905
675,1715729352060,5.13252006,0.441977892,-3.8777460000000006,5.13252006,0.441977892,-3.8777460000000006
676,1715729352070,5.080641675,0.4809665425,-4.0707717500000005,5.080641675,0.4809665425,-4.0707717500000005
677,1715729352080,4.95571288,0.4368646239999999,-4.316554739999999,4.95571288,0.4368646239999999,-4.316554739999999
678,1715729352090,4.577438,-0.11225215,-5.354947,4.577438,-0.11225215,-5.354947
679,1715729352100,4.6631915,-0.348208055,-5.59829325,4.6631915,-0.348208055,-5.59829325
680,1715729352110,5.1024795,-1.215599,-6.4114223,5.1024795,-1.215599,-6.4114223
681,1715729352120,5.3794484,-1.7193356,-6.826742,5.3794484,-1.7193356,-6.826742
682,1715729352130,5.5540185,-2.1060262,-7.117559,5.5540185,-2.1060262,-7.117559
683,1715729352140,5.7048597,-2.62140076,-7.4856074800000005,5.7048597,-2.62140076,-7.4856074800000005
684,1715729352150,5.753222666666666,-2.8265883333333335,-7.635809600000001,5.753222666666666,-2.8265883333333335,-7.635809600000001
685,1715729352160,5.6935678,-3.6065829999999997,-8.220906,5.6935678,-3.6065829999999997,-8.220906
686,1715729352170,5.649892,-3.6907392,-8.29108,5.649892,-3.6907392,-8.29108
687,1715729352180,5.2175283,-3.9910101999999994,-8.644748,5.2175283,-3.9910101999999994,-8.644748
688,1715729352190,5.03600726,-4.01657668,-8.6745752,5.03600726,-4.01657668,-8.6745752
689,1715729352200,4.782634333333333,-4.0300701,-8.659306333333333,4.782634333333333,-4.0300701,-8.659306333333333
690,1715729352210,4.3698444,-4.0229683,-8.566983,4.3698444,-4.0229683,-8.566983
691,1715729352220,4.205083866666667,-4.0393021000000005,-8.513719666666667,4.205083866666667,-4.0393021000000005,-8.513719666666667
692,1715729352230,3.5742260000000003,-4.239217,-8.310255,3.5742260000000003,-4.239217,-8.310255
693,1715729352240,3.34422875,-4.320709525,-8.2528305,3.34422875,-4.320709525,-8.2528305
694,1715729352250,3.1205566,-4.366649,-8.198180333333333,3.1205566,-4.366649,-8.198180333333333
695,1715729352260,2.275936,-4.308459,-7.926893,2.275936,-4.308459,-7.926893
696,1715729352270,2.1925256,-4.27181372,-7.881726040000001,2.1925256,-4.27181372,-7.881726040000001
697,1715729352280,1.4815154,-3.6119096,-7.2654977,1.4815154,-3.6119096,-7.2654977
698,1715729352290,1.15266844,-3.14670904,-6.8684739399999994,1.15266844,-3.14670904,-6.8684739399999994
699,1715729352300,1.0704567,-3.0304089,-6.769218,1.0704567,-3.0304089,-6.769218
700,1715729352310,0.30144298799999997,-2.31071656,-5.8034763400000005,0.30144298799999997,-2.31071656,-5.8034763400000005
701,1715729352320,-0.04810331125,-2.024533525,-5.329880325,-0.04810331125,-2.024533525,-5.329880325
702,1715729352330,-0.8317046,-1.4329127,-3.9087186,-0.8317046,-1.4329127,-3.9087186
703,1715729352340,-0.9552752,-1.1974895,-3.3293483,-0.9552752,-1.1974895,-3.3293483
704,1715729352350,-0.95335772,-1.1242259860000001,-3.2170961599999996,-0.95335772,-1.1242259860000001,-3.2170961599999996
705,1715729352360,-0.922252,-0.44994074,-2.426138,-0.922252,-0.44994074,-2.426138
706,1715729352370,-0.90787093,-0.179097455,-2.28881885,-0.90787093,-0.179097455,-2.28881885
707,1715729352380,-0.94142675,0.6235787,-1.7148080999999997,-0.94142675,0.6235787,-1.7148080999999997
708,1715729352390,-1.14902,0.8739157,-0.9628652,-1.14902,0.8739157,-0.9628652
709,1715729352400,-1.1791136999999998,0.9034767499999999,-0.7839341925,-1.1791136999999998,0.9034767499999999,-0.7839341925
710,1715729352410,-1.1618031,1.1337068,1.1010832,-1.1618031,1.1337068,1.1010832
711,1715729352420,-1.07487768,1.16949968,1.44487036,-1.07487768,1.16949968,1.44487036
712,1715729352430,-0.5355613,1.3978922,3.3418653,-0.5355613,1.3978922,3.3418653
713,1715729352440,-0.44927493,1.4745911,4.3834267,-0.44927493,1.4745911,4.3834267
714,1715729352450,-0.4700475725,1.488705875,4.560493525,-0.4700475725,1.488705875,4.560493525
715,1715729352460,-0.88816357,1.6502266000000003,6.0672092,-0.88816357,1.6502266000000003,6.0672092
716,1715729352470,-1.2275831925,1.731186575,6.4630877,-1.2275831925,1.731186575,6.4630877
717,1715729352480,-1.8349166,1.8739319,7.041659,-1.8349166,1.8739319,7.041659
718,1715729352490,-2.353567,1.938913,7.325951,-2.353567,1.938913,7.325951
719,1715729352500,-2.4685710000000003,1.9144119666666668,7.376373533333333,-2.4685710000000003,1.9144119666666668,7.376373533333333
720,1715729352510,-2.8807391999999994,1.7301212999999998,7.5464606,-2.8807391999999994,1.7301212999999998,7.5464606
721,1715729352520,-2.8807392,1.7301213,7.5464606000000005,-2.8807392,1.7301213,7.5464606000000005
722,1715729352530,-2.8807391999999994,1.7301212999999998,7.5464606,-2.8807391999999994,1.7301212999999998,7.5464606
723,1715729352540,-1.3940307,-1.2379695,8.5134535,-1.3940307,-1.2379695,8.5134535
724,1715729352550,-1.164499655,-1.387339425,8.559526125000001,-1.164499655,-1.387339425,8.559526125000001
725,1715729352560,1.0885663,-2.55863,8.655134,1.0885663,-2.55863,8.655134
726,1715729352570,1.0885663,-2.55863,8.655134,1.0885663,-2.55863,8.655134
727,1715729352580,2.5907744,-2.92390908,7.583691399999999,2.5907744,-2.92390908,7.583691399999999
728,1715729352590,3.1173608,-3.031474,6.5869246,3.1173608,-3.031474,6.5869246
729,1715729352600,3.0745372000000004,-3.0080382,6.495764679999999,3.0745372000000004,-3.0080382,6.495764679999999
730,1715729352610,2.1695426,-2.2933795,5.659346,2.1695426,-2.2933795,5.659346
731,1715729352620,1.4878803600000001,-1.60841494,5.40283056,1.4878803600000001,-1.60841494,5.40283056
732,1715729352630,-0.4110586,0.5671197,4.8339,-0.4110586,0.5671197,4.8339
733,1715729352640,-1.7379776,2.249837,4.591153,-1.7379776,2.249837,4.591153
734,1715729352650,-2.0068900750000003,2.620448825,4.5730436,-2.0068900750000003,2.620448825,4.5730436
735,1715729352660,-3.4984589,5.0625324,4.615654,-3.4984589,5.0625324,4.615654
736,1715729352670,-3.64408058,5.510688880000001,4.7246308,-3.64408058,5.510688880000001,4.7246308
737,1715729352680,-3.704987,6.4363227,5.642302,-3.704987,6.4363227,5.642302
738,1715729352690,-3.5133727,6.3629527,6.523008999999999,-3.5133727,6.3629527,6.523008999999999
739,1715729352700,-3.4755558,6.238083775,6.7250761,-3.4755558,6.238083775,6.7250761
740,1715729352710,-3.1554441,4.9442883,7.7691007,-3.1554441,4.9442883,7.7691007
741,1715729352720,-3.0336845,4.473974220000001,7.76483966,-3.0336845,4.473974220000001,7.76483966
742,1715729352730,-2.5580974,2.295643,6.5624237,-2.5580974,2.295643,6.5624237
743,1715729352740,-2.5261395666666666,1.263447,5.3590086999999995,-2.5261395666666666,1.263447,5.3590086999999995
744,1715729352750,-2.6072328,0.6525805,4.3003628,-2.6072328,0.6525805,4.3003628
745,1715729352760,-2.6399896,0.35526544,2.8423898,-2.6399896,0.35526544,2.8423898
746,1715729352770,-2.1051607,0.661129225,2.168510675,-2.1051607,0.661129225,2.168510675
747,1715729352780,-1.0531462,0.8984167,1.5622090999999998,-1.0531462,0.8984167,1.5622090999999998
748,1715729352790,-0.28316037475,0.6890924125,0.863329625,-0.28316037475,0.6890924125,0.863329625
749,1715729352800,0.39844187924999996,0.19757311475,-0.076499245,0.39844187924999996,0.19757311475,-0.076499245
750,1715729352810,1.3579448,-1.1857716,-2.1620858,1.3579448,-1.1857716,-2.1620858
751,1715729352820,1.7636771,-1.6534223999999997,-3.3027167,1.7636771,-1.6534223999999997,-3.3027167
752,1715729352830,2.0076225,-1.6735291,-4.6488104,2.0076225,-1.6735291,-4.6488104
753,1715729352840,1.8307887,-1.1442263,-5.9747972,1.8307887,-1.1442263,-5.9747972
754,1715729352850,1.7586504,-1.0667616624999998,-6.133221900000001,1.7586504,-1.0667616624999998,-6.133221900000001
755,1715729352860,1.0331726,-0.84075934,-7.528618,1.0331726,-0.84075934,-7.528618
756,1715729352870,0.9969536200000001,-0.9025446266666667,-7.649658466666666,0.9969536200000001,-0.9025446266666667,-7.649658466666666
757,1715729352880,0.9586041,-1.6491612,-8.578701,0.9586041,-1.6491612,-8.578701
758,1715729352890,1.1247853,-2.0623505,-8.877907,1.1247853,-2.0623505,-8.877907
759,1715729352900,1.2035482000000002,-2.1943766,-8.897082000000001,1.2035482000000002,-2.1943766,-8.897082000000001
760,1715729352910,1.3760543,-2.4478426,-8.82997,1.3760543,-2.4478426,-8.82997
761,1715729352920,1.4032185,-2.4782026999999998,-8.754935499999998,1.4032185,-2.4782026999999998,-8.754935499999998
762,1715729352930,1.6040207,-2.6193502,-8.360322,1.6040207,-2.6193502,-8.360322
763,1715729352940,1.8297235,-2.6960492,-8.086682,1.8297235,-2.6960492,-8.086682
764,1715729352950,1.8993206666666669,-2.7247668666666667,-8.002171333333333,1.8993206666666669,-2.7247668666666667,-8.002171333333333
765,1715729352960,2.110953,-2.8418572,-7.691603,2.110953,-2.8418572,-7.691603
766,1715729352970,2.0670109500000002,-2.8083013,-7.660444249999999,2.0670109500000002,-2.8083013,-7.660444249999999
767,1715729352980,1.7498286999999997,-2.5682175,-7.7139735,1.7498286999999997,-2.5682175,-7.7139735
768,1715729352990,1.3739238,-2.3285332,-7.806518,1.3739238,-2.3285332,-7.806518
769,1715729353000,1.0129325,-2.0900474,-7.834215,1.0129325,-2.0900474,-7.834215
770,1715729353010,0.9055539400000001,-1.9835209200000001,-7.806944279999999,0.9055539400000001,-1.9835209200000001,-7.806944279999999
771,1715729353020,0.744486096,-1.77736576,-7.7196726,0.744486096,-1.77736576,-7.7196726
772,1715729353030,0.43950115199999995,-1.31424236,-7.42145212,0.43950115199999995,-1.31424236,-7.42145212
773,1715729353040,0.3352917425,-1.134206175,-7.264432225,0.3352917425,-1.134206175,-7.264432225
774,1715729353050,0.23286663599999996,-0.948777082,-6.98008652,0.23286663599999996,-0.948777082,-6.98008652
775,1715729353060,0.16724639,-0.718254,-6.50197,0.16724639,-0.718254,-6.50197
776,1715729353070,0.23382537,-0.5683514375,-6.388253075,0.23382537,-0.5683514375,-6.388253075
777,1715729353080,0.39734334,-0.20599535,-6.1738687,0.39734334,-0.20599535,-6.1738687
778,1715729353090,0.3685812,0.32863384,-6.134454,0.3685812,0.32863384,-6.134454
779,1715729353100,0.2964428825,0.48732483,-6.0820229999999995,0.2964428825,0.48732483,-6.0820229999999995
780,1715729353110,-0.28642276,1.5022881,-5.532846,-0.28642276,1.5022881,-5.532846
781,1715729353120,-0.645849385,1.85532315,-5.108704725,-0.645849385,1.85532315,-5.108704725
782,1715729353130,-1.392672452,2.31548366,-3.88608166,-1.392672452,2.31548366,-3.88608166
783,1715729353140,-1.5792533,2.3840601,-2.9298744,-1.5792533,2.3840601,-2.9298744
784,1715729353150,-1.5792533,2.3840601,-2.9298744,-1.5792533,2.3840601,-2.9298744
785,1715729353160,-0.74754876,1.8259951,-1.0938926,-0.74754876,1.8259951,-1.0938926
786,1715729353170,-0.6925101300000001,1.7777031333333333,-0.9334372666666667,-0.6925101300000001,1.7777031333333333,-0.9334372666666667
787,1715729353180,-0.48229810000000006,1.360608,0.7912246,-0.48229810000000006,1.360608,0.7912246
788,1715729353190,-0.6282392,1.2903006,1.5686007,-0.6282392,1.2903006,1.5686007
789,1715729353200,-0.70621652,1.2538685399999998,1.9353975599999997,-0.70621652,1.2538685399999998,1.9353975599999997
790,1715729353210,-0.99775255,1.0092041,3.4409347,-0.99775255,1.0092041,3.4409347
791,1715729353220,-1.0565551,0.958071464,3.7642688800000004,-1.0565551,0.958071464,3.7642688800000004
792,1715729353230,-1.302418,0.7471492999999999,5.3120704,-1.302418,0.7471492999999999,5.3120704
793,1715729353240,-1.5086263599999998,0.729465888,6.6987505999999994,-1.5086263599999998,0.729465888,6.6987505999999994
794,1715729353250,-1.6133418,0.7524756,7.252581000000001,-1.6133418,0.7524756,7.252581000000001
795,1715729353260,-1.7864471333333334,0.7720054333333334,7.9456685,-1.7864471333333334,0.7720054333333334,7.9456685
796,1715729353270,-1.8704964,0.7690937200000001,8.294302400000001,-1.8704964,0.7690937200000001,8.294302400000001
797,1715729353280,-2.00695665,0.710131375,9.09658625,-2.00695665,0.710131375,9.09658625
798,1715729353290,-2.0463714600000005,0.62315258,9.4523508,-2.0463714600000005,0.62315258,9.4523508
799,1715729353300,-2.051032,0.6054692,9.500687,-2.051032,0.6054692,9.500687
800,1715729353310,-2.1671457199999997,-0.0031957960000000064,9.9195492,-2.1671457199999997,-0.0031957960000000064,9.9195492
801,1715729353320,-2.1735373,-0.08349004,9.958751,-2.1735373,-0.08349004,9.958751
802,1715729353330,-1.8929402249999998,-0.7867304850000001,10.142108499999999,-1.8929402249999998,-0.7867304850000001,10.142108499999999
803,1715729353340,-1.7134765,-0.968591,10.142908,-1.7134765,-0.968591,10.142908
804,1715729353350,-1.6896856333333334,-0.9597138,10.117186333333335,-1.6896856333333334,-0.9597138,10.117186333333335
805,1715729353360,-1.70495445,-0.753940325,9.83757675,-1.70495445,-0.753940325,9.83757675
806,1715729353370,-1.80721975,-0.6325335575,9.72119675,-1.80721975,-0.6325335575,9.72119675
807,1715729353380,-2.4984426,0.15712638,8.826641,-2.4984426,0.15712638,8.826641
808,1715729353390,-2.9712865,0.6757766,8.12157,-2.9712865,0.6757766,8.12157
809,1715729353400,-2.9712865,0.6757766,8.12157,-2.9712865,0.6757766,8.12157
810,1715729353410,-3.2233101666666664,0.9668599333333333,7.692712666666668,-3.2233101666666664,0.9668599333333333,7.692712666666668
811,1715729353420,-3.5174205799999996,1.3890772,7.130662000000001,-3.5174205799999996,1.3890772,7.130662000000001
812,1715729353430,-3.52913852,1.7096682600000002,6.824851499999999,-3.52913852,1.7096682600000002,6.824851499999999
813,1715729353440,-3.0628994,1.7823192,6.737127,-3.0628994,1.7823192,6.737127
814,1715729353450,-3.0628994000000005,1.7823192,6.737127,-3.0628994000000005,1.7823192,6.737127
815,1715729353460,-2.58176635,1.587142925,6.6489763,-2.58176635,1.587142925,6.6489763
816,1715729353470,-1.974699175,1.2976908425,6.482295775,-1.974699175,1.2976908425,6.482295775
817,1715729353480,-0.5089297,0.49255127000000004,6.0373816,-0.5089297,0.49255127000000004,6.0373816
818,1715729353490,-0.33644576666666665,0.39889685666666663,5.925884066666666,-0.33644576666666665,0.39889685666666663,5.925884066666666
819,1715729353500,-0.2502038,0.35206965,5.8701353,-0.2502038,0.35206965,5.8701353
820,1715729353510,0.023213870666666667,0.28744364666666666,5.156275466666666,0.023213870666666667,0.28744364666666666,5.156275466666666
821,1715729353520,-0.08721846,0.4085286,5.000081,-0.08721846,0.4085286,5.000081
822,1715729353530,-0.25979117,0.6342313,4.887163,-0.25979117,0.6342313,4.887163
823,1715729353540,-0.36035205000000003,0.63764018,4.57450828,-0.36035205000000003,0.63764018,4.57450828
824,1715729353550,-0.415692498,0.57420374,4.11423456,-0.415692498,0.57420374,4.11423456
825,1715729353560,-0.2139582,0.268126862,2.3942067000000002,-0.2139582,0.268126862,2.3942067000000002
826,1715729353570,-0.011618030000000001,0.15952323225,1.79943006,-0.011618030000000001,0.15952323225,1.79943006
827,1715729353580,1.36524186,-0.1700160762,-0.625070072,1.36524186,-0.1700160762,-0.625070072
828,1715729353590,1.9083199249999998,-0.2182458825,-1.451455,1.9083199249999998,-0.2182458825,-1.451455
829,1715729353600,2.7148244,-0.033555806,-3.07262,2.7148244,-0.033555806,-3.07262
830,1715729353610,2.7947192,0.31691593,-3.8788912,2.7947192,0.31691593,-3.8788912
831,1715729353620,2.76648975,0.511792615,-4.1430101,2.76648975,0.511792615,-4.1430101
832,1715729353630,2.5869927,1.3510206,-5.1035447,2.5869927,1.3510206,-5.1035447
833,1715729353640,2.559296,1.445829,-5.219659,2.559296,1.445829,-5.219659
834,1715729353650,2.6008413,1.3915005999999999,-5.9140773,2.6008413,1.3915005999999999,-5.9140773
835,1715729353660,2.8808722,0.57883763,-6.398639,2.8808722,0.57883763,-6.398639
836,1715729353670,3.0368268800000005,0.23209431,-6.55922752,3.0368268800000005,0.23209431,-6.55922752
837,1715729353680,3.8857487750000006,-1.4278194675,-7.282575025,3.8857487750000006,-1.4278194675,-7.282575025
838,1715729353690,4.26140058,-2.14259134,-7.584650460000001,4.26140058,-2.14259134,-7.584650460000001
839,1715729353700,4.67805208,-3.02782538,-8.06151608,4.67805208,-3.02782538,-8.06151608
840,1715729353710,4.875712,-3.754655,-8.680966,4.875712,-3.754655,-8.680966
841,1715729353720,4.842688766666666,-3.765662666666667,-8.738446,4.842688766666666,-3.765662666666667,-8.738446
842,1715729353730,4.2004676,-3.6204316999999997,-9.263533,4.2004676,-3.6204316999999997,-9.263533
843,1715729353740,4.080093,-3.556516,-9.304012,4.080093,-3.556516,-9.304012
844,1715729353750,3.255845,-3.184872,-9.3869705,3.255845,-3.184872,-9.3869705
845,1715729353760,2.9873986,-3.2104383,-9.356211,2.9873986,-3.2104383,-9.356211
846,1715729353770,2.94398915,-3.237835575,-9.33890025,2.94398915,-3.237835575,-9.33890025
847,1715729353780,2.6700833,-3.7163053000000006,-9.064328,2.6700833,-3.7163053000000006,-9.064328
848,1715729353790,2.6338644,-4.0368166,-8.88856,2.6338644,-4.0368166,-8.88856
849,1715729353800,2.5454476,-4.209389,-8.658596,2.5454476,-4.209389,-8.658596
850,1715729353810,2.1705812799999995,-4.3022802,-8.156750399999998,2.1705812799999995,-4.3022802,-8.156750399999998
851,1715729353820,2.0768647,-4.325503,-8.031289,2.0768647,-4.325503,-8.031289
852,1715729353830,0.98073496,-3.97375296,-6.95049894,0.98073496,-3.97375296,-6.95049894
853,1715729353840,0.716522925,-3.828124775,-6.708231325,0.716522925,-3.828124775,-6.708231325
854,1715729353850,0.433109552,-3.2634618000000004,-6.1110978000000005,0.433109552,-3.2634618000000004,-6.1110978000000005
855,1715729353860,0.585895,-2.8716846,-5.6445656,0.585895,-2.8716846,-5.6445656
856,1715729353870,0.65913188,-2.77543796,-5.515082959999999,0.65913188,-2.77543796,-5.515082959999999
857,1715729353880,0.77005243,-2.372209,-4.8938212,0.77005243,-2.372209,-4.8938212
858,1715729353890,0.35366753,-2.0911126,-4.6605287,0.35366753,-2.0911126,-4.6605287
859,1715729353900,-0.2821617,-1.6587486,-4.43163,-0.2821617,-1.6587486,-4.43163
860,1715729353910,-0.66214122,-1.3826323600000001,-4.302093999999999,-0.66214122,-1.3826323600000001,-4.302093999999999
861,1715729353920,-1.0106023,-1.04628868,-4.22230575,-1.0106023,-1.04628868,-4.22230575
862,1715729353930,-1.6378429,0.15606113,-4.1567917,-1.6378429,0.15606113,-4.1567917
863,1715729353940,-1.69153218,0.438036434,-4.07668418,-1.69153218,0.438036434,-4.07668418
864,1715729353950,-1.513207,1.1859047,-3.1812768,-1.513207,1.1859047,-3.1812768
865,1715729353960,-1.1264097199999998,1.2626037399999999,-2.33439216,-1.1264097199999998,1.2626037399999999,-2.33439216
866,1715729353970,-0.8784873799999998,1.2647342666666666,-1.7999849,-0.8784873799999998,1.2647342666666666,-1.7999849
867,1715729353980,0.064048976,1.1475552,0.42370862,0.064048976,1.1475552,0.42370862
868,1715729353990,0.142545588,1.228248975,1.1140993099999998,0.142545588,1.228248975,1.1140993099999998
869,1715729354000,0.23968430999999998,1.4479597,2.6059012,0.23968430999999998,1.4479597,2.6059012
870,1715729354010,0.08535424600000001,1.9133466,3.6442668,0.08535424600000001,1.9133466,3.6442668
871,1715729354020,0.0555268648,1.95401308,3.79742514,0.0555268648,1.95401308,3.79742514
872,1715729354030,-0.32583752,2.314818,5.6486936,-0.32583752,2.314818,5.6486936
873,1715729354040,-0.526852784,2.3608372,6.383938720000001,-0.526852784,2.3608372,6.383938720000001
874,1715729354050,-0.8934899,2.3457105,7.3877363,-0.8934899,2.3457105,7.3877363
875,1715729354060,-1.0489518,2.3030999999999997,7.72908665,-1.0489518,2.3030999999999997,7.72908665
876,1715729354070,-1.3130705999999999,2.1971062499999996,8.2802275,-1.3130705999999999,2.1971062499999996,8.2802275
877,1715729354080,-1.7177377,1.7184035,8.912928,-1.7177377,1.7184035,8.912928
878,1715729354090,-1.77739242,1.5438067,8.9809976,-1.77739242,1.5438067,8.9809976
879,1715729354100,-1.8690051,0.58416396,9.268593,-1.8690051,0.58416396,9.268593
880,1715729354110,-1.7646092,0.03249054,9.432643,-1.7646092,0.03249054,9.432643
881,1715729354120,-1.6922045749999999,-0.126699795,9.45870875,-1.6922045749999999,-0.126699795,9.45870875
882,1715729354130,-1.22358846,-0.84374208,9.524122,-1.22358846,-0.84374208,9.524122
883,1715729354140,-1.099218925,-0.913197255,9.492963750000001,-1.099218925,-0.913197255,9.492963750000001
884,1715729354150,-1.4856433000000002,-0.3988080600000001,9.236634,-1.4856433000000002,-0.3988080600000001,9.236634
885,1715729354160,-1.9350514,-0.062184766,9.091759,-1.9350514,-0.062184766,9.091759
886,1715729354170,-2.24710715,0.156660342,8.9895605,-2.24710715,0.156660342,8.9895605
887,1715729354180,-3.089531,0.7993472,8.576304,-3.089531,0.7993472,8.576304
888,1715729354190,-3.2879894,0.9952492,8.4000032,-3.2879894,0.9952492,8.4000032
889,1715729354200,-4.176899,1.9346520000000003,7.586941,-4.176899,1.9346520000000003,7.586941
890,1715729354210,-4.297439975,2.061584775,7.504649199999999,-4.297439975,2.061584775,7.504649199999999
891,1715729354220,-4.584282140000001,2.3054169599999996,7.3954330200000005,-4.584282140000001,2.3054169599999996,7.3954330200000005
892,1715729354230,-6.142843,3.2551794,7.0075707,-6.142843,3.2551794,7.0075707
893,1715729354240,-6.166811500000001,3.213634125,6.985199925,-6.166811500000001,3.213634125,6.985199925
894,1715729354250,-5.5933,2.299904,6.517682599999999,-5.5933,2.299904,6.517682599999999
895,1715729354260,-4.563456,1.3957617,6.0277944,-4.563456,1.3957617,6.0277944
896,1715729354270,-4.26684675,1.1441597425,5.9282255500000005,-4.26684675,1.1441597425,5.9282255500000005
897,1715729354280,-2.430266,-0.57457656,5.3610725,-2.430266,-0.57457656,5.3610725
898,1715729354290,-2.3152174666666667,-0.7265098066666665,5.3387020000000005,-2.3152174666666667,-0.7265098066666665,5.3387020000000005
899,1715729354300,-1.2821779,-2.2241373,5.2279143,-1.2821779,-2.2241373,5.2279143
900,1715729354310,-0.7528751,-2.5064323,5.0682583,-0.7528751,-2.5064323,5.0682583
901,1715729354320,-0.663426235,-2.4595607250000002,4.9878309000000005,-0.663426235,-2.4595607250000002,4.9878309000000005
902,1715729354330,-0.3583280575,-2.012249775,4.522942875,-0.3583280575,-2.012249775,4.522942875
903,1715729354340,-0.36258911250000003,-1.7563867,4.37357295,-0.36258911250000003,-1.7563867,4.37357295
904,1715729354350,-0.4769718,0.020772642,3.4643705,-0.4769718,0.020772642,3.4643705
905,1715729354360,-0.3652189725,0.2277001005,3.224686175,-0.3652189725,0.2277001005,3.224686175
906,1715729354370,-0.32796803,0.29667592,3.1447914,-0.32796803,0.29667592,3.1447914
907,1715729354380,2.00650392,0.396571014,1.160684632,2.00650392,0.396571014,1.160684632
908,1715729354390,2.6039704,0.348873835,0.66918531,2.6039704,0.348873835,0.66918531
909,1715729354400,3.3750481199999998,0.37976647799999996,-0.22700769199999998,3.3750481199999998,0.37976647799999996,-0.22700769199999998
910,1715729354410,4.420844,0.9388967000000001,-2.2387848,4.420844,0.9388967000000001,-2.2387848
911,1715729354420,4.420844,0.9388967000000001,-2.2387848,4.420844,0.9388967000000001,-2.2387848
912,1715729354430,4.442149333333333,1.2108052999999999,-2.7193961333333334,4.442149333333333,1.2108052999999999,-2.7193961333333334
913,1715729354440,4.3868221499999995,1.47026355,-3.6408046499999998,4.3868221499999995,1.47026355,-3.6408046499999998
914,1715729354450,4.237752,1.1187931,-5.123785,4.237752,1.1187931,-5.123785
915,1715729354460,4.2686443,0.7737809,-5.5829134,4.2686443,0.7737809,-5.5829134
916,1715729354470,4.2686443,0.7737809,-5.5829134,4.2686443,0.7737809,-5.5829134
917,1715729354480,4.719917,-0.1200086025,-6.7567341,4.719917,-0.1200086025,-6.7567341
918,1715729354490,4.911597825,-0.41581899499999997,-7.272721175,4.911597825,-0.41581899499999997,-7.272721175
919,1715729354500,5.083305,-0.7150582,-7.7702994,5.083305,-0.7150582,-7.7702994
920,1715729354510,4.9895618,-0.786643912,-7.89301788,4.9895618,-0.786643912,-7.89301788
921,1715729354520,4.8511108499999995,-0.82850878,-7.968438375,4.8511108499999995,-0.82850878,-7.968438375
922,1715729354530,3.9938066,-0.95687306,-8.228363,3.9938066,-0.95687306,-8.228363
923,1715729354540,3.5965965,-1.0378331,-8.316647,3.5965965,-1.0378331,-8.316647
924,1715729354550,3.008704,-1.3029506,-8.458326,3.008704,-1.3029506,-8.458326
925,1715729354560,2.6679528,-1.6257255,-8.546743,2.6679528,-1.6257255,-8.546743
926,1715729354570,2.5294685,-1.9654114,-8.582962,2.5294685,-1.9654114,-8.582962
927,1715729354580,2.519525966666667,-2.2920035333333333,-8.607818666666667,2.519525966666667,-2.2920035333333333,-8.607818666666667
928,1715729354590,2.5451810750000003,-2.5647221,-8.626105875,2.5451810750000003,-2.5647221,-8.626105875
929,1715729354600,2.8843345,-3.307344125,-8.64501425,2.8843345,-3.307344125,-8.64501425
930,1715729354610,2.9554408,-3.403118,-8.63303,2.9554408,-3.403118,-8.63303
931,1715729354620,3.10841256,-3.9155895000000003,-8.445969199999999,3.10841256,-3.9155895000000003,-8.445969199999999
932,1715729354630,3.0640976,-4.1294947,-8.302798,3.0640976,-4.1294947,-8.302798
933,1715729354640,2.99538815,-4.218976675,-8.2230025,2.99538815,-4.218976675,-8.2230025
934,1715729354650,2.4570305,-4.381829,-7.834215,2.4570305,-4.381829,-7.834215
935,1715729354660,2.2430458,-4.3073936,-7.715039,2.2430458,-4.3073936,-7.715039
936,1715729354670,2.2430458,-4.3073936,-7.715039,2.2430458,-4.3073936,-7.715039
937,1715729354680,1.1109368,-3.0911288,-7.104776,1.1109368,-3.0911288,-7.104776
938,1715729354690,1.1109368,-3.0911288,-7.104776,1.1109368,-3.0911288,-7.104776
939,1715729354700,0.5013618833333333,-1.5617652,-6.504433083333333,0.5013618833333333,-1.5617652,-6.504433083333333
940,1715729354710,0.1874864,-0.74914664,-5.875728,0.1874864,-0.74914664,-5.875728
941,1715729354720,0.037550544,-0.44757050947999993,-5.43268492,0.037550544,-0.44757050947999993,-5.43268492
942,1715729354730,-0.3407512,0.3733749,-3.8799565,-0.3407512,0.3733749,-3.8799565
943,1715729354740,-0.3407512,0.3733749,-3.8799565,-0.3407512,0.3733749,-3.8799565
944,1715729354750,-0.07443529,0.7450188,-2.8181549999999995,-0.07443529,0.7450188,-2.8181549999999995
945,1715729354760,-0.006258424,0.7897598,-2.705237,-0.006258424,0.7897598,-2.705237
946,1715729354770,-0.006258424000000001,0.7897598,-2.705237,-0.006258424000000001,0.7897598,-2.705237
947,1715729354780,0.16618113,1.0177263,-0.77963984,0.16618113,1.0177263,-0.77963984
948,1715729354790,0.03472093750000001,1.22611845,-0.02669819499999998,0.03472093750000001,1.22611845,-0.02669819499999998
949,1715729354800,-0.1916143,1.6470307,1.2289147,-0.1916143,1.6470307,1.2289147
950,1715729354810,-0.27683538,1.9133466,1.7017586,-0.27683538,1.9133466,1.7017586
951,1715729354820,-0.6261087,2.820685,3.1501176,-0.6261087,2.820685,3.1501176
952,1715729354830,-1.0169274,3.3819458,4.1959405,-1.0169274,3.3819458,4.1959405
953,1715729354840,-1.0169274,3.3819458,4.1959405,-1.0169274,3.3819458,4.1959405
954,1715729354850,-1.9318556,4.065712,6.155626,-1.9318556,4.065712,6.155626
955,1715729354860,-2.0254924,4.09042584,6.325961599999999,-2.0254924,4.09042584,6.325961599999999
956,1715729354870,-2.8562381,3.9762297,7.557113599999999,-2.8562381,3.9762297,7.557113599999999
957,1715729354880,-3.2406652,3.6599796,7.9415402,-3.2406652,3.6599796,7.9415402
958,1715729354890,-3.3305734,3.52746084,8.00673452,-3.3305734,3.52746084,8.00673452
959,1715729354900,-3.77849,2.5268054,8.249402,-3.77849,2.5268054,8.249402
960,1715729354910,-3.8577457600000002,2.16301772,8.296273199999998,-3.8577457600000002,2.16301772,8.296273199999998
961,1715729354920,-3.8892775,0.3382212,8.575239,-3.8892775,0.3382212,8.575239
962,1715729354930,-3.5962235,-0.65865252,8.771247800000001,-3.5962235,-0.65865252,8.771247800000001
963,1715729354940,-3.2475627599999997,-1.37685324,8.937775,-3.2475627599999997,-1.37685324,8.937775
964,1715729354950,-2.2353225,-2.5202806,9.315464,-2.2353225,-2.5202806,9.315464
965,1715729354960,-2.0724171,-2.61871096,9.3806582,-2.0724171,-2.61871096,9.3806582
966,1715729354970,-1.8482657,-2.6670207,9.46163825,-1.8482657,-2.6670207,9.46163825
967,1715729354980,-1.529186,-2.3487732,9.539037,-1.529186,-2.3487732,9.539037
968,1715729354990,-1.6429561400000001,-2.1072513,9.488623200000001,-1.6429561400000001,-2.1072513,9.488623200000001
969,1715729355000,-2.4132216,-0.7736477,9.001211,-2.4132216,-0.7736477,9.001211
970,1715729355010,-3.28174445,0.3626556875,8.377932,-3.28174445,0.3626556875,8.377932
971,1715729355020,-3.8456018,1.0815089,8.003325,-3.8456018,1.0815089,8.003325
972,1715729355030,-4.59861,2.0134814,7.583745,-4.59861,2.0134814,7.583745
973,1715729355040,-4.87231615,2.33718835,7.435207350000001,-4.87231615,2.33718835,7.435207350000001
974,1715729355050,-5.7413716,3.3691626000000006,6.9361977999999995,-5.7413716,3.3691626000000006,6.9361977999999995
975,1715729355060,-6.13219,3.8260276000000006,6.657231999999999,-6.13219,3.8260276000000006,6.657231999999999
976,1715729355070,-6.0776488,3.73324312,6.5634888,-6.0776488,3.73324312,6.5634888
977,1715729355080,-5.752024,3.4053814000000004,6.480397999999999,-5.752024,3.4053814000000004,6.480397999999999
978,1715729355090,-5.452099039999999,3.12250072,6.4390658400000005,-5.452099039999999,3.12250072,6.4390658400000005
979,1715729355100,-3.9223008,1.6203991,6.1492343,-3.9223008,1.6203991,6.1492343
980,1715729355110,-2.56760496,0.21382502800000003,5.84243838,-2.56760496,0.21382502800000003,5.84243838
981,1715729355120,-1.438172475,-1.0364348975,5.562107575,-1.438172475,-1.0364348975,5.562107575
982,1715729355130,-0.046738442,-2.7194848,5.049083,-0.046738442,-2.7194848,5.049083
983,1715729355140,0.12260519350000001,-2.8677561750000002,4.777773750000001,0.12260519350000001,-2.8677561750000002,4.777773750000001
984,1715729355150,0.6306361,-3.3125702999999995,3.963846,0.6306361,-3.3125702999999995,3.963846
985,1715729355160,0.54594763,-2.97871005,3.799262775,0.54594763,-2.97871005,3.799262775
986,1715729355170,-0.1330248,-0.5894903,3.0798104,-0.1330248,-0.5894903,3.0798104
987,1715729355180,-0.41958073,1.029311,2.5217454,-0.41958073,1.029311,2.5217454
988,1715729355190,-0.41489357,1.1630814800000002,2.4003585999999997,-0.41489357,1.1630814800000002,2.4003585999999997
989,1715729355200,0.2897517,1.6001591999999998,0.4833634,0.2897517,1.6001591999999998,0.4833634
990,1715729355210,0.56706648,1.40082168,0.08460857199999999,0.56706648,1.40082168,0.08460857199999999
991,1715729355220,1.5139395000000002,0.81053245,-1.11146944,1.5139395000000002,0.81053245,-1.11146944
992,1715729355230,2.74965856,0.29433233999999997,-2.5742363399999997,2.74965856,0.29433233999999997,-2.5742363399999997
993,1715729355240,2.8680892,0.2796317,-2.7073677000000003,2.8680892,0.2796317,-2.7073677000000003
994,1715729355250,3.3020066333333333,1.0723210466666666,-3.6704991000000002,3.3020066333333333,1.0723210466666666,-3.6704991000000002
995,1715729355260,3.2279352799999996,1.4430593999999999,-3.9644584600000004,3.2279352799999996,1.4430593999999999,-3.9644584600000004
996,1715729355270,2.8510450000000005,1.7855151000000002,-4.6818337,2.8510450000000005,1.7855151000000002,-4.6818337
997,1715729355280,2.8680892,1.5863107,-5.158939,2.8680892,1.5863107,-5.158939
998,1715729355290,2.923837966666667,1.5046849,-5.272567,2.923837966666667,1.5046849,-5.272567
999,1715729355300,3.318063225,1.0706898625,-5.8728317500000005,3.318063225,1.0706898625,-5.8728317500000005
1000,1715729355310,3.4960355,0.95359739,-6.0942402,3.4960355,0.95359739,-6.0942402
1001,1715729355320,3.62770206,0.9493363300000001,-6.35837236,3.62770206,0.9493363300000001,-6.35837236
1002,1715729355330,3.7073839,1.0314416,-7.044056,3.7073839,1.0314416,-7.044056
1003,1715729355340,3.68480034,1.028086,-7.1731128,3.68480034,1.028086,-7.1731128
1004,1715729355350,3.5720954,0.90054727,-7.93435,3.5720954,0.90054727,-7.93435
1005,1715729355360,3.55931216,0.852610408,-8.067295,3.55931216,0.852610408,-8.067295
1006,1715729355370,3.4645038,0.53729236,-8.7107935,3.4645038,0.53729236,-8.7107935
1007,1715729355380,3.444086216666667,0.49479276,-8.781811416666667,3.444086216666667,0.49479276,-8.781811416666667
1008,1715729355390,3.4400026999999995,0.48629284,-8.796015,3.4400026999999995,0.48629284,-8.796015
1009,1715729355400,3.4400026999999995,0.48629284,-8.796015,3.4400026999999995,0.48629284,-8.796015
1010,1715729355410,3.39130015,0.42077913,-8.8867955,3.39130015,0.42077913,-8.8867955
1011,1715729355420,2.802442166666667,0.22104220666666666,-9.078177,2.802442166666667,0.22104220666666666,-9.078177
1012,1715729355430,2.5241421500000003,0.25939169500000003,-8.787959,2.5241421500000003,0.25939169500000003,-8.787959
1013,1715729355440,2.4551663500000003,0.2372874825,-8.642617000000001,2.4551663500000003,0.2372874825,-8.642617000000001
1014,1715729355450,2.5582306,-0.11118689,-8.417847,2.5582306,-0.11118689,-8.417847
1015,1715729355460,2.69458428,-0.324239618,-8.3573398,2.69458428,-0.324239618,-8.3573398
1016,1715729355470,2.90883548,-0.6644049200000001,-8.2834904,2.90883548,-0.6644049200000001,-8.2834904
1017,1715729355480,3.1919293,-1.2326432,-8.120771,3.1919293,-1.2326432,-8.120771
1018,1715729355490,3.2290004600000004,-1.3425784,-8.05557684,3.2290004600000004,-1.3425784,-8.05557684
1019,1715729355500,3.3931309999999995,-1.8439714000000003,-7.477485,3.3931309999999995,-1.8439714000000003,-7.477485
1020,1715729355510,3.39898995,-1.858885075,-7.4117049999999995,3.39898995,-1.858885075,-7.4117049999999995
1021,1715729355520,3.5156363999999996,-1.680986,-6.341115,3.5156363999999996,-1.680986,-6.341115
1022,1715729355530,3.486874,-1.2017505,-5.712743,3.486874,-1.2017505,-5.712743
1023,1715729355540,3.486874,-1.2017505,-5.712743,3.486874,-1.2017505,-5.712743
1024,1715729355550,2.8747471399999998,-0.05163864800000002,-4.73515,2.8747471399999998,-0.05163864800000002,-4.73515
1025,1715729355560,1.752025775,1.26656515,-3.7079497,1.752025775,1.26656515,-3.7079497
1026,1715729355570,0.5411539,2.4799337,-2.684997,0.5411539,2.4799337,-2.684997
1027,1715729355580,-0.15859112,3.1901981999999998,-1.8979003,-0.15859112,3.1901981999999998,-1.8979003
1028,1715729355590,-0.23493501333333333,3.3052466666666667,-1.7548442666666668,-0.23493501333333333,3.3052466666666667,-1.7548442666666668
1029,1715729355600,-0.264052232,3.52085616,-1.13562428,-0.264052232,3.52085616,-1.13562428
1030,1715729355610,-0.15901722999999998,3.45161406,-1.0131457000000001,-0.15901722999999998,3.45161406,-1.0131457000000001
1031,1715729355620,0.6635261,2.5790033,-0.6775077,0.6635261,2.5790033,-0.6775077
1032,1715729355630,0.7290398299999999,2.4943148749999997,-0.6343644975,0.7290398299999999,2.4943148749999997,-0.6343644975
1033,1715729355640,0.781770372,2.3561768,-0.4823780008,0.781770372,2.3561768,-0.4823780008
1034,1715729355650,0.71785456,1.6598139,0.9455546,0.71785456,1.6598139,0.9455546
1035,1715729355660,0.56079474,1.5661372500000001,1.35401665,0.56079474,1.5661372500000001,1.35401665
1036,1715729355670,-0.56645393,1.1582079,3.4132377999999997,-0.56645393,1.1582079,3.4132377999999997
1037,1715729355680,-0.6090644725000001,1.1467563250000001,3.4760551,-0.6090644725000001,1.1467563250000001,3.4760551
1038,1715729355690,-0.7368961,1.1124016,3.664507,-0.7368961,1.1124016,3.664507
1039,1715729355700,-1.476522025,0.86962132,4.5950815,-1.476522025,0.86962132,4.5950815
1040,1715729355710,-2.3178805000000002,0.5373589400000001,5.32918095,-2.3178805000000002,0.5373589400000001,5.32918095
1041,1715729355720,-3.5645052999999995,-0.3253049,5.9020934,-3.5645052999999995,-0.3253049,5.9020934
1042,1715729355730,-3.9414754,-0.9803089000000001,6.021403,-3.9414754,-0.9803089000000001,6.021403
1043,1715729355740,-4.00059755,-1.1791803,6.045904,-4.00059755,-1.1791803,6.045904
1044,1715729355750,-4.240681,-2.43719,6.2513666,-4.240681,-2.43719,6.2513666
1045,1715729355760,-4.1726375,-3.4308147000000004,6.564554,-4.1726375,-3.4308147000000004,6.564554
1046,1715729355770,-3.790208,-4.6268396,7.169491,-3.790208,-4.6268396,7.169491
1047,1715729355780,-3.2715578,-5.2413635,7.6583133,-3.2715578,-5.2413635,7.6583133
1048,1715729355790,-3.13071,-5.2903323,7.740038975,-3.13071,-5.2903323,7.740038975
1049,1715729355800,-2.2374532,-5.1401634,8.053393,-2.2374532,-5.1401634,8.053393
1050,1715729355810,-2.15313752,-4.9476169599999995,8.02015684,-2.15313752,-4.9476169599999995,8.02015684
1051,1715729355820,-2.0042934,-3.6726296,7.635943,-2.0042934,-3.6726296,7.635943
1052,1715729355830,-2.0285015399999997,-3.54351962,7.584810160000001,-2.0285015399999997,-3.54351962,7.584810160000001
1053,1715729355840,-2.17670636,-3.153713,7.42355582,-2.17670636,-3.153713,7.42355582
1054,1715729355850,-3.3748884000000006,-1.19962,6.638057000000001,-3.3748884000000006,-1.19962,6.638057000000001
1055,1715729355860,-3.8042960800000003,-0.80685728,6.5298262,-3.8042960800000003,-0.80685728,6.5298262
1056,1715729355870,-4.562391,-0.16018902,6.427135,-4.562391,-0.16018902,6.427135
1057,1715729355880,-4.7285724,0.05592634,6.428200200000001,-4.7285724,0.05592634,6.428200200000001
1058,1715729355890,-4.69810584,0.078722982,6.435017960000001,-4.69810584,0.078722982,6.435017960000001
1059,1715729355900,-4.1991363,0.17843166,6.4697456,-4.1991363,0.17843166,6.4697456
1060,1715729355910,-4.1397811,0.162452705,6.46575095,-4.1397811,0.162452705,6.46575095
1061,1715729355920,-3.426021,0.020772642,6.44844,-3.426021,0.020772642,6.44844
1062,1715729355930,-3.2332084,-0.06325003,6.4558973,-3.2332084,-0.06325003,6.4558973
1063,1715729355940,-3.2332084,-0.06325003,6.4558973,-3.2332084,-0.06325003,6.4558973
1064,1715729355950,-1.9787272,-1.4936328,6.4899855,-1.9787272,-1.4936328,6.4899855
1065,1715729355960,-1.9787272000000002,-1.4936328,6.4899855,-1.9787272000000002,-1.4936328,6.4899855
1066,1715729355970,0.58269924,-2.8642275,6.36535,0.58269924,-2.8642275,6.36535
1067,1715729355980,0.7441532066666667,-2.81451525,6.373339166666667,0.7441532066666667,-2.81451525,6.373339166666667
1068,1715729355990,0.776444,-2.8045728,6.374937,0.776444,-2.8045728,6.374937
1069,1715729356000,-0.13385703249999997,-0.20922442750000003,6.0141786250000004,-0.13385703249999997,-0.20922442750000003,6.0141786250000004
1070,1715729356010,-0.5239321533333333,0.3452785866666666,5.7466088,-0.5239321533333333,0.3452785866666666,5.7466088
1071,1715729356020,-1.0640386400000001,1.2933099399999999,4.304650560000001,-1.0640386400000001,1.2933099399999999,4.304650560000001
1072,1715729356030,-1.0137315,1.4330459,3.7262921,-1.0137315,1.4330459,3.7262921
1073,1715729356040,0.69974506,0.8973514399999999,2.0009646,0.69974506,0.8973514399999999,2.0009646
1074,1715729356050,1.4932333,0.79828197,1.347159,1.4932333,0.79828197,1.347159
1075,1715729356060,1.694501525,0.8376967175,1.12162272,1.694501525,0.8376967175,1.12162272
1076,1715729356070,2.947984,1.4564817,-0.7424887400000001,2.947984,1.4564817,-0.7424887400000001
1077,1715729356080,3.1081995200000003,1.5714237,-1.1625222279999998,3.1081995200000003,1.5714237,-1.1625222279999998
1078,1715729356090,3.6828828000000002,1.5289197,-2.6722138,3.6828828000000002,1.5289197,-2.6722138
1079,1715729356100,4.13530016,0.9640103400000001,-3.72437476,4.13530016,0.9640103400000001,-3.72437476
1080,1715729356110,4.3416683,0.603818064,-4.26177368,4.3416683,0.603818064,-4.26177368
1081,1715729356120,4.5635896,-0.35619754,-5.642435,4.5635896,-0.35619754,-5.642435
1082,1715729356130,4.338419325,-0.5037365275,-6.406595475,4.338419325,-0.5037365275,-6.406595475
1083,1715729356140,4.1514654,-0.451006,-6.8043714,4.1514654,-0.451006,-6.8043714
1084,1715729356150,3.93756068,-0.25925854400000004,-7.14685372,3.93756068,-0.25925854400000004,-7.14685372
1085,1715729356160,3.8335177500000004,-0.15170020425,-7.2915963999999995,3.8335177500000004,-0.15170020425,-7.2915963999999995
1086,1715729356170,3.3441288,0.46498758,-7.7139735,3.3441288,0.46498758,-7.7139735
1087,1715729356180,3.2803462,0.5554018,-7.743801,3.2803462,0.5554018,-7.743801
1088,1715729356190,2.908569,0.9410273,-7.764973,2.908569,0.9410273,-7.764973
1089,1715729356200,2.7135194,0.92568746,-7.6764498,2.7135194,0.92568746,-7.6764498
1090,1715729356210,2.644517,0.8893619749999999,-7.63834,2.644517,0.8893619749999999,-7.63834
1091,1715729356220,2.588058,0.616721085,-7.5547165,2.588058,0.616721085,-7.5547165
1092,1715729356230,2.6818013,0.07936214,-7.4785504000000005,2.6818013,0.07936214,-7.4785504000000005
1093,1715729356240,3.0268135,-0.637294,-7.4785504,3.0268135,-0.637294,-7.4785504
1094,1715729356250,3.3261526,-1.0570078,-7.575489,3.3261526,-1.0570078,-7.575489
1095,1715729356260,3.37534116,-1.1070485600000002,-7.595516000000001,3.37534116,-1.1070485600000002,-7.595516000000001
1096,1715729356270,3.83532188,-1.51259448,-7.7769304,3.83532188,-1.51259448,-7.7769304
1097,1715729356280,3.9667488200000003,-1.6047930799999999,-7.8248406,3.9667488200000003,-1.6047930799999999,-7.8248406
1098,1715729356290,4.0651793,-1.6660724000000002,-7.858715999999999,4.0651793,-1.6660724000000002,-7.858715999999999
1099,1715729356300,4.4264368,-2.047137125,-7.97749295,4.4264368,-2.047137125,-7.97749295
1100,1715729356310,4.40297434,-2.09406862,-7.97759948,4.40297434,-2.09406862,-7.97759948
1101,1715729356320,3.967175,-3.0613015,-7.9940047,3.967175,-3.0613015,-7.9940047
1102,1715729356330,3.8720202200000005,-3.15653608,-7.981221639999999,3.8720202200000005,-3.15653608,-7.981221639999999
1103,1715729356340,3.72528012,-3.2871107800000003,-7.94500268,3.72528012,-3.2871107800000003,-7.94500268
1104,1715729356350,3.2174957,-3.5501242,-7.6660366,3.2174957,-3.5501242,-7.6660366
1105,1715729356360,3.151183025,-3.52722105,-7.6061155750000005,3.151183025,-3.52722105,-7.6061155750000005
1106,1715729356370,2.1173446,-2.8802065999999997,-6.793719,2.1173446,-2.8802065999999997,-6.793719
1107,1715729356380,1.625326,-2.480866,-6.446576,1.625326,-2.480866,-6.446576
1108,1715729356390,-0.025433169999999998,-1.2891022,-5.180244,-0.025433169999999998,-1.2891022,-5.180244
1109,1715729356400,-0.752262554,-0.6032854320000001,-4.46033888,-0.752262554,-0.6032854320000001,-4.46033888
1110,1715729356410,-1.1634676,-0.10645978,-3.956589,-1.1634676,-0.10645978,-3.956589
1111,1715729356420,-1.6847144,1.1049447,-2.7744792,-1.6847144,1.1049447,-2.7744792
1112,1715729356430,-1.6495607,1.3488901,-2.5379906,-1.6495607,1.3488901,-2.5379906
1113,1715729356440,-1.4749907,1.7077508,-1.9543592999999997,-1.4749907,1.7077508,-1.9543592999999997
1114,1715729356450,-1.4781865,1.5692666,-1.411208,-1.4781865,1.5692666,-1.411208
1115,1715729356460,-1.428918,1.3667000125,-0.8308057625,-1.428918,1.3667000125,-0.8308057625
1116,1715729356470,-1.2992221,0.9442230500000001,0.36085805,-1.2992221,0.9442230500000001,0.36085805
1117,1715729356480,-1.1980221,0.7556714,0.95088094,-1.1980221,0.7556714,0.95088094
1118,1715729356490,-0.86792356,0.3233075,2.7688866,-0.86792356,0.3233075,2.7688866
1119,1715729356500,-0.792502864,0.25683506,3.4302555,-0.792502864,0.25683506,3.4302555
1120,1715729356510,-0.7446192599999999,0.21891168,4.061517325,-0.7446192599999999,0.21891168,4.061517325
1121,1715729356520,-1.011601,0.41492018,5.8019586,-1.011601,0.41492018,5.8019586
1122,1715729356530,-1.1064094500000001,0.440486505,6.019804949999999,-1.1064094500000001,0.440486505,6.019804949999999
1123,1715729356540,-1.9947062000000002,0.51705235,7.354713399999999,-1.9947062000000002,0.51705235,7.354713399999999
1124,1715729356550,-2.405265425,0.48679221250000004,7.789240975,-2.405265425,0.48679221250000004,7.789240975
1125,1715729356560,-2.6222463,0.4490086425,8.031821375,-2.6222463,0.4490086425,8.031821375
1126,1715729356570,-3.1373346000000004,0.009054741,8.864991,-3.1373346000000004,0.009054741,8.864991
1127,1715729356580,-3.139731375,-0.15622757475000001,9.00151125,-3.139731375,-0.15622757475000001,9.00151125
1128,1715729356590,-2.7848653999999997,-0.9238499,9.499621,-2.7848653999999997,-0.9238499,9.499621
1129,1715729356600,-2.1885309200000003,-1.5346720600000001,9.7910778,-2.1885309200000003,-1.5346720600000001,9.7910778
1130,1715729356610,-1.7912408499999999,-1.83172085,9.892704,-1.7912408499999999,-1.83172085,9.892704
1131,1715729356620,-1.0669947,-2.0335884,9.834114,-1.0669947,-2.0335884,9.834114
1132,1715729356630,-0.9894434999999999,-1.99012552,9.7608244,-0.9894434999999999,-1.99012552,9.7608244
1133,1715729356640,-1.214001,-1.6555529,9.385772,-1.214001,-1.6555529,9.385772
1134,1715729356650,-1.4991254999999999,-1.403884325,9.10134575,-1.4991254999999999,-1.403884325,9.10134575
1135,1715729356660,-1.67320958,-1.2490748699999998,8.9098378,-1.67320958,-1.2490748699999998,8.9098378
1136,1715729356670,-2.301369,-0.6362287,7.9958687,-2.301369,-0.6362287,7.9958687
1137,1715729356680,-2.40959972,-0.477824004,7.7982625400000005,-2.40959972,-0.477824004,7.7982625400000005
1138,1715729356690,-2.7297114799999997,0.228951802,7.369733800000001,-2.7297114799999997,0.228951802,7.369733800000001
1139,1715729356700,-3.07387148,0.9980454919999999,7.28943944,-3.07387148,0.9980454919999999,7.28943944
1140,1715729356710,-3.23043862,1.2990091,7.320305379999999,-3.23043862,1.2990091,7.320305379999999
1141,1715729356720,-3.9419283,2.36576406,7.471040019999999,-3.9419283,2.36576406,7.471040019999999
1142,1715729356730,-4.223637,2.6779397,7.4282165,-4.223637,2.6779397,7.4282165
1143,1715729356740,-4.359991,2.873948,6.9500465,-4.359991,2.873948,6.9500465
1144,1715729356750,-4.1609197,2.7205503,6.510226,-4.1609197,2.7205503,6.510226
1145,1715729356760,-4.1609197,2.7205503000000006,6.510226,-4.1609197,2.7205503000000006,6.510226
1146,1715729356770,-3.487506775,1.7597157,6.11724325,-3.487506775,1.7597157,6.11724325
1147,1715729356780,-2.9537897200000005,1.038152668,5.97517036,-2.9537897200000005,1.038152668,5.97517036
1148,1715729356790,-1.3791169,-0.78962666,5.9755964,-1.3791169,-0.78962666,5.9755964
1149,1715729356800,-0.89881617,-1.21992663,5.8169387,-0.89881617,-1.21992663,5.8169387
1150,1715729356810,-0.3394728806,-1.7290294800000001,5.55519012,-0.3394728806,-1.7290294800000001,5.55519012
1151,1715729356820,-0.14367743,-2.0996346,4.0075216,-0.14367743,-2.0996346,4.0075216
1152,1715729356830,-0.449514606,-1.7715333999999998,3.48863184,-0.449514606,-1.7715333999999998,3.48863184
1153,1715729356840,-1.0755168,-0.5713808,2.4876568,-1.0755168,-0.5713808,2.4876568
1154,1715729356850,-0.96472937,0.478836,1.9275945000000003,-0.96472937,0.478836,1.9275945000000003
1155,1715729356860,-0.68416557,0.8174567,1.70974815,-0.68416557,0.8174567,1.70974815
1156,1715729356870,1.1885679,1.5895065,0.4972118,1.1885679,1.5895065,0.4972118
1157,1715729356880,1.3688305,1.5567829249999998,0.36195660825,1.3688305,1.5567829249999998,0.36195660825
1158,1715729356890,3.8703692000000003,0.25513065,-2.0470374,3.8703692000000003,0.25513065,-2.0470374
1159,1715729356900,4.60646632,-0.43920819,-3.1487330800000004,4.60646632,-0.43920819,-3.1487330800000004
1160,1715729356910,4.9520778750000005,-0.9733180749999999,-4.11291635,4.9520778750000005,-0.9733180749999999,-4.11291635
1161,1715729356920,5.0641303,-1.5330476,-5.302749,5.0641303,-1.5330476,-5.302749
1162,1715729356930,4.916657900000001,-1.53943915,-5.440700700000001,4.916657900000001,-1.53943915,-5.440700700000001
1163,1715729356940,3.6498597,-1.244361,-6.097303,3.6498597,-1.244361,-6.097303
1164,1715729356950,2.6189506,-0.76938665,-6.475338,2.6189506,-0.76938665,-6.475338
1165,1715729356960,2.2721540399999998,-0.570874774,-6.55161096,2.2721540399999998,-0.570874774,-6.55161096
1166,1715729356970,1.2289147999999999,0.0310258032,-6.8883408799999994,1.2289147999999999,0.0310258032,-6.8883408799999994
1167,1715729356980,1.0615796333333332,0.11877689266666668,-6.981205233333333,1.0615796333333332,0.11877689266666668,-6.981205233333333
1168,1715729356990,1.0843053,-0.10053425,-7.380546,1.0843053,-0.10053425,-7.380546
1169,1715729357000,1.2546142,-0.33595753,-7.533944000000001,1.2546142,-0.33595753,-7.533944000000001
1170,1715729357010,1.600758325,-0.7457178475,-7.69236875,1.600758325,-0.7457178475,-7.69236875
1171,1715729357020,2.6391907,-1.9749988,-8.167643,2.6391907,-1.9749988,-8.167643
1172,1715729357030,2.8292404,-2.19141385,-8.2243685,2.8292404,-2.19141385,-8.2243685
1173,1715729357040,3.3409330000000006,-2.8120296,-8.459392,3.3409330000000006,-2.8120296,-8.459392
1174,1715729357050,3.3483899,-2.970754,-8.5723095,3.3483899,-2.970754,-8.5723095
1175,1715729357060,3.30927475,-2.9830045,-8.581098125,3.30927475,-2.9830045,-8.581098125
1176,1715729357070,2.98910322,-2.9967464,-8.5716704,2.98910322,-2.9967464,-8.5716704
1177,1715729357080,2.648778175,-2.956905525,-8.49667625,2.648778175,-2.956905525,-8.49667625
1178,1715729357090,2.3867233,-2.905773,-8.451935,2.3867233,-2.905773,-8.451935
1179,1715729357100,2.0971045,-2.7598317,-8.415716,2.0971045,-2.7598317,-8.415716
1180,1715729357110,1.96501186,-2.69426478,-8.3973932,1.96501186,-2.69426478,-8.3973932
1181,1715729357120,1.5092123,-2.4787354,-8.2996025,1.5092123,-2.4787354,-8.2996025
1182,1715729357130,1.3508430333333334,-2.3956448,-8.227962833333335,1.3508430333333334,-2.3956448,-8.227962833333335
1183,1715729357140,0.9490167499999999,-2.0602198,-7.9279585,0.9490167499999999,-2.0602198,-7.9279585
1184,1715729357150,0.7679219,-1.8631461000000002,-7.703321,0.7679219,-1.8631461000000002,-7.703321
1185,1715729357160,0.7679219,-1.8631461,-7.703321,0.7679219,-1.8631461,-7.703321
1186,1715729357170,0.44954126999999994,-1.2241211,-7.1995845,0.44954126999999994,-1.2241211,-7.1995845
1187,1715729357180,0.3952128,-0.97498256,-7.031273,0.3952128,-0.97498256,-7.031273
1188,1715729357190,0.206021984,-0.300990248,-6.497042840000001,0.206021984,-0.300990248,-6.497042840000001
1189,1715729357200,-0.17137429,0.50853026,-5.8821197,-0.17137429,0.50853026,-5.8821197
1190,1715729357210,-0.24804663200000002,0.610156388,-5.81844356,-0.24804663200000002,0.610156388,-5.81844356
1191,1715729357220,-1.4472938,1.7269255,-5.057739,-1.4472938,1.7269255,-5.057739
1192,1715729357230,-1.769702525,1.873898625,-4.876743875,-1.769702525,1.873898625,-4.876743875
1193,1715729357240,-2.373807,2.1177442,-4.505133,-2.373807,2.1177442,-4.505133
1194,1715729357250,-2.0979035,1.9634141000000003,-4.0385475,-2.0979035,1.9634141000000003,-4.0385475
1195,1715729357260,-2.0979035,1.9634141000000003,-4.0385475,-2.0979035,1.9634141000000003,-4.0385475
1196,1715729357270,-0.8142608666666667,1.0623785666666665,-2.8017765000000003,-0.8142608666666667,1.0623785666666665,-2.8017765000000003
1197,1715729357280,0.37603807,-0.0037284228,-1.3920332,0.37603807,-0.0037284228,-1.3920332
1198,1715729357290,0.5319926500000001,-0.40176417912,-0.6316746799999999,0.5319926500000001,-0.40176417912,-0.6316746799999999
1199,1715729357300,0.4239749300000001,-0.67351294,0.82957405,0.4239749300000001,-0.67351294,0.82957405
1200,1715729357310,0.3284008075,-0.5568998599999999,1.0801107375,0.3284008075,-0.5568998599999999,1.0801107375
1201,1715729357320,-0.41958073,0.49255127000000004,2.9446549999999996,-0.41958073,0.49255127000000004,2.9446549999999996
1202,1715729357330,-0.970155575,1.129811925,4.1911798749999996,-0.970155575,1.129811925,4.1911798749999996
1203,1715729357340,-1.439837,1.5619428,5.29183,-1.439837,1.5619428,5.29183
1204,1715729357350,-1.8381124,1.8078855,6.383459,-1.8381124,1.8078855,6.383459
1205,1715729357360,-1.9217023,1.83531605,6.613256375000001,-1.9217023,1.83531605,6.613256375000001
1206,1715729357370,-2.3565496,1.90354628,7.727528600000001,-2.3565496,1.90354628,7.727528600000001
1207,1715729357380,-2.479268,1.894172,8.010782,-2.479268,1.894172,8.010782
1208,1715729357390,-3.0628994,1.4724606,9.07791,-3.0628994,1.4724606,9.07791
1209,1715729357400,-3.1409299333333336,1.3488900666666668,9.219945333333333,-3.1409299333333336,1.3488900666666668,9.219945333333333
1210,1715729357410,-3.197522025,1.0581396925,9.4304795,-3.197522025,1.0581396925,9.4304795
1211,1715729357420,-2.9723518,-0.49574706,10.080057,-2.9723518,-0.49574706,10.080057
1212,1715729357430,-2.8913917500000004,-0.65363912,10.08325275,-2.8913917500000004,-0.65363912,10.08325275
1213,1715729357440,-2.0446403,-2.0016303,9.845833,-2.0446403,-2.0016303,9.845833
1214,1715729357450,-1.594167,-2.4062974,9.518796,-1.594167,-2.4062974,9.518796
1215,1715729357460,-1.2960263,-2.4904532,9.21959,-1.2960263,-2.4904532,9.21959
1216,1715729357470,-1.2201795800000002,-2.3523951199999997,9.1488572,-1.2201795800000002,-2.3523951199999997,9.1488572
1217,1715729357480,-1.24468066,-2.0440012800000003,9.172932,-1.24468066,-2.0440012800000003,9.172932
1218,1715729357490,-1.9190724999999997,-0.23475747,9.225982,-1.9190724999999997,-0.23475747,9.225982
1219,1715729357500,-2.2758026,0.41385493,9.07791,-2.2758026,0.41385493,9.07791
1220,1715729357510,-3.0736407666666667,1.6625436550000001,8.494900833333334,-3.0736407666666667,1.6625436550000001,8.494900833333334
1221,1715729357520,-4.14068,2.9165587,7.497458499999999,-4.14068,2.9165587,7.497458499999999
1222,1715729357530,-4.221340424999999,2.97088715,7.419727625,-4.221340424999999,2.97088715,7.419727625
1223,1715729357540,-5.0011463,3.19659,6.680668,-5.0011463,3.19659,6.680668
1224,1715729357550,-4.951079,2.5086958,6.661493,-4.951079,2.5086958,6.661493
1225,1715729357560,-4.951079,2.5086958,6.661493,-4.951079,2.5086958,6.661493
1226,1715729357570,-3.7774248,1.2775174,6.997983,-3.7774248,1.2775174,6.997983
1227,1715729357580,-3.23354115,0.960435025,6.99478725,-3.23354115,0.960435025,6.99478725
1228,1715729357590,-2.091512,0.12836426,6.5709457,-2.091512,0.12836426,6.5709457
1229,1715729357600,-1.8381124,-0.43289652,6.127929,-1.8381124,-0.43289652,6.127929
1230,1715729357610,-1.8018935,-1.5213296000000003,5.382377600000001,-1.8018935,-1.5213296000000003,5.382377600000001
1231,1715729357620,-1.7454345,-2.3146846,4.856271,-1.7454345,-2.3146846,4.856271
1232,1715729357630,-1.6934496199999998,-2.41524556,4.72806636,-1.6934496199999998,-2.41524556,4.72806636
1233,1715729357640,-1.2608727,-2.1624851,4.0266967,-1.2608727,-2.1624851,4.0266967
1234,1715729357650,-1.096822,-1.7811208,3.794469,-1.096822,-1.7811208,3.794469
1235,1715729357660,-1.0329328199999999,-1.489105404,3.64493266,-1.0329328199999999,-1.489105404,3.64493266
1236,1715729357670,-0.5994771,0.5032039,2.3588932,-0.5994771,0.5032039,2.3588932
1237,1715729357680,-0.54491563,0.5948165750000001,2.17756535,-0.54491563,0.5948165750000001,2.17756535
1238,1715729357690,0.2961433,1.0676605,0.08934899,0.2961433,1.0676605,0.08934899
1239,1715729357700,0.52616035,1.04401162,-0.30557086,0.52616035,1.04401162,-0.30557086
1240,1715729357710,0.9865007375,0.974216875,-1.0087047949999999,0.9865007375,0.974216875,-1.0087047949999999
1241,1715729357720,2.6253421,0.7002777,-3.2643673,2.6253421,0.7002777,-3.2643673
1242,1715729357730,2.8809256000000003,0.6798246299999999,-3.6113503000000002,2.8809256000000003,0.6798246299999999,-3.6113503000000002
1243,1715729357740,3.38887,0.57883763,-4.6445494,3.38887,0.57883763,-4.6445494
1244,1715729357750,3.3922787999999997,0.519182886,-4.86953308,3.3922787999999997,0.519182886,-4.86953308
1245,1715729357760,3.3503340600000002,0.43271011000000004,-5.07188,3.3503340600000002,0.43271011000000004,-5.07188
1246,1715729357770,3.0928597,-0.18362482,-6.0855846,3.0928597,-0.18362482,-6.0855846
1247,1715729357780,3.0928597,-0.18362482,-6.0855846,3.0928597,-0.18362482,-6.0855846
1248,1715729357790,3.34948845,-0.679138865,-6.6973458500000005,3.34948845,-0.679138865,-6.6973458500000005
1249,1715729357800,3.45235968,-0.790265826,-6.848899640000001,3.45235968,-0.790265826,-6.848899640000001
1250,1715729357810,3.7776911,-1.1847063,-7.406112,3.7776911,-1.1847063,-7.406112
1251,1715729357820,3.809649,-1.4425001,-7.662841,3.809649,-1.4425001,-7.662841
1252,1715729357830,3.803257425,-1.4970948499999999,-7.707815,3.803257425,-1.4970948499999999,-7.707815
1253,1715729357840,3.7063186000000004,-1.9888473000000002,-8.034485,3.7063186000000004,-1.9888473000000002,-8.034485
1254,1715729357850,3.6487941999999998,-2.1369188,-8.113315,3.6487941999999998,-2.1369188,-8.113315
1255,1715729357860,3.3923852400000003,-2.3984410400000002,-8.2666062,3.3923852400000003,-2.3984410400000002,-8.2666062
1256,1715729357870,3.1216218,-2.4840617,-8.367779,3.1216218,-2.4840617,-8.367779
1257,1715729357880,3.05432378,-2.4614781199999998,-8.3858884,3.05432378,-2.4614781199999998,-8.3858884
1258,1715729357890,2.37947946,-2.0610454799999998,-8.505198,2.37947946,-2.0610454799999998,-8.505198
1259,1715729357900,2.1748688,-1.8737987,-8.515851,2.1748688,-1.8737987,-8.515851
1260,1715729357910,1.70029384,-1.32593358,-8.4289254,1.70029384,-1.32593358,-8.4289254
1261,1715729357920,1.3068122,-0.94515514,-8.298537,1.3068122,-0.94515514,-8.298537
1262,1715729357930,1.3068122,-0.94515514,-8.298537,1.3068122,-0.94515514,-8.298537
1263,1715729357940,1.2673974,-1.1282474,-8.160186,1.2673974,-1.1282474,-8.160186
1264,1715729357950,1.3717933,-1.2475569,-8.118641,1.3717933,-1.2475569,-8.118641
1265,1715729357960,1.5262564,-1.1697927,-8.185752,1.5262564,-1.1697927,-8.185752
1266,1715729357970,1.51006448,-1.02928438,-8.2802416,1.51006448,-1.02928438,-8.2802416
1267,1715729357980,1.4806632,-0.933650328,-8.340082800000001,1.4806632,-0.933650328,-8.340082800000001
1268,1715729357990,1.2407658,-0.37537226,-8.630899,1.2407658,-0.37537226,-8.630899
1269,1715729358000,1.222389975,-0.1764342875,-8.590152625,1.222389975,-0.1764342875,-8.590152625
1270,1715729358010,1.4037511,0.5042692,-7.845933,1.4037511,0.5042692,-7.845933
