id,timestamp,acc_x,acc_y,acc_z,gyro_x,gyro_y,gyro_z
0,1715729270110,0.08586468500000004,-0.859712155,-2.2194323666666667,0.08586468500000004,-0.859712155,-2.2194323666666667
1,1715729270120,0.6244886266666666,-1.8467898666666667,-4.18670815,0.6244886266666666,-1.8467898666666667,-4.18670815
2,1715729270130,0.43592109857142863,-1.5801283571428573,-3.998961885714286,0.43592109857142863,-1.5801283571428573,-3.998961885714286
3,1715729270140,0.36378753,-1.3664669,-3.8301554,0.36378753,-1.3664669,-3.8301554
4,1715729270150,0.3382212,-1.1333073,-3.5425344,0.3382212,-1.1333073,-3.5425344
5,1715729270160,0.381719475,-0.98061955,-3.2701153166666668,0.381719475,-0.98061955,-3.2701153166666668
6,1715729270170,0.5377869514285715,-0.8530098500000001,-2.9869232,0.5377869514285715,-0.8530098500000001,-2.9869232
7,1715729270180,0.9244206,-0.6966824428571429,-2.5556054,0.9244206,-0.6966824428571429,-2.5556054
8,1715729270190,1.1571426,-0.6455498000000001,-2.320943,1.1571426,-0.6455498000000001,-2.320943
9,1715729270200,1.2543859714285712,-0.6566589657142857,-2.0585077714285718,1.2543859714285712,-0.6566589657142857,-2.0585077714285718
10,1715729270210,1.3286501,-0.6657898,-1.7959013,1.3286501,-0.6657898,-1.7959013
11,1715729270220,1.2364287285714286,-0.630179542857143,-1.6444436428571427,1.2364287285714286,-0.630179542857143,-1.6444436428571427
12,1715729270230,0.8018011428571429,-0.3475993128571429,-1.3846905142857142,0.8018011428571429,-0.3475993128571429,-1.3846905142857142
13,1715729270240,0.33198180657142856,0.011432564285714283,-1.2167212857142857,0.33198180657142856,0.011432564285714283,-1.2167212857142857
14,1715729270250,-0.04373287457142857,0.27818599,-1.0778755785714285,-0.04373287457142857,0.27818599,-1.0778755785714285
15,1715729270260,-0.39880806,0.49082023,-0.92904305,-0.39880806,0.49082023,-0.92904305
16,1715729270270,-0.7127945271428572,0.6099775685714286,-0.6752630214285714,-0.7127945271428572,0.6099775685714286,-0.6752630214285714
17,1715729270280,-0.88763094,0.65167505,-0.4700476,-0.88763094,0.65167505,-0.4700476
18,1715729270290,-0.8982835400000001,0.64315295,-0.06751108,-0.8982835400000001,0.64315295,-0.06751108
19,1715729270300,-0.6525500742857143,0.6189562285714285,0.5670626614285714,-0.6525500742857143,0.6189562285714285,0.5670626614285714
20,1715729270310,-0.47231126,0.5877592,0.95274514,-0.47231126,0.5877592,0.95274514
21,1715729270320,-0.3263701583333333,0.54940974,1.3323119133333334,-0.3263701583333333,0.54940974,1.3323119133333334
22,1715729270330,-0.09840373,0.51106024,1.9837872,-0.09840373,0.51106024,1.9837872
23,1715729270340,0.014381059,0.58456343,2.3703449,0.014381059,0.58456343,2.3703449
24,1715729270350,0.0525530065,0.6564687383333334,2.57352165,0.0525530065,0.6564687383333334,2.57352165
25,1715729270360,0.022903169,0.9125315,2.957172,0.022903169,0.9125315,2.957172
26,1715729270370,-0.07623293183333334,1.1033911833333334,3.1555550500000003,-0.07623293183333334,1.1033911833333334,3.1555550500000003
27,1715729270380,-0.26138908,1.3290496,3.4321463000000003,-0.26138908,1.3290496,3.4321463000000003
28,1715729270390,-0.43271898,1.4487807666666666,3.6220073833333335,-0.43271898,1.4487807666666666,3.6220073833333335
29,1715729270400,-0.550022256,1.52854684,3.7460528799999997,-0.550022256,1.52854684,3.7460528799999997
30,1715729270410,-0.875913,1.7699355,4.0711713,-0.875913,1.7699355,4.0711713
31,1715729270420,-0.9829720500000001,1.882587225,4.176532425,-0.9829720500000001,1.882587225,4.176532425
32,1715729270430,-1.1985548,2.0904467,4.3820953,-1.1985548,2.0904467,4.3820953
33,1715729270440,-1.4334454,2.132258375,4.561325575,-1.4334454,2.132258375,4.561325575
34,1715729270450,-1.6140076,2.1170783,4.6611943,-1.6140076,2.1170783,4.6611943
35,1715729270460,-1.79456984,2.1008862200000005,4.69943702,-1.79456984,2.1008862200000005,4.69943702
36,1715729270470,-2.002396025,2.0742014500000003,4.737760025,-2.002396025,2.0742014500000003,4.737760025
37,1715729270480,-2.2582257,2.0275962,4.802741,-2.2582257,2.0275962,4.802741
38,1715729270490,-2.5256069,1.9350514,4.950813,-2.5256069,1.9350514,4.950813
39,1715729270500,-2.5974789,1.8964356,5.0168593,-2.5974789,1.8964356,5.0168593
40,1715729270510,-2.88500025,1.673529225,5.349121525,-2.88500025,1.673529225,5.349121525
41,1715729270520,-2.876211825,1.5350782250000001,5.6132404000000005,-2.876211825,1.5350782250000001,5.6132404000000005
42,1715729270530,-2.7662234,1.347159,6.050964,-2.7662234,1.347159,6.050964
43,1715729270540,-2.6768744,1.2608727,6.228863,-2.6768744,1.2608727,6.228863
44,1715729270550,-2.421743675,0.941060555,6.7410881499999995,-2.421743675,0.941060555,6.7410881499999995
45,1715729270560,-2.3594258,0.8317046,6.9039736,-2.3594258,0.8317046,6.9039736
46,1715729270570,-2.35772138,0.82914797,6.923361419999999,-2.35772138,0.82914797,6.923361419999999
47,1715729270580,-2.515753175,0.9564736,6.931437375,-2.515753175,0.9564736,6.931437375
48,1715729270590,-2.68473064,1.0243841599999999,6.766261680000001,-2.68473064,1.0243841599999999,6.766261680000001
49,1715729270600,-2.9036424,1.0755168,6.491850000000001,-2.9036424,1.0755168,6.491850000000001
50,1715729270610,-2.970753975,1.0139978475,6.285821250000001,-2.970753975,1.0139978475,6.285821250000001
51,1715729270620,-2.97693254,0.941559918,6.0812174,-2.97693254,0.941559918,6.0812174
52,1715729270630,-2.8103253199999996,0.78014586,5.6890936000000005,-2.8103253199999996,0.78014586,5.6890936000000005
53,1715729270640,-2.5362597,0.70280766,5.5568147,-2.5362597,0.70280766,5.5568147
54,1715729270650,-1.583115,0.39814228,5.4992905,-1.583115,0.39814228,5.4992905
55,1715729270660,-0.580835,-0.03635212,5.4801154,-0.580835,-0.03635212,5.4801154
56,1715729270670,0.5706484249999999,-0.552572215,5.33074575,0.5706484249999999,-0.552572215,5.33074575
57,1715729270680,1.4948312,-0.98630095,5.109537,1.4948312,-0.98630095,5.109537
58,1715729270690,1.729621925,-1.0925610625,4.979308725,1.729621925,-1.0925610625,4.979308725
59,1715729270700,1.8845845,-0.93090725,4.295809,1.8845845,-0.93090725,4.295809
60,1715729270710,1.5321155,-0.70094347,3.9305565,1.5321155,-0.70094347,3.9305565
61,1715729270720,1.206744,-0.596547635,3.6770904,1.206744,-0.596547635,3.6770904
62,1715729270730,0.28815383,-0.5528718,2.861298,0.28815383,-0.5528718,2.861298
63,1715729270740,0.1081242635,-0.7531081,2.28835265,0.1081242635,-0.7531081,2.28835265
64,1715729270750,-0.025033696,-1.1024147,1.2382358,-0.025033696,-1.1024147,1.2382358
65,1715729270760,0.0857537248,-1.12371998,0.54815804,0.0857537248,-1.12371998,0.54815804
66,1715729270770,0.15313165,-1.029710465,-0.14837123249999998,0.15313165,-1.029710465,-0.14837123249999998
67,1715729270780,0.21358536,-0.82011986,-1.1367694,0.21358536,-0.82011986,-1.1367694
68,1715729270790,0.22828599600000002,-0.789440264,-1.36934308,0.22828599600000002,-0.789440264,-1.36934308
69,1715729270800,0.379553428,-0.7307442399999999,-2.6830795600000004,0.379553428,-0.7307442399999999,-2.6830795600000004
70,1715729270810,0.5443497159999999,-0.70413926,-3.4532918800000005,0.5443497159999999,-0.70413926,-3.4532918800000005
71,1715729270820,0.7098650550000001,-0.73659652,-4.2305615,0.7098650550000001,-0.73659652,-4.2305615
72,1715729270830,0.8366314,-0.8190546,-4.810997,0.8366314,-0.8190546,-4.810997
73,1715729270840,0.94206588,-0.9415599,-5.1515085,0.94206588,-0.9415599,-5.1515085
74,1715729270850,1.1632679,-1.20784245,-5.682382625000001,1.1632679,-1.20784245,-5.682382625000001
75,1715729270860,1.3030838,-1.3803153,-5.910083,1.3030838,-1.3803153,-5.910083
76,1715729270870,1.3995700599999998,-1.47384544,-6.042548340000001,1.3995700599999998,-1.47384544,-6.042548340000001
77,1715729270880,1.6502266,-1.7020249,-6.381861,1.6502266,-1.7020249,-6.381861
78,1715729270890,1.7279907,-1.767006,-6.4958444,1.7279907,-1.767006,-6.4958444
79,1715729270900,1.9357172,-1.9522288,-6.8419223,1.9357172,-1.9522288,-6.8419223
80,1715729270910,2.003894,-2.0395803,-6.996385,2.003894,-2.0395803,-6.996385
81,1715729270920,1.9527613599999998,-2.1967599399999997,-7.1497298,1.9527613599999998,-2.1967599399999997,-7.1497298
82,1715729270930,1.8760624,-2.4325294,-7.379747,1.8760624,-2.4325294,-7.379747
83,1715729270940,1.8050448166666666,-2.5053225666666665,-7.441887583333333,1.8050448166666666,-2.5053225666666665,-7.441887583333333
84,1715729270950,1.4969617,-2.7063022,-7.560841999999999,1.4969617,-2.7063022,-7.560841999999999
85,1715729270960,1.3254542,-2.8479824,-7.5565809999999995,1.3254542,-2.8479824,-7.5565809999999995
86,1715729270970,1.22428084,-2.91075304,-7.508217879999999,1.22428084,-2.91075304,-7.508217879999999
87,1715729270980,1.036901,-2.963963,-7.380812000000001,1.036901,-2.963963,-7.380812000000001
88,1715729270990,0.97298515,-2.943723,-7.3083744,0.97298515,-2.943723,-7.3083744
89,1715729271000,0.79295564,-2.7638266,-7.097585,0.79295564,-2.7638266,-7.097585
90,1715729271010,0.71945244,-2.7094982,-6.9718843,0.71945244,-2.7094982,-6.9718843
91,1715729271020,0.738840226,-2.6745575199999996,-6.84128292,0.738840226,-2.6745575199999996,-6.84128292
92,1715729271030,0.7759114,-2.6264076,-6.693850499999999,0.7759114,-2.6264076,-6.693850499999999
93,1715729271040,0.8057388,-2.588768133333333,-6.642007500000001,0.8057388,-2.588768133333333,-6.642007500000001
94,1715729271050,0.85047984,-2.3888538,-6.385057,0.85047984,-2.3888538,-6.385057
95,1715729271060,0.608665,-2.3867233,-6.2359204,0.608665,-2.3867233,-6.2359204
96,1715729271070,0.1422127,-2.438122125,-6.12703035,0.1422127,-2.438122125,-6.12703035
97,1715729271080,-0.5032039,-2.4474432,-5.996369,-0.5032039,-2.4474432,-5.996369
98,1715729271090,-0.8439551000000001,-2.3681476,-5.9404426,-0.8439551000000001,-2.3681476,-5.9404426
99,1715729271100,-2.304032,-1.5592797,-5.2050114,-2.304032,-1.5592797,-5.2050114
100,1715729271110,-2.37646992,-1.40673394,-5.03883028,-2.37646992,-1.40673394,-5.03883028
101,1715729271120,-2.37945272,-1.0983134754,-4.68822536,-2.37945272,-1.0983134754,-4.68822536
102,1715729271130,-1.9014956,0.52171284,-2.231594,-1.9014956,0.52171284,-2.231594
103,1715729271140,-1.6391212,0.640170168,-1.43744008,-1.6391212,0.640170168,-1.43744008
104,1715729271150,-1.1921632,0.8263783,0.349007,-1.1921632,0.8263783,0.349007
105,1715729271160,-1.094292,1.1841737,1.2883033,-1.094292,1.1841737,1.2883033
106,1715729271170,-1.09509095,1.3292825750000001,1.426754275,-1.09509095,1.3292825750000001,1.426754275
107,1715729271180,-1.2283821,2.3876553,2.2382522,-1.2283821,2.3876553,2.2382522
108,1715729271190,-1.4959231,2.68350564,2.87450744,-1.4959231,2.68350564,2.87450744
109,1715729271200,-1.793904,2.9819393,3.6217632,-1.793904,2.9819393,3.6217632
110,1715729271210,-1.8354492,3.0936587,4.449207,-1.8354492,3.0936587,4.449207
111,1715729271220,-1.74916285,3.08779985,4.79322035,-1.74916285,3.08779985,4.79322035
112,1715729271230,-1.58537858,3.03043548,5.33958062,-1.58537858,3.03043548,5.33958062
113,1715729271240,-1.4331790999999998,2.86689075,5.7932033,-1.4331790999999998,2.86689075,5.7932033
114,1715729271250,-1.46806642,2.3686936000000003,6.437095080000001,-1.46806642,2.3686936000000003,6.437095080000001
115,1715729271260,-1.5618097,2.0925772,6.7123593999999995,-1.5618097,2.0925772,6.7123593999999995
116,1715729271270,-1.649594075,1.750228125,7.046219675,-1.649594075,1.750228125,7.046219675
117,1715729271280,-1.680986,1.4068137,7.3769507,-1.680986,1.4068137,7.3769507
118,1715729271290,-1.54175612,1.159486174,7.603079539999999,-1.54175612,1.159486174,7.603079539999999
119,1715729271300,-1.1985548,0.66552347,8.006255,-1.1985548,0.66552347,8.006255
120,1715729271310,-0.93024147,0.22357221,8.257657,-0.93024147,0.22357221,8.257657
121,1715729271320,-0.68369952,-0.010186584999999998,8.3183775,-0.68369952,-0.010186584999999998,8.3183775
122,1715729271330,-0.0845553,-0.59654766,8.335422,-0.0845553,-0.59654766,8.335422
123,1715729271340,0.0314785412,-0.667467584,8.2736366,0.0314785412,-0.667467584,8.2736366
124,1715729271350,0.23382537,-0.731703,8.124499,0.23382537,-0.731703,8.124499
125,1715729271360,0.174170605,-0.54854422,7.996734200000001,0.174170605,-0.54854422,7.996734200000001
126,1715729271370,-0.10992189499999999,-0.061851880000000026,7.71214255,-0.10992189499999999,-0.061851880000000026,7.71214255
127,1715729271380,-0.7832351,0.8487487999999999,7.241662,-0.7832351,0.8487487999999999,7.241662
128,1715729271390,-1.3157338,1.501489,6.9220834,-1.3157338,1.501489,6.9220834
129,1715729271400,-1.9484005,2.05266325,6.5003386,-1.9484005,2.05266325,6.5003386
130,1715729271410,-2.4009712,2.321609,6.128728,-2.4009712,2.321609,6.128728
131,1715729271420,-2.4478427199999997,2.01151076,5.6098379199999995,-2.4478427199999997,2.01151076,5.6098379199999995
132,1715729271430,-1.9441061,1.5835145,5.101015,-1.9441061,1.5835145,5.101015
133,1715729271440,-1.3668664000000001,1.522261775,4.8086335,-1.3668664000000001,1.522261775,4.8086335
134,1715729271450,-0.6660561,1.5771228,4.474773,-0.6660561,1.5771228,4.474773
135,1715729271460,-0.518730132,1.67512704,4.4125618,-0.518730132,1.67512704,4.4125618
136,1715729271470,-0.3721765,2.0425098,4.324571,-0.3721765,2.0425098,4.324571
137,1715729271480,-0.4595281,1.9956383,4.2073917,-0.4595281,1.9956383,4.2073917
138,1715729271490,-0.45441484,1.7739303200000003,4.05407382,-0.45441484,1.7739303200000003,4.05407382
139,1715729271500,-0.24327959,0.35246912,3.3320115,-0.24327959,0.35246912,3.3320115
140,1715729271510,-0.11118689,-0.23755379,3.0487845,-0.11118689,-0.23755379,3.0487845
141,1715729271520,0.056592131999999996,-1.40289896,2.1701018000000003,0.056592131999999996,-1.40289896,2.1701018000000003
142,1715729271530,-0.13675322,-1.4506228000000003,1.825063,-0.13675322,-1.4506228000000003,1.825063
143,1715729271540,-0.554496368,-1.263163048,1.4552567140000001,-0.554496368,-1.263163048,1.4552567140000001
144,1715729271550,-1.1452916,-0.95753884,0.89961517,-1.1452916,-0.95753884,0.89961517
145,1715729271560,-1.217196875,-0.910400935,0.790159315,-1.217196875,-0.910400935,0.790159315
146,1715729271570,-1.23370845,-0.80364155,0.4432162575,-1.23370845,-0.80364155,0.4432162575
147,1715729271580,-0.8801741,-0.3366233,-1.062201,-0.8801741,-0.3366233,-1.062201
148,1715729271590,-0.52091392,-0.13289163533333334,-1.5229275333333334,-0.52091392,-0.13289163533333334,-1.5229275333333334
149,1715729271600,0.34352088,0.224211356,-2.68374536,0.34352088,0.224211356,-2.68374536
150,1715729271610,0.6757766,0.26937854,-3.189,0.6757766,0.26937854,-3.189
151,1715729271620,0.99748623,0.13728586,-3.7832836999999997,0.99748623,0.13728586,-3.7832836999999997
152,1715729271630,1.1337334860000001,-0.047643916,-4.11639194,1.1337334860000001,-0.047643916,-4.11639194
153,1715729271640,1.21509298,-0.20929768,-4.362387920000001,1.21509298,-0.20929768,-4.362387920000001
154,1715729271650,1.4490249,-0.86912197,-5.276384,1.4490249,-0.86912197,-5.276384
155,1715729271660,1.52146274,-1.031894314,-5.57881232,1.52146274,-1.031894314,-5.57881232
156,1715729271670,1.643835,-1.3270522,-6.2092886,1.643835,-1.3270522,-6.2092886
157,1715729271680,1.7247949999999999,-1.5603449,-6.635261,1.7247949999999999,-1.5603449,-6.635261
158,1715729271690,1.7311865750000002,-1.584845975,-6.666952575,1.7311865750000002,-1.584845975,-6.666952575
159,1715729271700,1.80064178,-1.9727085599999998,-7.06104706,1.80064178,-1.9727085599999998,-7.06104706
160,1715729271710,1.8139220666666667,-2.072958733333333,-7.156041933333333,1.8139220666666667,-2.072958733333333,-7.156041933333333
161,1715729271720,1.75313104,-2.44427412,-7.4777511599999995,1.75313104,-2.44427412,-7.4777511599999995
162,1715729271730,1.6203990999999998,-2.822416,-7.766304500000001,1.6203990999999998,-2.822416,-7.766304500000001
163,1715729271740,1.5203975,-3.0268135,-7.9069195,1.5203975,-3.0268135,-7.9069195
164,1715729271750,1.3851091,-3.299521,-8.060317,1.3851091,-3.299521,-8.060317
165,1715729271760,1.35235225,-3.352251625,-8.064311499999999,1.35235225,-3.352251625,-8.064311499999999
166,1715729271770,1.2338417,-3.3836768,-7.938877,1.2338417,-3.3836768,-7.938877
167,1715729271780,1.14862058,-3.28311584,-7.80167116,1.14862058,-3.28311584,-7.80167116
168,1715729271790,0.958537575,-3.15970505,-7.59619535,0.958537575,-3.15970505,-7.59619535
169,1715729271800,0.6299703,-3.0055082,-7.290265,0.6299703,-3.0055082,-7.290265
170,1715729271810,0.47686526999999995,-2.98846394,-7.17822586,0.47686526999999995,-2.98846394,-7.17822586
171,1715729271820,0.15393059,-2.9543755,-6.9239473,0.15393059,-2.9543755,-6.9239473
172,1715729271830,0.048469495,-2.9447882,-6.79292,0.048469495,-2.9447882,-6.79292
173,1715729271840,-0.006358290749999999,-2.8801067,-6.68882365,-0.006358290749999999,-2.8801067,-6.68882365
174,1715729271850,-0.06857634,-2.777675,-6.551238,-0.06857634,-2.777675,-6.551238
175,1715729271860,-0.15124080599999998,-2.6854231200000003,-6.47517832,-0.15124080599999998,-2.6854231200000003,-6.47517832
176,1715729271870,-0.39667755,-2.567818,-6.4266024,-0.39667755,-2.567818,-6.4266024
177,1715729271880,-0.7416898,-2.4921844,-6.3989058,-0.7416898,-2.4921844,-6.3989058
178,1715729271890,-0.9896299199999999,-2.43039904,-6.35331228,-0.9896299199999999,-2.43039904,-6.35331228
179,1715729271900,-2.0058913,-1.8957698,-5.870668,-2.0058913,-1.8957698,-5.870668
180,1715729271910,-2.16304444,-1.7002673000000001,-5.6323419999999995,-2.16304444,-1.7002673000000001,-5.6323419999999995
181,1715729271920,-2.574609,-0.59122133,-3.7907406999999997,-2.574609,-0.59122133,-3.7907406999999997
182,1715729271930,-2.299771,-0.22477063999999997,-2.4487748,-2.299771,-0.22477063999999997,-2.4487748
183,1715729271940,-2.299771,-0.22477064,-2.4487748,-2.299771,-0.22477064,-2.4487748
184,1715729271950,-1.3926192,-0.11645994800000001,0.332974772,-1.3926192,-0.11645994800000001,0.332974772
185,1715729271960,-1.1070752,0.023302643,1.3085432,-1.1070752,0.023302643,1.3085432
186,1715729271970,-0.92598045,0.611195,2.7451844,-0.92598045,0.611195,2.7451844
187,1715729271980,-1.0847048,1.0201231,3.4651694,-1.0847048,1.0201231,3.4651694
188,1715729271990,-1.1286136249999998,1.117594725,3.6411377000000003,-1.1286136249999998,1.117594725,3.6411377000000003
189,1715729272000,-1.2827106,1.7283902,4.6707816,-1.2827106,1.7283902,4.6707816
190,1715729272010,-1.13703576,2.0406189599999998,5.4485838,-1.13703576,2.0406189599999998,5.4485838
191,1715729272020,-0.9973531,2.196973,6.008353,-0.9973531,2.196973,6.008353
192,1715729272030,-0.7480814,2.2385185,6.579201,-0.7480814,2.2385185,6.579201
193,1715729272040,-0.7480814,2.2385185,6.579201,-0.7480814,2.2385185,6.579201
194,1715729272050,-0.063702766,1.8789386799999999,7.613918839999999,-0.063702766,1.8789386799999999,7.613918839999999
195,1715729272060,0.13475585,1.3737906,7.931686999999999,0.13475585,1.3737906,7.931686999999999
196,1715729272070,0.31585068,0.90720516,8.052061,0.31585068,0.90720516,8.052061
197,1715729272080,0.4532697,0.38216335,8.059519,0.4532697,0.38216335,8.059519
198,1715729272090,0.4532697,0.38216335,8.059519,0.4532697,0.38216335,8.059519
199,1715729272100,0.61590882,-0.34176321,7.83016686,0.61590882,-0.34176321,7.83016686
200,1715729272110,0.693033912,-0.626561438,7.6914962000000004,0.693033912,-0.626561438,7.6914962000000004
201,1715729272120,0.7940209,-0.86379564,7.521693000000001,0.7940209,-0.86379564,7.521693000000001
202,1715729272130,0.8472841,-0.776444,7.5259542,0.8472841,-0.776444,7.5259542
203,1715729272140,0.85431484,-0.652527242,7.59242688,0.85431484,-0.652527242,7.59242688
204,1715729272150,0.7791072,-0.2695117,7.7848134,0.7791072,-0.2695117,7.7848134
205,1715729272160,0.6970819,-0.084288985,7.835946,0.6970819,-0.084288985,7.835946
206,1715729272170,0.30687582,0.519822043,7.793335600000001,0.30687582,0.519822043,7.793335600000001
207,1715729272180,-0.24138874000000002,1.13434604,7.6446248400000005,-0.24138874000000002,1.13434604,7.6446248400000005
208,1715729272190,-0.85055978,1.5311567199999998,7.4066715599999995,-0.85055978,1.5311567199999998,7.4066715599999995
209,1715729272200,-1.7864472,1.9457039999999999,6.984934,-1.7864472,1.9457039999999999,6.984934
210,1715729272210,-2.2152690799999997,1.96037806,6.7054886400000004,-2.2152690799999997,1.96037806,6.7054886400000004
211,1715729272220,-2.699245,1.9606178,6.3768015,-2.699245,1.9606178,6.3768015
212,1715729272230,-2.9132297,1.8487649999999998,6.095705,-2.9132297,1.8487649999999998,6.095705
213,1715729272240,-2.87232368,1.8436518,6.03945902,-2.87232368,1.8436518,6.03945902
214,1715729272250,-2.586327,2.0936425,5.990244,-2.586327,2.0936425,5.990244
215,1715729272260,-2.4900272,2.22317854,6.0094188,-2.4900272,2.22317854,6.0094188
216,1715729272270,-2.03462694,2.6440642,6.0040922,-2.03462694,2.6440642,6.0040922
217,1715729272280,-1.530917,2.395112,5.7261915,-1.530917,2.395112,5.7261915
218,1715729272290,-1.16719605,2.11181855,5.59196825,-1.16719605,2.11181855,5.59196825
219,1715729272300,0.19867167,1.2907001,5.3107386,0.19867167,1.2907001,5.3107386
220,1715729272310,0.404853442,1.2399935,5.29710332,0.404853442,1.2399935,5.29710332
221,1715729272320,1.623595,1.4206622,5.2192593,1.623595,1.4206622,5.2192593
222,1715729272330,1.4405028,1.7699355,5.125516,1.4405028,1.7699355,5.125516
223,1715729272340,1.1733879200000001,1.91092314,5.0385904,1.1733879200000001,1.91092314,5.0385904
224,1715729272350,-0.06644582,2.2672806,4.353333,-0.06644582,2.2672806,4.353333
225,1715729272360,-0.32770172,2.149036275,4.036250625,-0.32770172,2.149036275,4.036250625
226,1715729272370,-0.42437439999999993,1.0147967,2.5301342,-0.42437439999999993,1.0147967,2.5301342
227,1715729272380,-0.08881636,0.6846982,2.0944414,-0.08881636,0.6846982,2.0944414
228,1715729272390,0.55333787,0.52171287,1.4608093,0.55333787,0.52171287,1.4608093
229,1715729272400,1.7940371,0.34501225,0.044341598,1.7940371,0.34501225,0.044341598
230,1715729272410,1.987349175,0.3351585675,-0.5810680055,1.987349175,0.3351585675,-0.5810680055
231,1715729272420,2.1632175833333336,0.31429716166666666,-1.8449921666666667,2.1632175833333336,0.31429716166666666,-1.8449921666666667
232,1715729272430,2.0497005,0.25126907,-2.7023075,2.0497005,0.25126907,-2.7023075
233,1715729272440,2.0134815,0.22623537249999998,-2.891591525,2.0134815,0.22623537249999998,-2.891591525
234,1715729272450,1.7840236399999998,-0.04122570399999999,-4.182810959999999,1.7840236399999998,-0.04122570399999999,-4.182810959999999
235,1715729272460,1.6800539999999997,-0.27803382,-4.912197,1.6800539999999997,-0.27803382,-4.912197
236,1715729272470,1.7182258333333333,-0.7919125533333333,-5.548469916666666,1.7182258333333333,-0.7919125533333333,-5.548469916666666
237,1715729272480,1.9101509,-1.6679366000000002,-6.2348547,1.9101509,-1.6679366000000002,-6.2348547
238,1715729272490,1.9101509000000003,-1.6679366,-6.2348547,1.9101509000000003,-1.6679366,-6.2348547
239,1715729272500,2.319079,-2.4847274,-6.9729495,2.319079,-2.4847274,-6.9729495
240,1715729272510,2.39098435,-2.5686168499999997,-7.086400125,2.39098435,-2.5686168499999997,-7.086400125
241,1715729272520,2.6407886,-2.7883277,-7.4660335,2.6407886,-2.7883277,-7.4660335
242,1715729272530,2.69205445,-2.8673902499999997,-7.629518125,2.69205445,-2.8673902499999997,-7.629518125
243,1715729272540,2.6800702,-2.932005,-7.688540499999999,2.6800702,-2.932005,-7.688540499999999
244,1715729272550,2.622679,-3.1130998,-7.8195677,2.622679,-3.1130998,-7.8195677
245,1715729272560,2.5881644800000005,-3.23262232,-7.885401079999999,2.5881644800000005,-3.23262232,-7.885401079999999
246,1715729272570,2.3893864,-3.696731,-8.1252985,2.3893864,-3.696731,-8.1252985
247,1715729272580,2.0901804,-4.044939,-8.292412,2.0901804,-4.044939,-8.292412
248,1715729272590,1.95744856,-4.1780969599999995,-8.294968200000001,1.95744856,-4.1780969599999995,-8.294968200000001
249,1715729272600,1.7524918,-4.376236,-8.241279,1.7524918,-4.376236,-8.241279
250,1715729272610,1.72884298,-4.390297599999999,-8.1966174,1.72884298,-4.390297599999999,-8.1966174
251,1715729272620,1.6167772599999999,-4.431203999999999,-7.97168724,1.6167772599999999,-4.431203999999999,-7.97168724
252,1715729272630,1.4341111,-4.4497395,-7.703454,1.4341111,-4.4497395,-7.703454
253,1715729272640,1.4341111,-4.4497395,-7.703454,1.4341111,-4.4497395,-7.703454
254,1715729272650,0.8472840999999999,-4.326169,-7.3211575,0.8472840999999999,-4.326169,-7.3211575
255,1715729272660,0.7607647,-4.290482625,-7.2849385,0.7607647,-4.290482625,-7.2849385
256,1715729272670,-0.19427745,-3.9543917,-6.926078000000001,-0.19427745,-3.9543917,-6.926078000000001
257,1715729272680,-0.38673508333333334,-3.9005072333333337,-6.8515093333333335,-0.38673508333333334,-3.9005072333333337,-6.8515093333333335
258,1715729272690,-0.64721425,-3.7979312750000003,-6.746614075,-0.64721425,-3.7979312750000003,-6.746614075
259,1715729272700,-1.6628765,-3.1514494,-6.3530993,-1.6628765,-3.1514494,-6.3530993
260,1715729272710,-1.78058815,-2.9539095,-6.30995615,-1.78058815,-2.9539095,-6.30995615
261,1715729272720,-2.0708725,-1.718004,-6.1155453,-2.0708725,-1.718004,-6.1155453
262,1715729272730,-2.1007,-1.0342379,-5.914344,-2.1007,-1.0342379,-5.914344
263,1715729272740,-2.13436228,-0.545175336,-5.69410068,-2.13436228,-0.545175336,-5.69410068
264,1715729272750,-2.4957795,1.1628684,-4.709797,-2.4957795,1.1628684,-4.709797
265,1715729272760,-2.8983160249999997,1.5843466,-4.102763,-2.8983160249999997,1.5843466,-4.102763
266,1715729272770,-3.3178968,1.8583524,-3.359442,-3.3178968,1.8583524,-3.359442
267,1715729272780,-3.2923305,1.759283,-2.9855344,-3.2923305,1.759283,-2.9855344
268,1715729272790,-2.9542424499999997,1.4456294,-2.1958412000000003,-2.9542424499999997,1.4456294,-2.1958412000000003
269,1715729272800,-2.1220052,0.8455530400000001,-0.46578652,-2.1220052,0.8455530400000001,-0.46578652
270,1715729272810,-1.6710791,0.7807850000000001,0.48251119200000003,-1.6710791,0.7807850000000001,0.48251119200000003
271,1715729272820,-1.0708563,0.79868144,1.9603515000000002,-1.0708563,0.79868144,1.9603515000000002
272,1715729272830,-1.0154625,0.9956220400000001,2.852776,-1.0154625,0.9956220400000001,2.852776
273,1715729272840,-1.0555165,1.2154924079999998,3.47638136,-1.0555165,1.2154924079999998,3.47638136
274,1715729272850,-1.08577,1.452487,4.2137833,-1.08577,1.452487,4.2137833
275,1715729272860,-1.0354363,1.571530225,4.787327875,-1.0354363,1.571530225,4.787327875
276,1715729272870,-0.8013445999999999,1.6271902,5.9412417,-0.8013445999999999,1.6271902,5.9412417
277,1715729272880,-0.62198077,1.55754856,6.512063159999999,-0.62198077,1.55754856,6.512063159999999
278,1715729272890,-0.38176385,1.423858,7.236335800000001,-0.38176385,1.423858,7.236335800000001
279,1715729272900,-0.13675322,1.1713905,7.8711,-0.13675322,1.1713905,7.8711
280,1715729272910,-0.09893636,1.1090726,7.956787,-0.09893636,1.1090726,7.956787
281,1715729272920,0.060640132,0.73921306,8.340748399999999,0.060640132,0.73921306,8.340748399999999
282,1715729272930,0.148178176,0.510634114,8.5345202,0.148178176,0.510634114,8.5345202
283,1715729272940,0.519502438,-0.27004433800000005,8.9588672,0.519502438,-0.27004433800000005,8.9588672
284,1715729272950,0.74608403,-0.62530977,9.037164,0.74608403,-0.62530977,9.037164
285,1715729272960,0.881585552,-0.767122968,9.0582564,0.881585552,-0.767122968,9.0582564
286,1715729272970,1.3350416,-0.96925676,9.154343,1.3350416,-0.96925676,9.154343
287,1715729272980,1.561909575,-0.5914876125,9.231041750000001,1.561909575,-0.5914876125,9.231041750000001
288,1715729272990,1.5809844,-0.32064435,9.215063,1.5809844,-0.32064435,9.215063
289,1715729273000,1.4330459,0.21718062,9.075514,1.4330459,0.21718062,9.075514
290,1715729273010,1.3643364,0.3247389575,9.03213775,1.3643364,0.3247389575,9.03213775
291,1715729273020,0.595109532,1.174825994,8.493906599999999,0.595109532,1.174825994,8.493906599999999
292,1715729273030,0.28495802000000003,1.4195304,8.241146,0.28495802000000003,1.4195304,8.241146
293,1715729273040,-0.968591,2.1256003,7.064828399999999,-0.968591,2.1256003,7.064828399999999
294,1715729273050,-1.6310518000000003,2.4377227,6.467348599999999,-1.6310518000000003,2.4377227,6.467348599999999
295,1715729273060,-1.8891919000000001,2.5648352799999996,6.26609366,-1.8891919000000001,2.5648352799999996,6.26609366
296,1715729273070,-2.5799353,3.119225,5.849629,-2.5799353,3.119225,5.849629
297,1715729273080,-2.7474147249999996,3.492799625,5.833383575,-2.7474147249999996,3.492799625,5.833383575
298,1715729273090,-2.9728844,4.1320243,5.8528247,-2.9728844,4.1320243,5.8528247
299,1715729273100,-3.0346699,4.602871,5.8474984,-3.0346699,4.602871,5.8474984
300,1715729273110,-3.03190018,4.6507812,5.84174604,-3.03190018,4.6507812,5.84174604
301,1715729273120,-2.7502444,4.8552055,5.817671,-2.7502444,4.8552055,5.817671
302,1715729273130,-2.32112962,4.46728972,5.75101206,-2.32112962,4.46728972,5.75101206
303,1715729273140,-1.4691317,3.5803509999999994,5.5951643,-1.4691317,3.5803509999999994,5.5951643
304,1715729273150,-0.57550865,2.7284063999999995,5.388503,-0.57550865,2.7284063999999995,5.388503
305,1715729273160,-0.19427743849999995,2.352734525,5.2173283999999995,-0.19427743849999995,2.352734525,5.2173283999999995
306,1715729273170,0.39254966,1.7486302999999999,4.9018106,0.39254966,1.7486302999999999,4.9018106
307,1715729273180,0.24341275,1.5504912,4.676108,0.24341275,1.5504912,4.676108
308,1715729273190,-0.06857634,0.9977525499999998,4.222306,-0.06857634,0.9977525499999998,4.222306
309,1715729273200,-0.07922898,0.14900376,3.4502559000000006,-0.07922898,0.14900376,3.4502559000000006
310,1715729273210,0.24744076499999998,-0.19447719249999998,2.797648675,0.24744076499999998,-0.19447719249999998,2.797648675
311,1715729273220,0.8984167,-0.67857295,1.5853786,0.8984167,-0.67857295,1.5853786
312,1715729273230,1.6495874000000001,-0.28381286,0.20714050999999997,1.6495874000000001,-0.28381286,0.20714050999999997
313,1715729273240,1.8046898,-0.029960539999999997,-0.26232117,1.8046898,-0.029960539999999997,-0.26232117
314,1715729273250,1.6736623,0.4418181,-1.2006853,1.6736623,0.4418181,-1.2006853
315,1715729273260,1.62416085,0.485493915,-1.3628051,1.62416085,0.485493915,-1.3628051
316,1715729273270,1.2370374,0.67404556,-2.990861,1.2370374,0.67404556,-2.990861
317,1715729273280,1.2167974,0.65806663,-3.217762,1.2167974,0.65806663,-3.217762
318,1715729273290,1.3216193600000001,0.459128634,-3.7655738799999994,1.3216193600000001,0.459128634,-3.7655738799999994
319,1715729273300,1.8558224000000003,-0.35899386,-5.1016808,1.8558224000000003,-0.35899386,-5.1016808
320,1715729273310,2.077064375,-0.606634355,-5.28940015,2.077064375,-0.606634355,-5.28940015
321,1715729273320,2.46459406,-1.03679446,-5.61883948,2.46459406,-1.03679446,-5.61883948
322,1715729273330,2.5481107,-1.1279811,-5.7066174,2.5481107,-1.1279811,-5.7066174
323,1715729273340,2.7301376,-1.2812458,-6.1251326,2.7301376,-1.2812458,-6.1251326
324,1715729273350,2.8004448,-1.2929637,-6.4883876,2.8004448,-1.2929637,-6.4883876
325,1715729273360,2.8070494800000003,-1.2999944600000002,-6.543328580000001,2.8070494800000003,-1.2999944600000002,-6.543328580000001
326,1715729273370,2.8835356,-1.6040207,-7.194391300000001,2.8835356,-1.6040207,-7.194391300000001
327,1715729273380,2.907504025,-1.735048175,-7.313434525,2.907504025,-1.735048175,-7.313434525
328,1715729273390,3.0486515,-2.502837,-7.763108700000001,3.0486515,-2.502837,-7.763108700000001
329,1715729273400,3.1264157,-2.9458535,-7.9505954,3.1264157,-2.9458535,-7.9505954
330,1715729273410,3.1335174,-3.0158058333333333,-7.9917852666666676,3.1335174,-3.0158058333333333,-7.9917852666666676
331,1715729273420,3.1221545,-3.3197610000000006,-8.179626,3.1221545,-3.3197610000000006,-8.179626
332,1715729273430,3.0703827400000003,-3.49198752,-8.127641520000001,3.0703827400000003,-3.49198752,-8.127641520000001
333,1715729273440,3.0081713,-3.704188,-7.941007600000001,3.0081713,-3.704188,-7.941007600000001
334,1715729273450,2.9836702,-3.7744954,-7.821698,2.9836702,-3.7744954,-7.821698
335,1715729273460,2.9836702,-3.7744954000000006,-7.8216980000000005,2.9836702,-3.7744954000000006,-7.8216980000000005
336,1715729273470,2.796894116666667,-4.247694383333333,-7.224928333333334,2.796894116666667,-4.247694383333333,-7.224928333333334
337,1715729273480,2.75410595,-4.36585,-7.144057474999999,2.75410595,-4.36585,-7.144057474999999
338,1715729273490,2.4628894,-4.857602,-6.999581000000001,2.4628894,-4.857602,-6.999581000000001
339,1715729273500,2.21745276,-4.9794684,-6.9671970000000005,2.21745276,-4.9794684,-6.9671970000000005
340,1715729273510,2.1560936,-5.009935,-6.959101,2.1560936,-5.009935,-6.959101
341,1715729273520,1.3765869000000002,-5.0078044,-6.6938505,1.3765869000000002,-5.0078044,-6.6938505
342,1715729273530,1.104245625,-4.928708575,-6.550139625,1.104245625,-4.928708575,-6.550139625
343,1715729273540,0.3062633,-4.425238,-6.011283,0.3062633,-4.425238,-6.011283
344,1715729273550,-0.1346227,-3.9342850000000005,-5.702356300000001,-0.1346227,-3.9342850000000005,-5.702356300000001
345,1715729273560,-0.2241048425,-3.824030225,-5.666403625,-0.2241048425,-3.824030225,-5.666403625
346,1715729273570,-1.1325084,-2.7350645,-5.5255227,-1.1325084,-2.7350645,-5.5255227
347,1715729273580,-1.71235802,-2.20805194,-5.44701242,-1.71235802,-2.20805194,-5.44701242
348,1715729273590,-2.849314,-1.2313116,-5.2092724,-2.849314,-1.2313116,-5.2092724
349,1715729273600,-3.4461280000000003,-0.748827072,-4.983090160000001,-3.4461280000000003,-0.748827072,-4.983090160000001
350,1715729273610,-4.135886220000001,0.081252984,-4.54300312,-4.135886220000001,0.081252984,-4.54300312
351,1715729273620,-4.239217,0.6964161,-4.1272306,-4.239217,0.6964161,-4.1272306
352,1715729273630,-4.1699743,0.8135951,-4.012182,-4.1699743,0.8135951,-4.012182
353,1715729273640,-3.334941,0.8807067,-2.6000423,-3.334941,0.8807067,-2.6000423
354,1715729273650,-2.4574301,0.4066644,-0.99615467,-2.4574301,0.4066644,-0.99615467
355,1715729273660,-1.851927575,0.2373873375,0.16921045750000002,-1.851927575,0.2373873375,0.16921045750000002
356,1715729273670,-1.2528832,0.3619233,1.6972312999999999,-1.2528832,0.3619233,1.6972312999999999
357,1715729273680,-1.35000862,0.63628196,2.0167305,-1.35000862,0.63628196,2.0167305
358,1715729273690,-1.8166295833333335,1.5579480666666667,2.9335363,-1.8166295833333335,1.5579480666666667,2.9335363
359,1715729273700,-2.1273315,1.8562219,3.2041798,-2.1273315,1.8562219,3.2041798
360,1715729273710,-2.00163042,1.7876189,3.51007028,-2.00163042,1.7876189,3.51007028
361,1715729273720,-1.8130788,1.6847144,3.9689059999999996,-1.8130788,1.6847144,3.9689059999999996
362,1715729273730,-1.5490265,1.497228,4.2073917,-1.5490265,1.497228,4.2073917
363,1715729273740,-0.5625390968,0.619317648,5.05134704,-0.5625390968,0.619317648,5.05134704
364,1715729273750,-0.114382684,0.21291956,5.462006,-0.114382684,0.21291956,5.462006
365,1715729273760,0.049601336999999995,0.03478751000000001,5.704287,0.049601336999999995,0.03478751000000001,5.704287
366,1715729273770,0.5415534,-0.49960864000000005,6.431129999999999,0.5415534,-0.49960864000000005,6.431129999999999
367,1715729273780,0.5671197,-0.6285055,6.63566,0.5671197,-0.6285055,6.63566
368,1715729273790,0.4053328,-0.9596694,7.107439,0.4053328,-0.9596694,7.107439
369,1715729273800,0.2476738,-1.10710188,7.2497582000000005,0.2476738,-1.10710188,7.2497582000000005
370,1715729273810,0.17097482,-1.1700589750000001,7.3077085,0.17097482,-1.1700589750000001,7.3077085
371,1715729273820,-0.0845553,-1.3526185,7.520628,-0.0845553,-1.3526185,7.520628
372,1715729273830,-0.0845553,-1.36412338,7.5615342,-0.0845553,-1.36412338,7.5615342
373,1715729273840,0.034621067,-1.3888375,7.788009,0.034621067,-1.3888375,7.788009
374,1715729273850,0.0993890934,-1.3888375,7.8612994,0.0993890934,-1.3888375,7.8612994
375,1715729273860,0.23453554,-1.3671771333333333,7.9655086666666675,0.23453554,-1.3671771333333333,7.9655086666666675
376,1715729273870,0.68323344,-1.2472906,8.172437,0.68323344,-1.2472906,8.172437
377,1715729273880,0.74315451,-1.22571895,8.085351500000002,0.74315451,-1.22571895,8.085351500000002
378,1715729273890,0.802543,-1.4602101,7.422624,0.802543,-1.4602101,7.422624
379,1715729273900,0.86645883,-1.8606161000000003,6.6037025,0.86645883,-1.8606161000000003,6.6037025
380,1715729273910,0.9147507866666666,-1.940866,6.3530548,0.9147507866666666,-1.940866,6.3530548
381,1715729273920,1.1571426,-1.8904434,5.3554797,1.1571426,-1.8904434,5.3554797
382,1715729273930,1.1816437,-1.70728465,5.2420957,1.1816437,-1.70728465,5.2420957
383,1715729273940,1.101749,-0.6647245,4.943356,1.101749,-0.6647245,4.943356
384,1715729273950,0.8952209400000001,0.10319742,4.9273767,0.8952209400000001,0.10319742,4.9273767
385,1715729273960,0.858149758,0.21374514800000002,4.93057256,0.858149758,0.21374514800000002,4.93057256
386,1715729273970,0.75141037,0.85620564,4.8655915,0.75141037,0.85620564,4.8655915
387,1715729273980,0.9239830675,0.896053185,4.788093625,0.9239830675,0.896053185,4.788093625
388,1715729273990,1.6608791,1.0851042,4.6185837,1.6608791,1.0851042,4.6185837
389,1715729274000,1.8196034,1.1415632,4.6132574,1.8196034,1.1415632,4.6132574
390,1715729274010,2.0019965500000003,1.21583205,4.64784515,2.0019965500000003,1.21583205,4.64784515
391,1715729274020,2.5896559,1.4164011,4.8133936,2.5896559,1.4164011,4.8133936
392,1715729274030,2.547045333333333,1.3727253000000001,4.811263066666666,2.547045333333333,1.3727253000000001,4.811263066666666
393,1715729274040,1.7727318999999997,1.1554116,4.5259056,1.7727318999999997,1.1554116,4.5259056
394,1715729274050,0.90906936,1.4397038,4.073302,0.90906936,1.4397038,4.073302
395,1715729274060,0.9090693599999999,1.4397038,4.073302,0.9090693599999999,1.4397038,4.073302
396,1715729274070,-0.21527202533333334,2.0382932666666664,3.1627233333333336,-0.21527202533333334,2.0382932666666664,3.1627233333333336
397,1715729274080,-0.38751627,2.08320296,2.78055124,-0.38751627,2.08320296,2.78055124
398,1715729274090,0.15180007,1.4695312,1.5981618,0.15180007,1.4695312,1.5981618
399,1715729274100,0.37284227833333333,1.24682445,1.2565006333333333,0.37284227833333333,1.24682445,1.2565006333333333
400,1715729274110,0.41705072,1.2022831,1.1881684,0.41705072,1.2022831,1.1881684
401,1715729274120,0.7609977,0.29494488,-0.8821714499999999,0.7609977,0.29494488,-0.8821714499999999
402,1715729274130,0.63937123,0.373108594,-1.25703773,0.63937123,0.373108594,-1.25703773
403,1715729274140,0.27856645,0.64741397,-2.344379,0.27856645,0.64741397,-2.344379
404,1715729274150,0.068283401,0.833622072,-3.60109718,0.068283401,0.833622072,-3.60109718
405,1715729274160,0.075101085,0.74754876,-4.1591887,0.075101085,0.74754876,-4.1591887
406,1715729274170,0.24660853,0.3151849,-4.980241,0.24660853,0.3151849,-4.980241
407,1715729274180,0.4867922075,-0.24001720999999998,-5.5013545,0.4867922075,-0.24001720999999998,-5.5013545
408,1715729274190,0.8004125,-0.9767136,-6.076131,0.8004125,-0.9767136,-6.076131
409,1715729274200,0.9655283000000001,-1.3781848,-6.307293,0.9655283000000001,-1.3781848,-6.307293
410,1715729274210,1.1432942,-1.7531576,-6.5395203,1.1432942,-1.7531576,-6.5395203
411,1715729274220,1.2519511,-1.836115,-6.665088,1.2519511,-1.836115,-6.665088
412,1715729274230,1.31416254,-1.84122828,-6.747752799999999,1.31416254,-1.84122828,-6.747752799999999
413,1715729274240,1.4117407,-1.9117488000000002,-7.0219517,1.4117407,-1.9117488000000002,-7.0219517
414,1715729274250,1.388571175,-2.038781475,-7.295091725,1.388571175,-2.038781475,-7.295091725
415,1715729274260,1.269261625,-2.283226175,-7.6420349000000005,1.269261625,-2.283226175,-7.6420349000000005
416,1715729274270,1.1550121,-2.4644876,-7.805719399999999,1.1550121,-2.4644876,-7.805719399999999
417,1715729274280,1.0342045500000001,-2.6567675,-7.94100785,1.0342045500000001,-2.6567675,-7.94100785
418,1715729274290,0.9122651,-2.867157,-8.080558,0.9122651,-2.867157,-8.080558
419,1715729274300,0.9165262,-3.0619671,-8.119972,0.9165262,-3.0619671,-8.119972
420,1715729274310,0.9484841000000002,-3.166363,-8.108254,0.9484841000000002,-3.166363,-8.108254
421,1715729274320,0.9484841,-3.166363,-8.108254,0.9484841,-3.166363,-8.108254
422,1715729274330,0.9484841,-3.166363,-8.108254,0.9484841,-3.166363,-8.108254
423,1715729274340,1.0347261,-3.3214919999999997,-7.921522166666667,1.0347261,-3.3214919999999997,-7.921522166666667
424,1715729274350,1.2072101,-3.63175,-7.5480585,1.2072101,-3.63175,-7.5480585
425,1715729274360,0.9090693599999999,-3.7499943,-7.084801999999999,0.9090693599999999,-3.7499943,-7.084801999999999
426,1715729274370,0.6502103,-3.7009920000000003,-6.899446499999999,0.6502103,-3.7009920000000003,-6.899446499999999
427,1715729274380,0.466552175,-3.6474626999999997,-6.789191625,0.466552175,-3.6474626999999997,-6.789191625
428,1715729274390,-0.030360013,-3.3101735,-6.464951999999999,-0.030360013,-3.3101735,-6.464951999999999
429,1715729274400,-0.2724944326,-2.84902092,-6.25892992,-0.2724944326,-2.84902092,-6.25892992
430,1715729274410,-0.45819651250000004,-2.192112875,-5.9896112,-0.45819651250000004,-2.192112875,-5.9896112
431,1715729274420,-0.50533444,-1.7201345,-5.765207,-0.50533444,-1.7201345,-5.765207
432,1715729274430,-0.52717237,-1.49589645,-5.569265,-0.52717237,-1.49589645,-5.569265
433,1715729274440,-0.7466166519999999,-0.7648060320000001,-4.6269991599999996,-0.7466166519999999,-0.7648060320000001,-4.6269991599999996
434,1715729274450,-0.79601824,-0.63809294,-4.4404182,-0.79601824,-0.63809294,-4.4404182
435,1715729274460,-1.5000243,0.032890014,-2.6852634,-1.5000243,0.032890014,-2.6852634
436,1715729274470,-1.5809844,0.4514054699999999,-2.0728698,-1.5809844,0.4514054699999999,-2.0728698
437,1715729274480,-1.600159125,0.58802553,-1.93784775,-1.600159125,0.58802553,-1.93784775
438,1715729274490,-1.8535587599999999,0.9092291400000001,-1.421301406,-1.8535587599999999,0.9092291400000001,-1.421301406
439,1715729274500,-2.0453062,1.0105357,-0.9620662299999999,-2.0453062,1.0105357,-0.9620662299999999
440,1715729274510,-2.0453062,1.0105357,-0.96206623,-2.0453062,1.0105357,-0.96206623
441,1715729274520,-2.2869878,1.2981569,0.8506129999999998,-2.2869878,1.2981569,0.8506129999999998
442,1715729274530,-2.2869878,1.2981569,0.850613,-2.2869878,1.2981569,0.850613
443,1715729274540,-1.9451714000000002,1.7901756000000002,2.7867295999999997,-1.9451714000000002,1.7901756000000002,2.7867295999999997
444,1715729274550,-1.7797892,1.939478925,3.373856375,-1.7797892,1.939478925,3.373856375
445,1715729274560,-1.6100927200000001,2.06765014,4.0858453,-1.6100927200000001,2.06765014,4.0858453
446,1715729274570,-1.3647358,2.2321267,5.8517594,-1.3647358,2.2321267,5.8517594
447,1715729274580,-1.3601196666666666,2.2275106,6.082522266666667,-1.3601196666666666,2.2275106,6.082522266666667
448,1715729274590,-1.368997,2.0584888,7.5344768,-1.368997,2.0584888,7.5344768
449,1715729274600,-1.3881717,1.9552914,7.859382,-1.3881717,1.9552914,7.859382
450,1715729274610,-1.3881717,1.9552913999999997,7.859381999999999,-1.3881717,1.9552913999999997,7.859381999999999
451,1715729274620,-1.5184889000000001,1.2938958,8.772757,-1.5184889000000001,1.2938958,8.772757
452,1715729274630,-1.5394391,1.0361686,8.871582,-1.5394391,1.0361686,8.871582
453,1715729274640,-1.4329127,-0.14394376,9.20015,-1.4329127,-0.14394376,9.20015
454,1715729274650,-1.35461585,-0.32603723,9.24063,-1.35461585,-0.32603723,9.24063
455,1715729274660,-0.33808804,-1.4751239,9.59736,-0.33808804,-1.4751239,9.59736
456,1715729274670,0.53196603,-1.8531593000000002,9.739039,0.53196603,-1.8531593000000002,9.739039
457,1715729274680,0.7641402580000001,-1.87957786,9.7420218,0.7641402580000001,-1.87957786,9.7420218
458,1715729274690,1.6214644,-1.6274565000000003,9.675124,1.6214644,-1.6274565000000003,9.675124
459,1715729274700,1.6163511200000003,-1.41781258,9.6333656,1.6163511200000003,-1.41781258,9.6333656
460,1715729274710,0.87071985,-0.08109319,9.275784,0.87071985,-0.08109319,9.275784
461,1715729274720,0.13901691,0.7432877000000001,8.978707,0.13901691,0.7432877000000001,8.978707
462,1715729274730,-0.2805637933333333,1.1110699666666666,8.812881333333333,-0.2805637933333333,1.1110699666666666,8.812881333333333
463,1715729274740,-2.47442096,2.8510717,8.040743280000001,-2.47442096,2.8510717,8.040743280000001
464,1715729274750,-3.4467936000000003,3.4633051999999998,7.742202799999999,-3.4467936000000003,3.4633051999999998,7.742202799999999
465,1715729274760,-4.640075319999999,3.94959804,7.31641714,-4.640075319999999,3.94959804,7.31641714
466,1715729274770,-5.18597,4.10233,7.041393000000001,-5.18597,4.10233,7.041393000000001
467,1715729274780,-5.19316025,3.911381725,6.7882263,-5.19316025,3.911381725,6.7882263
468,1715729274790,-4.7280397,3.3354735,6.308758,-4.7280397,3.3354735,6.308758
469,1715729274800,-4.240781425,2.923316425,5.998533125,-4.240781425,2.923316425,5.998533125
470,1715729274810,-3.1411963,1.9892467,5.2894335,-3.1411963,1.9892467,5.2894335
471,1715729274820,-2.551672675,1.3007535250000002,4.820650875,-2.551672675,1.3007535250000002,4.820650875
472,1715729274830,-2.1574252333333335,0.7190973776666668,4.482629333333333,-2.1574252333333335,0.7190973776666668,4.482629333333333
473,1715729274840,-0.8503467,-1.7861809000000002,3.3863399999999997,-0.8503467,-1.7861809000000002,3.3863399999999997
474,1715729274850,-0.22730063,-3.012965,2.9305403,-0.22730063,-3.012965,2.9305403
475,1715729274860,0.33502543,-4.6275053,2.2755363,0.33502543,-4.6275053,2.2755363
476,1715729274870,0.3837612325,-4.712193575,2.2443773250000003,0.3837612325,-4.712193575,2.2443773250000003
477,1715729274880,0.40000650000000004,-4.740423,2.233991,0.40000650000000004,-4.740423,2.233991
478,1715729274890,-0.0579681,-3.0364007666666666,3.6089359333333335,-0.0579681,-3.0364007666666666,3.6089359333333335
479,1715729274900,-0.296968876,-1.5973628,4.5652940399999995,-0.296968876,-1.5973628,4.5652940399999995
480,1715729274910,-0.36258912,0.6122603,5.7984962,-0.36258912,0.6122603,5.7984962
481,1715729274920,0.11132005,1.5057502,5.728322,0.11132005,1.5057502,5.728322
482,1715729274930,0.43465420000000005,1.42337872,5.1665819,0.43465420000000005,1.42337872,5.1665819
483,1715729274940,1.3744831000000002,0.41675778399999996,3.22359426,1.3744831000000002,0.41675778399999996,3.22359426
484,1715729274950,1.86544305,-0.14384389,2.18132705,1.86544305,-0.14384389,2.18132705
485,1715729274960,2.7674217,-0.25459802,-0.24847275,2.7674217,-0.25459802,-0.24847275
486,1715729274970,2.7706175,0.29494488,-1.0238515,2.7706175,0.29494488,-1.0238515
487,1715729274980,2.7706175,0.29494488,-1.0238515,2.7706175,0.29494488,-1.0238515
488,1715729274990,1.9761972,1.4227928,-2.4786022,1.9761972,1.4227928,-2.4786022
489,1715729275000,1.849963425,1.4618414,-2.87238355,1.849963425,1.4618414,-2.87238355
490,1715729275010,1.9016287000000003,1.1042789,-3.7694354,1.9016287000000003,1.1042789,-3.7694354
491,1715729275020,2.5172179,-0.034221593,-5.01859,2.5172179,-0.034221593,-5.01859
492,1715729275030,2.592552025,-0.17613467725,-5.15837265,2.592552025,-0.17613467725,-5.15837265
493,1715729275040,2.9847355000000007,-1.180179,-6.4404507,2.9847355000000007,-1.180179,-6.4404507
494,1715729275050,2.9570386,-1.2483559,-6.603303,2.9570386,-1.2483559,-6.603303
495,1715729275060,2.3883212,-1.5464965,-7.690670999999999,2.3883212,-1.5464965,-7.690670999999999
496,1715729275070,2.0337214,-1.7275912999999998,-8.2051935,2.0337214,-1.7275912999999998,-8.2051935
497,1715729275080,1.987116125,-1.7709675,-8.296506375,1.987116125,-1.7709675,-8.296506375
498,1715729275090,1.6821845,-2.304831,-9.262733,1.6821845,-2.304831,-9.262733
499,1715729275100,1.6539549999999998,-2.46242345,-9.458675,1.6539549999999998,-2.46242345,-9.458675
500,1715729275110,1.5651386,-3.089664,-10.034783,1.5651386,-3.089664,-10.034783
501,1715729275120,1.51400588,-3.54378592,-10.274255,1.51400588,-3.54378592,-10.274255
502,1715729275130,1.457014325,-3.8878795,-10.383856999999999,1.457014325,-3.8878795,-10.383856999999999
503,1715729275140,1.3733911999999997,-4.272906,-10.443711,1.3733911999999997,-4.272906,-10.443711
504,1715729275150,1.3396578000000001,-4.3364666000000005,-10.443356,1.3396578000000001,-4.3364666000000005,-10.443356
505,1715729275160,0.9996167400000001,-4.7052693,-10.381927,0.9996167400000001,-4.7052693,-10.381927
506,1715729275170,0.7066693,-4.7457495,-10.24464,0.7066693,-4.7457495,-10.24464
507,1715729275180,0.6286720175,-4.7321673749999995,-10.186317,0.6286720175,-4.7321673749999995,-10.186317
508,1715729275190,0.077231616,-4.5401535,-9.722795,0.077231616,-4.5401535,-9.722795
509,1715729275200,-0.08175898799999999,-4.4514705,-9.571527333333334,-0.08175898799999999,-4.4514705,-9.571527333333334
510,1715729275210,-0.5021387,-4.1802278,-9.102944,-0.5021387,-4.1802278,-9.102944
511,1715729275220,-0.69162244,-3.9310892,-8.751407,-0.69162244,-3.9310892,-8.751407
512,1715729275230,-0.7459508699999999,-3.7995291,-8.5389535,-0.7459508699999999,-3.7995291,-8.5389535
513,1715729275240,-0.836924396,-3.47110828,-7.911580000000001,-0.836924396,-3.47110828,-7.911580000000001
514,1715729275250,-0.84608567,-3.4218931,-7.807849999999999,-0.84608567,-3.4218931,-7.807849999999999
515,1715729275260,-0.8056056500000001,-2.822416,-6.616086,-0.8056056500000001,-2.822416,-6.616086
516,1715729275270,-0.7979357499999999,-2.75338688,-6.4874556,-0.7979357499999999,-2.75338688,-6.4874556
517,1715729275280,-0.848748825,-2.455998525,-5.967806899999999,-0.848748825,-2.455998525,-5.967806899999999
518,1715729275290,-1.0357026,-1.8744644999999998,-4.9876976,-1.0357026,-1.8744644999999998,-4.9876976
519,1715729275300,-1.297657575,-1.74193905,-4.79205515,-1.297657575,-1.74193905,-4.79205515
520,1715729275310,-2.6843312,-1.3142691,-4.6203146,-2.6843312,-1.3142691,-4.6203146
521,1715729275320,-3.5940330499999997,-1.0531129799999999,-4.8544064,-3.5940330499999997,-1.0531129799999999,-4.8544064
522,1715729275330,-4.182691074999999,-0.87874263,-5.007238425000001,-4.182691074999999,-0.87874263,-5.007238425000001
523,1715729275340,-5.490502,-0.27803382,-5.0654616,-5.490502,-0.27803382,-5.0654616
524,1715729275350,-5.308475,-0.1482048,-4.6629252,-5.308475,-0.1482048,-4.6629252
525,1715729275360,-3.7503939,-0.0896153,-2.59152,-3.7503939,-0.0896153,-2.59152
526,1715729275370,-2.2930908999999997,-0.20845877499999999,-0.6771525583333333,-2.2930908999999997,-0.20845877499999999,-0.6771525583333333
527,1715729275380,-2.0016303,-0.23222747,-0.29427907,-2.0016303,-0.23222747,-0.29427907
528,1715729275390,-0.8750807775,-0.044607915,1.6248266825000002,-0.8750807775,-0.044607915,1.6248266825000002
529,1715729275400,-0.61415776,1.0917620675,3.5484930500000003,-0.61415776,1.0917620675,3.5484930500000003
530,1715729275410,-1.1239862,2.3610237,4.6313667,-1.1239862,2.3610237,4.6313667
531,1715729275420,-1.7544892,3.0224192,5.448158,-1.7544892,3.0224192,5.448158
532,1715729275430,-1.7544892,3.0224192,5.448158,-1.7544892,3.0224192,5.448158
533,1715729275440,-1.68051995,2.9616992499999997,6.47427295,-1.68051995,2.9616992499999997,6.47427295
534,1715729275450,-1.3913674500000002,2.7795391,7.3800799999999995,-1.3913674500000002,2.7795391,7.3800799999999995
535,1715729275460,-0.8865657,2.3674152,9.012663,-0.8865657,2.3674152,9.012663
536,1715729275470,-0.8066709,1.9329208999999998,9.600555,-0.8066709,1.9329208999999998,9.600555
537,1715729275480,-0.8066709,1.9329208999999998,9.600555,-0.8066709,1.9329208999999998,9.600555
538,1715729275490,-0.7318361250000001,1.1053774625000001,9.696961,-0.7318361250000001,1.1053774625000001,9.696961
539,1715729275500,-0.73423295,0.72784137,9.473855499999999,-0.73423295,0.72784137,9.473855499999999
540,1715729275510,-0.89934886,-0.6711161,8.473773,-0.89934886,-0.6711161,8.473773
541,1715729275520,-0.9249151320000001,-0.80480666,8.3647962,-0.9249151320000001,-0.80480666,8.3647962
542,1715729275530,-0.9007691666666666,-1.0501723666666667,8.158632233333334,-0.9007691666666666,-1.0501723666666667,8.158632233333334
543,1715729275540,-0.5042692,-1.5038860000000003,7.791205000000001,-0.5042692,-1.5038860000000003,7.791205000000001
544,1715729275550,-0.2837596075,-1.4215943500000001,7.867903975,-0.2837596075,-1.4215943500000001,7.867903975
545,1715729275560,-0.06458161,-1.28854292,8.01144858,-0.06458161,-1.28854292,8.01144858
546,1715729275570,0.186740714,-1.0904838,8.2502008,0.186740714,-1.0904838,8.2502008
547,1715729275580,0.18269272,-0.8861662,8.399338,0.18269272,-0.8861662,8.399338
548,1715729275590,0.03781686,-0.70733505,8.235287,0.03781686,-0.70733505,8.235287
549,1715729275600,-0.06115279125,-0.580302375,8.07310025,-0.06115279125,-0.580302375,8.07310025
550,1715729275610,-0.24541011,-0.26738116,7.625024,-0.24541011,-0.26738116,7.625024
551,1715729275620,-0.37324175,0.16178691,7.150049699999999,-0.37324175,0.16178691,7.150049699999999
552,1715729275630,-0.37324175,0.16178691,7.1500497,-0.37324175,0.16178691,7.1500497
553,1715729275640,-0.49553402,0.694072536,7.0100741,-0.49553402,0.694072536,7.0100741
554,1715729275650,-0.5245092,0.8317046,7.0318055,-0.5245092,0.8317046,7.0318055
555,1715729275660,-0.6724477,1.2917653,7.3758855,-0.6724477,1.2917653,7.3758855
556,1715729275670,-0.6990793,1.395096,7.4567122,-0.6990793,1.395096,7.4567122
557,1715729275680,-0.7218049133333334,1.4351765333333333,7.361593133333334,-0.7218049133333334,1.4351765333333333,7.361593133333334
558,1715729275690,-0.76725614,1.5153376,7.171355,-0.76725614,1.5153376,7.171355
559,1715729275700,-0.75926666,1.4227594749999999,7.02434825,-0.75926666,1.4227594749999999,7.02434825
560,1715729275710,-0.8024097999999998,0.82531303,6.3331256,-0.8024097999999998,0.82531303,6.3331256
561,1715729275720,-0.8641951,0.7123950999999998,6.228863,-0.8641951,0.7123950999999998,6.228863
562,1715729275730,-1.5266559,-0.40586546,5.3629365,-1.5266559,-0.40586546,5.3629365
563,1715729275740,-1.608082,-0.88190513,4.97158525,-1.608082,-0.88190513,4.97158525
564,1715729275750,-1.5441995,-1.76690615,4.18565375,-1.5441995,-1.76690615,4.18565375
565,1715729275760,-0.64048976,-1.7073513,3.3895357,-0.64048976,-1.7073513,3.3895357
566,1715729275770,-0.44117892799999997,-1.35709258,3.2233546600000005,-0.44117892799999997,-1.35709258,3.2233546600000005
567,1715729275780,-0.39135122,-1.2695279,3.1818094,-0.39135122,-1.2695279,3.1818094
568,1715729275790,0.31585065879999996,0.5671196980000001,1.77795164,0.31585065879999996,0.5671196980000001,1.77795164
569,1715729275800,0.464747882,0.68341985,1.5095585,0.464747882,0.68341985,1.5095585
570,1715729275810,1.9527614,0.19587535,-0.16857797,1.9527614,0.19587535,-0.16857797
571,1715729275820,2.9357333,0.07869635,-1.2942953,2.9357333,0.07869635,-1.2942953
572,1715729275830,3.25395428,0.21483704,-1.9384070000000002,3.25395428,0.21483704,-1.9384070000000002
573,1715729275840,3.47632816,0.42570598000000004,-2.660496,3.47632816,0.42570598000000004,-2.660496
574,1715729275850,3.386240125,0.709698625,-3.3793492250000003,3.386240125,0.709698625,-3.3793492250000003
575,1715729275860,2.6152222,0.98923045,-4.9707866,2.6152222,0.98923045,-4.9707866
576,1715729275870,2.28009028,0.424587464,-5.6942336,2.28009028,0.424587464,-5.6942336
577,1715729275880,2.2050958,-0.08322372,-6.117676,2.2050958,-0.08322372,-6.117676
578,1715729275890,2.2834991600000003,-0.591887144,-6.4935008,2.2834991600000003,-0.591887144,-6.4935008
579,1715729275900,2.3510368666666666,-0.8482605666666667,-6.700330666666666,2.3510368666666666,-0.8482605666666667,-6.700330666666666
580,1715729275910,2.6800702,-1.5954986,-7.459642,2.6800702,-1.5954986,-7.459642
581,1715729275920,2.7312028,-1.7403744,-7.6439323,2.7312028,-1.7403744,-7.6439323
582,1715729275930,2.775944,-2.1311932,-8.144473,2.775944,-2.1311932,-8.144473
583,1715729275940,2.7493124,-2.4719443,-8.371242,2.7493124,-2.4719443,-8.371242
584,1715729275950,2.73908576,-2.5882711,-8.4166218,2.73908576,-2.5882711,-8.4166218
585,1715729275960,2.6608953,-3.1727545,-8.565119,2.6608953,-3.1727545,-8.565119
586,1715729275970,2.60856432,-3.4385643999999997,-8.5810982,2.60856432,-3.4385643999999997,-8.5810982
587,1715729275980,2.5478975999999998,-3.7107658800000003,-8.5857854,2.5478975999999998,-3.7107658800000003,-8.5857854
588,1715729275990,2.39098425,-4.275036050000001,-8.480963,2.39098425,-4.275036050000001,-8.480963
589,1715729276000,2.3371885,-4.4593267,-8.400003,2.3371885,-4.4593267,-8.400003
590,1715729276010,2.1433105,-4.5199137,-8.161517,2.1433105,-4.5199137,-8.161517
591,1715729276020,2.12094,-4.4964776,-8.1252985,2.12094,-4.4964776,-8.1252985
592,1715729276030,1.9564565250000001,-4.284856400000001,-7.954323625,1.9564565250000001,-4.284856400000001,-7.954323625
593,1715729276040,1.6417044,-3.9863498,-7.727955,1.6417044,-3.9863498,-7.727955
594,1715729276050,1.44522985,-3.87403105,-7.624691,1.44522985,-3.87403105,-7.624691
595,1715729276060,0.725844,-3.5635731,-7.3051786,0.725844,-3.5635731,-7.3051786
596,1715729276070,0.51182589,-3.5116416,-7.2172944249999995,0.51182589,-3.5116416,-7.2172944249999995
597,1715729276080,-0.3242396,-3.4389374,-6.9047728,-0.3242396,-3.4389374,-6.9047728
598,1715729276090,-0.555934448,-3.47046908,-6.80165504,-0.555934448,-3.47046908,-6.80165504
599,1715729276100,-0.661795028,-3.47132138,-6.724743119999999,-0.661795028,-3.47132138,-6.724743119999999
600,1715729276110,-0.7193193,-3.3623714,-6.623543,-0.7193193,-3.3623714,-6.623543
601,1715729276120,-0.9062397600000001,-2.952012,-6.55067225,-0.9062397600000001,-2.952012,-6.55067225
602,1715729276130,-1.3072116,-2.349439,-6.429798,-1.3072116,-2.349439,-6.429798
603,1715729276140,-1.7502282,-1.6764585999999997,-6.024066,-1.7502282,-1.6764585999999997,-6.024066
604,1715729276150,-1.9116156,-1.3825124500000001,-5.751425,-1.9116156,-1.3825124500000001,-5.751425
605,1715729276160,-2.566087,-0.28655592,-4.135753,-2.566087,-0.28655592,-4.135753
606,1715729276170,-2.6534386,0.0019973693,-3.5435995999999994,-2.6534386,0.0019973693,-3.5435995999999994
607,1715729276180,-2.421211,0.31625015,-2.089914,-2.421211,0.31625015,-2.089914
608,1715729276190,-1.9760641,0.27577013,-1.4359754,-1.9760641,0.27577013,-1.4359754
609,1715729276200,-1.9760641,0.27577013,-1.4359754,-1.9760641,0.27577013,-1.4359754
610,1715729276210,-1.40436368,0.21142819999999998,-0.16588818239999997,-1.40436368,0.21142819999999998,-0.16588818239999997
611,1715729276220,-1.3391695,0.32903332,0.4490086,-1.3391695,0.32903332,0.4490086
612,1715729276230,-1.5298518,0.9050746000000001,1.6130755,-1.5298518,0.9050746000000001,1.6130755
613,1715729276240,-1.696965,1.2917653,2.3170817,-1.696965,1.2917653,2.3170817
614,1715729276250,-1.7225313200000003,1.35648006,2.5177241,-1.7225313200000003,1.35648006,2.5177241
615,1715729276260,-1.6427697,1.5558176,3.6610448,-1.6427697,1.5558176,3.6610448
616,1715729276270,-1.5362433,1.5355775,4.0147123,-1.5362433,1.5355775,4.0147123
617,1715729276280,-1.1218557,1.2193274,5.1638656,-1.1218557,1.2193274,5.1638656
618,1715729276290,-0.8333025,0.82744354,5.9252625,-0.8333025,0.82744354,5.9252625
619,1715729276300,-0.672714,0.563790775,6.319843125,-0.672714,0.563790775,6.319843125
620,1715729276310,-0.277368,-0.09281109,7.1788116,-0.277368,-0.09281109,7.1788116
621,1715729276320,-0.277368,-0.09281109,7.1788116,-0.277368,-0.09281109,7.1788116
622,1715729276330,0.15925692,-0.66685504,7.8700347,0.15925692,-0.66685504,7.8700347
623,1715729276340,0.35696986399999997,-0.9062197599999999,8.15371414,0.35696986399999997,-0.9062197599999999,8.15371414
624,1715729276350,0.448442715,-1.002279905,8.27150575,0.448442715,-1.002279905,8.27150575
625,1715729276360,0.86645883,-1.3163996,8.6900215,0.86645883,-1.3163996,8.6900215
626,1715729276370,0.9640635866666667,-1.3707280333333334,8.770981333333333,0.9640635866666667,-1.3707280333333334,8.770981333333333
627,1715729276380,1.7524918,-1.6913724,9.319459,1.7524918,-1.6913724,9.319459
628,1715729276390,2.116812,-1.7041556,9.433442,2.116812,-1.7041556,9.433442
629,1715729276400,2.2442442000000002,-1.6114776333333332,9.416753,2.2442442000000002,-1.6114776333333332,9.416753
630,1715729276410,2.4351926,-0.87551355,9.160735,2.4351926,-0.87551355,9.160735
631,1715729276420,2.19950315,-0.4537690125,8.97867475,2.19950315,-0.4537690125,8.97867475
632,1715729276430,1.3948962,0.48795732500000005,8.517016250000001,1.3948962,0.48795732500000005,8.517016250000001
633,1715729276440,0.17523587,1.5313165,7.8902745,0.17523587,1.5313165,7.8902745
634,1715729276450,-0.162133118,1.70388922,7.715145100000001,-0.162133118,1.70388922,7.715145100000001
635,1715729276460,-1.1559442,1.8370471,7.102113,-1.1559442,1.8370471,7.102113
636,1715729276470,-1.2129358,1.7411734,7.031272749999999,-1.2129358,1.7411734,7.031272749999999
637,1715729276480,-1.1804453,1.137302,6.585593,-1.1804453,1.137302,6.585593
638,1715729276490,-0.9355678,1.0574074,6.365083000000001,-0.9355678,1.0574074,6.365083000000001
639,1715729276500,-0.9355678,1.0574074,6.365083000000001,-0.9355678,1.0574074,6.365083000000001
640,1715729276510,-0.7185203149999999,1.346626375,6.01048375,-0.7185203149999999,1.346626375,6.01048375
641,1715729276520,-0.79255614,1.6330825,5.796731749999999,-0.79255614,1.6330825,5.796731749999999
642,1715729276530,-1.5128075,2.1447752,5.095689,-1.5128075,2.1447752,5.095689
643,1715729276540,-2.0037608,2.0648804,4.4651856,-2.0037608,2.0648804,4.4651856
644,1715729276550,-2.0037608,2.0648804,4.4651856,-2.0037608,2.0648804,4.4651856
645,1715729276560,-2.137984,1.7433039,3.9348176,-2.137984,1.7433039,3.9348176
646,1715729276570,-1.6305723999999997,1.07170848,3.42109418,-1.6305723999999997,1.07170848,3.42109418
647,1715729276580,0.32833422749999996,0.2584263025,3.1748851250000003,0.32833422749999996,0.2584263025,3.1748851250000003
648,1715729276590,0.88669884,0.38216335,3.3458600000000005,0.88669884,0.38216335,3.3458600000000005
649,1715729276600,0.88669884,0.38216335,3.34586,0.88669884,0.38216335,3.34586
650,1715729276610,1.1741868,0.85833615,3.531216,1.1741868,0.85833615,3.531216
651,1715729276620,0.9413379733333334,1.3922107833333335,3.4055148,0.9413379733333334,1.3922107833333335,3.4055148
652,1715729276630,0.32756856,2.0180087,2.3895195,0.32756856,2.0180087,2.3895195
653,1715729276640,0.35473278750000004,1.875097025,1.872700125,0.35473278750000004,1.875097025,1.872700125
654,1715729276650,0.4602737840000001,1.6973112000000001,1.52918588,0.4602737840000001,1.6973112000000001,1.52918588
655,1715729276660,1.597029925,0.7501785999999999,0.27147577375,1.597029925,0.7501785999999999,0.27147577375
656,1715729276670,2.10685835,0.600808695,-0.11028806875,2.10685835,0.600808695,-0.11028806875
657,1715729276680,2.6354623,1.1969569,-0.827843,2.6354623,1.1969569,-0.827843
658,1715729276690,2.4959128,2.010552,-1.5009564,2.4959128,2.010552,-1.5009564
659,1715729276700,2.3862239250000004,2.1948093,-1.707018325,2.3862239250000004,2.1948093,-1.707018325
660,1715729276710,1.6427697,3.0383983,-3.1943262,1.6427697,3.0383983,-3.1943262
661,1715729276720,1.5890404500000002,2.9947225,-3.3939965,1.5890404500000002,2.9947225,-3.3939965
662,1715729276730,1.7492960999999998,1.9318555999999998,-4.5595946,1.7492960999999998,1.9318555999999998,-4.5595946
663,1715729276740,2.2008348,0.98923045,-5.022851,2.2008348,0.98923045,-5.022851
664,1715729276750,2.2008348,0.98923045,-5.022851,2.2008348,0.98923045,-5.022851
665,1715729276760,3.013231375,-0.19657443500000002,-5.8480646,3.013231375,-0.19657443500000002,-5.8480646
666,1715729276770,3.2335012,-0.476812012,-6.17930152,3.2335012,-0.476812012,-6.17930152
667,1715729276780,3.4117732,-0.90001464,-6.9026423,3.4117732,-0.90001464,-6.9026423
668,1715729276790,3.3414656999999997,-1.1524822,-7.3403325,3.3414656999999997,-1.1524822,-7.3403325
669,1715729276800,3.3414657,-1.1524822,-7.3403325,3.3414657,-1.1524822,-7.3403325
670,1715729276810,3.0859356,-1.9788603999999999,-8.083754,3.0859356,-1.9788603999999999,-8.083754
671,1715729276820,3.065429275,-2.0643478,-8.13698375,3.065429275,-2.0643478,-8.13698375
672,1715729276830,2.832403,-2.8437214,-8.505465,2.832403,-2.8437214,-8.505465
673,1715729276840,2.792988,-2.9383967,-8.513987,2.792988,-2.9383967,-8.513987
674,1715729276850,2.792988,-2.9383967,-8.513987,2.792988,-2.9383967,-8.513987
675,1715729276860,2.5630243,-3.7659733,-8.195606,2.5630243,-3.7659733,-8.195606
676,1715729276870,2.5989769750000002,-3.836280625,-8.1133145,2.5989769750000002,-3.836280625,-8.1133145
677,1715729276880,2.79663664,-4.12209088,-7.8498216,2.79663664,-4.12209088,-7.8498216
678,1715729276890,2.95043406,-4.41352034,-7.64774096,2.95043406,-4.41352034,-7.64774096
679,1715729276900,2.9772787,-4.4699793,-7.6119747,2.9772787,-4.4699793,-7.6119747
680,1715729276910,2.899248175,-4.9351002,-7.3328757499999995,2.899248175,-4.9351002,-7.3328757499999995
681,1715729276920,2.7386596,-5.0566735,-7.2167616,2.7386596,-5.0566735,-7.2167616
682,1715729276930,2.2285316,-5.070522,-6.996385,2.2285316,-5.070522,-6.996385
683,1715729276940,1.6193339,-4.9598675,-6.801442,1.6193339,-4.9598675,-6.801442
684,1715729276950,1.6193339,-4.9598675,-6.801442,1.6193339,-4.9598675,-6.801442
685,1715729276960,0.33715594,-4.3091245,-6.3424463,0.33715594,-4.3091245,-6.3424463
686,1715729276970,0.16831165409999999,-4.1450739,-6.2630844,0.16831165409999999,-4.1450739,-6.2630844
687,1715729276980,-0.3892207,-3.351719,-5.9867816,-0.3892207,-3.351719,-5.9867816
688,1715729276990,-0.6639256,-2.845852,-5.8738637,-0.6639256,-2.845852,-5.8738637
689,1715729277000,-0.9467530749999999,-2.4552662499999998,-5.743635425,-0.9467530749999999,-2.4552662499999998,-5.743635425
690,1715729277010,-1.465936,-1.8968351,-5.2348385,-1.465936,-1.8968351,-5.2348385
691,1715729277020,-1.6156943333333331,-1.6689573666666668,-4.8145035,-1.6156943333333331,-1.6689573666666668,-4.8145035
692,1715729277030,-1.8961692999999997,-0.8787093,-3.2955263,-1.8961692999999997,-0.8787093,-3.2955263
693,1715729277040,-1.955113833333333,-0.6302365666666666,-2.9043082333333334,-1.955113833333333,-0.6302365666666666,-2.9043082333333334
694,1715729277050,-2.0740683,-0.28442538,-2.1762004,-2.0740683,-0.28442538,-2.1762004
695,1715729277060,-1.9749988000000003,-0.3462107,-1.6682029,-1.9749988000000003,-0.3462107,-1.6682029
696,1715729277070,-1.91832676,-0.35260228,-1.4513685,-1.91832676,-0.35260228,-1.4513685
697,1715729277080,-1.5948328,-0.20879167,-0.027031064000000004,-1.5948328,-0.20879167,-0.027031064000000004
698,1715729277090,-1.4403696,0.09574057,0.98470306,-1.4403696,0.09574057,0.98470306
699,1715729277100,-1.41182056,0.267407806,1.383910596,-1.41182056,0.267407806,1.383910596
700,1715729277110,-1.33916955,0.714459,2.4241404500000003,-1.33916955,0.714459,2.4241404500000003
701,1715729277120,-1.3093421,0.90400934,2.865559,-1.3093421,0.90400934,2.865559
702,1715729277130,-1.3093421,0.90400934,2.865559,-1.3093421,0.90400934,2.865559
703,1715729277140,-0.9241605666666667,1.2501756133333333,3.8648651666666667,-0.9241605666666667,1.2501756133333333,3.8648651666666667
704,1715729277150,-0.13888375,1.3258537,5.5781198,-0.13888375,1.3258537,5.5781198
705,1715729277160,0.13901691,1.0776473,6.310888299999999,0.13901691,1.0776473,6.310888299999999
706,1715729277170,0.27324011249999997,0.916359725,6.699076825,0.27324011249999997,0.916359725,6.699076825
707,1715729277180,0.518417195,0.585362355,7.413103250000001,0.518417195,0.585362355,7.413103250000001
708,1715729277190,0.8345009,0.23422484,8.209721,0.8345009,0.23422484,8.209721
709,1715729277200,1.178448,0.04034686,8.72411,1.178448,0.04034686,8.72411
710,1715729277210,1.52945232,-0.05083970480000001,9.0376168,1.52945232,-0.05083970480000001,9.0376168
711,1715729277220,1.9516962,-0.1013332,9.341829,1.9516962,-0.1013332,9.341829
712,1715729277230,2.359559,-0.038482647,9.564337,2.359559,-0.038482647,9.564337
713,1715729277240,2.509761,0.18522272,9.598425,2.509761,0.18522272,9.598425
714,1715729277250,2.4224095,0.58030236,9.495228,2.4224095,0.58030236,9.495228
715,1715729277260,2.0241342,1.1191926,9.248086,2.0241342,1.1191926,9.248086
716,1715729277270,1.7141423,1.3897696,9.087232,1.7141423,1.3897696,9.087232
717,1715729277280,0.41278967,2.2129521,8.532362,0.41278967,2.2129521,8.532362
718,1715729277290,-0.34128383,2.6527727,8.258722,-0.34128383,2.6527727,8.258722
719,1715729277300,-1.1215894100000001,3.1071964333333333,7.9861036,-1.1215894100000001,3.1071964333333333,7.9861036
720,1715729277310,-2.2241373,3.6538544,7.490801,-2.2241373,3.6538544,7.490801
721,1715729277320,-2.2241373,3.6538544,7.490801,-2.2241373,3.6538544,7.490801
722,1715729277330,-2.8197263,3.6647200599999996,6.8484734000000005,-2.8197263,3.6647200599999996,6.8484734000000005
723,1715729277340,-3.0485182,3.4547832,6.3108883,-3.0485182,3.4547832,6.3108883
724,1715729277350,-3.0173592,3.082240475,5.81131275,-3.0173592,3.082240475,5.81131275
725,1715729277360,-2.9110992,2.8370633,5.526987,-2.9110992,2.8370633,5.526987
726,1715729277370,-2.81582475,2.74811385,5.3996882,-2.81582475,2.74811385,5.3996882
727,1715729277380,-2.3423815,2.6122928,4.928442,-2.3423815,2.6122928,4.928442
728,1715729277390,-2.0506325,2.7433202,4.7963495,-2.0506325,2.7433202,4.7963495
729,1715729277400,-1.7555544,2.8860655,4.819785,-1.7555544,2.8860655,4.819785
730,1715729277410,-1.3913674,2.9840698,4.983836,-1.3913674,2.9840698,4.983836
731,1715729277420,-1.0165278,2.8242803,5.206476,-1.0165278,2.8242803,5.206476
732,1715729277430,-0.0047936863,1.6740618,5.549358,-0.0047936863,1.6740618,5.549358
733,1715729277440,1.2338417,0.28003117,5.794235,1.2338417,0.28003117,5.794235
734,1715729277450,1.2338417,0.28003117,5.794235,1.2338417,0.28003117,5.794235
735,1715729277460,3.7429368,-1.8915087,5.846433,3.7429368,-1.8915087,5.846433
736,1715729277470,3.90166125,-1.9873824500000001,5.691504,3.90166125,-1.9873824500000001,5.691504
737,1715729277480,3.6780891,-1.6093471,4.797415,3.6780891,-1.6093471,4.797415
738,1715729277490,2.8899271,-0.8233156,4.1127167,2.8899271,-0.8233156,4.1127167
739,1715729277500,1.9921762,0.044607915,3.2947273,1.9921762,0.044607915,3.2947273
740,1715729277510,1.4724606,0.6016076,2.6024392,1.4724606,0.6016076,2.6024392
741,1715729277520,1.3233681,0.7020531,2.2822386666666667,1.3233681,0.7020531,2.2822386666666667
742,1715729277530,0.88882935,0.7795067,0.6588656,0.88882935,0.7795067,0.6588656
743,1715729277540,1.2455594749999999,0.284292225,-0.70170915,1.2455594749999999,0.284292225,-0.70170915
744,1715729277550,1.4948312,0.16285218,-1.2113379,1.4948312,0.16285218,-1.2113379
745,1715729277560,1.9239993,0.18202692,-2.0739353,1.9239993,0.18202692,-2.0739353
746,1715729277570,2.0269037400000003,0.22868547,-2.53972172,2.0269037400000003,0.22868547,-2.53972172
747,1715729277580,1.980458275,0.1471395395,-3.3878379,1.980458275,0.1471395395,-3.3878379
748,1715729277590,1.6086812,-0.21837905,-4.32537,1.6086812,-0.21837905,-4.32537
749,1715729277600,1.2860395,-0.6977477,-5.1251163,1.2860395,-0.6977477,-5.1251163
750,1715729277610,1.0177263,-1.3238564,-5.8610806,1.0177263,-1.3238564,-5.8610806
751,1715729277620,0.883503075,-1.7759609,-6.3451432,0.883503075,-1.7759609,-6.3451432
752,1715729277630,0.7354314,-2.4133549,-7.0347347,0.7354314,-2.4133549,-7.0347347
753,1715729277640,0.7105752666666666,-2.5312439666666666,-7.1923049,0.7105752666666666,-2.5312439666666666,-7.1923049
754,1715729277650,0.6203829,-2.8692876999999997,-7.852591,0.6203829,-2.8692876999999997,-7.852591
755,1715729277660,0.5556681299999999,-2.8979497750000003,-8.128927,0.5556681299999999,-2.8979497750000003,-8.128927
756,1715729277670,0.53409654,-2.9075038,-8.221039,0.53409654,-2.9075038,-8.221039
757,1715729277680,0.41492018,-2.960767,-8.618382,0.41492018,-2.960767,-8.618382
758,1715729277690,0.3797665,-3.0278788,-8.703604,0.3797665,-3.0278788,-8.703604
759,1715729277700,0.30519804,-3.5401373,-8.838758,0.30519804,-3.5401373,-8.838758
760,1715729277710,0.30732855,-3.6296195999999994,-8.839824,0.30732855,-3.6296195999999994,-8.839824
761,1715729277720,0.4116911025,-3.9198041,-8.67640625,0.4116911025,-3.9198041,-8.67640625
762,1715729277730,0.5564671,-4.055592,-8.435157,0.5564671,-4.055592,-8.435157
763,1715729277740,0.6342313,-4.0044594,-8.317978,0.6342313,-4.0044594,-8.317978
764,1715729277750,0.7695198,-3.7073839,-8.017707,0.7695198,-3.7073839,-8.017707
765,1715729277760,0.7247788,-3.5806174,-7.8387427,0.7247788,-3.5806174,-7.8387427
766,1715729277770,0.651275575,-3.5262889,-7.7292868,0.651275575,-3.5262889,-7.7292868
767,1715729277780,0.44962114,-3.37278436,-7.5616675,0.44962114,-3.37278436,-7.5616675
768,1715729277790,0.3246390775,-3.2814115,-7.503317474999999,0.3246390775,-3.2814115,-7.503317474999999
769,1715729277800,-0.15379743,-2.968224,-7.4085093,-0.15379743,-2.968224,-7.4085093
770,1715729277810,-0.210682512,-2.93307036,-7.39253016,-0.210682512,-2.93307036,-7.39253016
771,1715729277820,-0.53349735,-2.7307368,-7.272687899999999,-0.53349735,-2.7307368,-7.272687899999999
772,1715729277830,-1.1346389,-2.23985,-6.8845325,-1.1346389,-2.23985,-6.8845325
773,1715729277840,-1.1974895,-2.1003003,-6.751374700000001,-1.1974895,-2.1003003,-6.751374700000001
774,1715729277850,-1.2006853,-1.5614102,-6.47667,-1.2006853,-1.5614102,-6.47667
775,1715729277860,-1.0740521,-1.1247853,-6.3829265,-1.0740521,-1.1247853,-6.3829265
776,1715729277870,-1.0740521,-1.1247853,-6.3829265,-1.0740521,-1.1247853,-6.3829265
777,1715729277880,-0.84928143,0.053130023,-5.992107999999999,-0.84928143,0.053130023,-5.992107999999999
778,1715729277890,-0.8441681759999999,0.20524967119999998,-5.84318422,-0.8441681759999999,0.20524967119999998,-5.84318422
779,1715729277900,-1.053812,1.0020136,-4.993024,-1.053812,1.0020136,-4.993024
780,1715729277910,-1.5458307,1.5302513,-4.2358875,-1.5458307,1.5302513,-4.2358875
781,1715729277920,-1.5894732249999999,1.575258675,-4.111817625,-1.5894732249999999,1.575258675,-4.111817625
782,1715729277930,-1.6575502,1.8423735,-2.947185,-1.6575502,1.8423735,-2.947185
783,1715729277940,-1.6088477,1.821867175,-2.7709504750000002,-1.6088477,1.821867175,-2.7709504750000002
784,1715729277950,-1.029311,1.3056138,-1.0057421,-1.029311,1.3056138,-1.0057421
785,1715729277960,-0.9602819119999999,1.2289147599999999,-0.822516684,-0.9602819119999999,1.2289147599999999,-0.822516684
786,1715729277970,-0.94302464,1.20974,-0.77671033,-0.94302464,1.20974,-0.77671033
787,1715729277980,-0.5840308,0.52916974,1.2222569,-0.5840308,0.52916974,1.2222569
788,1715729277990,-0.6351634,0.4418181,1.5970966,-0.6351634,0.4418181,1.5970966
789,1715729278000,-0.75681654,0.212679884,2.84233646,-0.75681654,0.212679884,2.84233646
790,1715729278010,-0.7832351,0.04034686,3.8261607,-0.7832351,0.04034686,3.8261607
791,1715729278020,-0.7832351000000001,0.04034686,3.8261607000000004,-0.7832351000000001,0.04034686,3.8261607000000004
792,1715729278030,-0.7477263000000001,-0.06617950666666667,4.372907566666666,-0.7477263000000001,-0.06617950666666667,4.372907566666666
793,1715729278040,-0.7012098,-0.246675115,5.16067,-0.7012098,-0.246675115,5.16067
794,1715729278050,-0.64048976,-0.63809294,6.5387216,-0.64048976,-0.63809294,6.5387216
795,1715729278060,-0.5946834,-0.8137283,7.060567399999999,-0.5946834,-0.8137283,7.060567399999999
796,1715729278070,-0.5946834,-0.8137283,7.060567399999999,-0.5946834,-0.8137283,7.060567399999999
797,1715729278080,-0.3476754,-1.2057453,7.81038,-0.3476754,-1.2057453,7.81038
798,1715729278090,-0.20642145000000003,-1.31432232,7.9464405,-0.20642145000000003,-1.31432232,7.9464405
799,1715729278100,0.55220604,-1.6604797,8.38762,0.55220604,-1.6604797,8.38762
800,1715729278110,0.963717368,-1.81462338,8.583521600000001,0.963717368,-1.81462338,8.583521600000001
801,1715729278120,1.1324640166666666,-1.8749971833333332,8.655222666666667,1.1324640166666666,-1.8749971833333332,8.655222666666667
802,1715729278130,1.9421088,-2.0939088,8.82531,1.9421088,-2.0939088,8.82531
803,1715729278140,2.13971512,-2.0802735199999995,8.7665068,2.13971512,-2.0802735199999995,8.7665068
804,1715729278150,2.1912472,-1.6434355,8.281094,2.1912472,-1.6434355,8.281094
805,1715729278160,1.6949676,-1.0896316,7.882817700000001,1.6949676,-1.0896316,7.882817700000001
806,1715729278170,1.45768016,-0.87705822,7.77629142,1.45768016,-0.87705822,7.77629142
807,1715729278180,0.13736576400000003,0.30658289000000005,7.3617972,0.13736576400000003,0.30658289000000005,7.3617972
808,1715729278190,-0.3433477975,0.75440639,7.2571085,-0.3433477975,0.75440639,7.2571085
809,1715729278200,-1.7630113,2.1788635,6.9646935,-1.7630113,2.1788635,6.9646935
810,1715729278210,-1.7630112999999998,2.1788635,6.9646935,-1.7630112999999998,2.1788635,6.9646935
811,1715729278220,-1.940610725,2.375105075,6.833433125,-1.940610725,2.375105075,6.833433125
812,1715729278230,-2.47767,3.2033808,6.072269,-2.47767,3.2033808,6.072269
813,1715729278240,-2.3675927333333333,3.2403099333333336,5.878391000000001,-2.3675927333333333,3.2403099333333336,5.878391000000001
814,1715729278250,-1.717205,2.9595687,5.374655,-1.717205,2.9595687,5.374655
815,1715729278260,-1.44801292,2.7703779,5.2706848399999995,-1.44801292,2.7703779,5.2706848399999995
816,1715729278270,-1.3807149,2.7230802,5.2446923,-1.3807149,2.7230802,5.2446923
817,1715729278280,1.223189,1.0254494,4.746282,1.223189,1.0254494,4.746282
818,1715729278290,1.42955055,0.9719532000000001,4.73406475,1.42955055,0.9719532000000001,4.73406475
819,1715729278300,2.7812703000000005,0.9679252000000002,4.615388,2.7812703000000005,0.9679252000000002,4.615388
820,1715729278310,2.7003102,1.4227928,4.6377583,2.7003102,1.4227928,4.6377583
821,1715729278320,2.0017636,2.2044299,4.68463,2.0017636,2.2044299,4.68463
822,1715729278330,1.094292,3.1490524,4.700609,1.094292,3.1490524,4.700609
823,1715729278340,1.094292,3.1490524,4.700609,1.094292,3.1490524,4.700609
824,1715729278350,0.11664637,3.2321432,4.5216446,0.11664637,3.2321432,4.5216446
825,1715729278360,0.14647374600000002,3.02771904,4.4628422,0.14647374600000002,3.02771904,4.4628422
826,1715729278370,1.2561788975,1.105876825,3.83464955,1.2561788975,1.105876825,3.83464955
827,1715729278380,2.4937823,-0.26525065,3.0636983,2.4937823,-0.26525065,3.0636983
828,1715729278390,3.01267206,-0.50727853,2.52265086,3.01267206,-0.50727853,2.52265086
829,1715729278400,3.2370698,-0.27377275,0.8751141,3.2370698,-0.27377275,0.8751141
830,1715729278410,3.1125672,-0.13435638,0.6130592,3.1125672,-0.13435638,0.6130592
831,1715729278420,2.0241342,0.8976177599999999,-0.9279778000000001,2.0241342,0.8976177599999999,-0.9279778000000001
832,1715729278430,1.2221237,1.4663354,-1.9865836000000001,1.2221237,1.4663354,-1.9865836000000001
833,1715729278440,1.0118007125,1.51081015,-2.456265,1.0118007125,1.51081015,-2.456265
834,1715729278450,0.38083175,1.6442344,-3.8653092,0.38083175,1.6442344,-3.8653092
835,1715729278460,0.515241394,1.0039577,-4.451044260000001,0.515241394,1.0039577,-4.451044260000001
836,1715729278470,0.8930903999999998,-0.1130511,-5.1964893,0.8930903999999998,-0.1130511,-5.1964893
837,1715729278480,1.09410568,-0.591887124,-5.45215266,1.09410568,-0.591887124,-5.45215266
838,1715729278490,1.3033168,-1.0470543475,-5.704020875,1.3033168,-1.0470543475,-5.704020875
839,1715729278500,2.1678114,-2.8936555,-6.9569707,2.1678114,-2.8936555,-6.9569707
840,1715729278510,2.1678114,-2.9355558333333334,-7.018045566666667,2.1678114,-2.9355558333333334,-7.018045566666667
841,1715729278520,1.7737972,-3.093925,-7.5448627,1.7737972,-3.093925,-7.5448627
842,1715729278530,1.477787,-3.1194913,-7.7045193,1.477787,-3.1194913,-7.7045193
843,1715729278540,1.30588006,-3.20362058,-7.78633158,1.30588006,-3.20362058,-7.78633158
844,1715729278550,0.9048083,-3.4368070000000004,-7.978291999999999,0.9048083,-3.4368070000000004,-7.978291999999999
845,1715729278560,0.782303,-3.6147058000000003,-8.0454035,0.782303,-3.6147058000000003,-8.0454035
846,1715729278570,0.8749809,-3.7702343,-8.024098,0.8749809,-3.7702343,-8.024098
847,1715729278580,1.0436121799999998,-3.8409678200000004,-7.9840444,1.0436121799999998,-3.8409678200000004,-7.9840444
848,1715729278590,1.17045845,-3.89966385,-7.9303550000000005,1.17045845,-3.89966385,-7.9303550000000005
849,1715729278600,1.4479597,-4.0619836,-7.7545867,1.4479597,-4.0619836,-7.7545867
850,1715729278610,1.4341111,-4.157857,-7.768434999999999,1.4341111,-4.157857,-7.768434999999999
851,1715729278620,1.3119609,-4.210410133333333,-7.815306799999999,1.3119609,-4.210410133333333,-7.815306799999999
852,1715729278630,0.976181,-4.262253,-7.9197025,0.976181,-4.262253,-7.9197025
853,1715729278640,0.828535424,-4.2213468,-7.945268799999999,0.828535424,-4.2213468,-7.945268799999999
854,1715729278650,0.24341275,-3.8000616999999997,-7.890939999999999,0.24341275,-3.8000616999999997,-7.890939999999999
855,1715729278660,0.045273706,-3.5923352,-7.817437,0.045273706,-3.5923352,-7.817437
856,1715729278670,-0.41691756,-3.0917945,-7.5576463,-0.41691756,-3.0917945,-7.5576463
857,1715729278680,-0.65859926,-2.8522434,-7.382942699999999,-0.65859926,-2.8522434,-7.382942699999999
858,1715729278690,-0.72943928,-2.75690235,-7.31849435,-0.72943928,-2.75690235,-7.31849435
859,1715729278700,-0.8700540999999999,-2.44644455,-7.187001,-0.8700540999999999,-2.44644455,-7.187001
860,1715729278710,-0.9526120199999999,-2.1333236399999995,-7.1131383999999995,-0.9526120199999999,-2.1333236399999995,-7.1131383999999995
861,1715729278720,-0.9813741199999999,-1.063372808,-7.096094000000001,-0.9813741199999999,-1.063372808,-7.096094000000001
862,1715729278730,-1.0378331,0.16072164,-6.864292600000001,-1.0378331,0.16072164,-6.864292600000001
863,1715729278740,-1.0378331,0.16072164,-6.864292600000001,-1.0378331,0.16072164,-6.864292600000001
864,1715729278750,-1.0516815333333334,0.3968106933333333,-6.7123593999999995,-1.0516815333333334,0.3968106933333333,-6.7123593999999995
865,1715729278760,-1.3029506,1.7773924,-5.0004807,-1.3029506,1.7773924,-5.0004807
866,1715729278770,-1.3165859599999998,1.7646092799999997,-3.90741374,-1.3165859599999998,1.7646092799999997,-3.90741374
867,1715729278780,-1.29187184,1.7158201800000001,-3.57023116,-1.29187184,1.7158201800000001,-3.57023116
868,1715729278790,-0.620116584,1.01018948,-2.50230428,-0.620116584,1.01018948,-2.50230428
869,1715729278800,0.15819165,0.34181648,-0.8949546,0.15819165,0.34181648,-0.8949546
870,1715729278810,0.29284097,0.22591579199999998,0.0030626319999999875,0.29284097,0.22591579199999998,0.0030626319999999875
871,1715729278820,0.26578328,0.2640522,1.0677936,0.26578328,0.2640522,1.0677936
872,1715729278830,0.007989477,0.5259739,2.2190773,0.007989477,0.5259739,2.2190773
873,1715729278840,-0.10317078179999999,0.6801708200000001,2.6940783799999997,-0.10317078179999999,0.6801708200000001,2.6940783799999997
874,1715729278850,-0.26991117,0.9114662,3.40658,-0.26991117,0.9114662,3.40658
875,1715729278860,-0.454627888,1.4750705,4.9829574,-0.454627888,1.4750705,4.9829574
876,1715729278870,-0.64048976,1.7923061,6.556831,-0.64048976,1.7923061,6.556831
877,1715729278880,-0.74275506,1.7763271,7.333275,-0.74275506,1.7763271,7.333275
878,1715729278890,-0.7328126066666667,1.6875551333333334,7.539137166666667,-0.7328126066666667,1.6875551333333334,7.539137166666667
879,1715729278900,-0.45526704,0.96685994,8.466449,-0.45526704,0.96685994,8.466449
880,1715729278910,-0.25073642,0.6261087,8.694283,-0.25073642,0.6261087,8.694283
881,1715729278920,0.5628587,-0.3685812,9.087232,0.5628587,-0.3685812,9.087232
882,1715729278930,1.0025653428571428,-0.7580682428571428,9.059077714285714,1.0025653428571428,-0.7580682428571428,9.059077714285714
883,1715729278940,1.3045041666666666,-1.0125775066666665,8.997083166666666,1.3045041666666666,-1.0125775066666665,8.997083166666666
884,1715729278950,1.7370788,-1.397659175,8.5665505,1.7370788,-1.397659175,8.5665505
885,1715729278960,1.7529179400000001,-1.4840721000000001,8.2838627,1.7529179400000001,-1.4840721000000001,8.2838627
886,1715729278970,1.2263848,-1.3036164,7.654851400000001,1.2263848,-1.3036164,7.654851400000001
887,1715729278980,0.8376967,-0.8882967,7.478018,0.8376967,-0.8882967,7.478018
888,1715729278990,0.70475182,-0.6576405000000001,7.475460979999999,0.70475182,-0.6576405000000001,7.475460979999999
889,1715729279000,0.3296991,0.14048164,7.5451293,0.3296991,0.14048164,7.5451293
890,1715729279010,0.272707495,0.26451827,7.555781850000001,0.272707495,0.26451827,7.555781850000001
891,1715729279020,-0.11864374,1.1362368,7.6196976,-0.11864374,1.1362368,7.6196976
892,1715729279030,-0.33915332,1.5622091,7.617566999999999,-0.33915332,1.5622091,7.617566999999999
893,1715729279040,-0.565814804,1.8581127000000002,7.526194080000001,-0.565814804,1.8581127000000002,7.526194080000001
894,1715729279050,-0.8972183,2.1980383,7.3236876,-0.8972183,2.1980383,7.3236876
895,1715729279060,-1.0729868,2.273672,7.171355,-1.0729868,2.273672,7.171355
896,1715729279070,-1.6203991,2.4238741,6.6282034,-1.6203991,2.4238741,6.6282034
897,1715729279080,-1.6990955,2.4323964,6.4577613,-1.6990955,2.4323964,6.4577613
898,1715729279090,-1.7915071500000002,2.422276375,6.307359525,-1.7915071500000002,2.422276375,6.307359525
899,1715729279100,-1.8152093,2.4196131,6.1542945,-1.8152093,2.4196131,6.1542945
900,1715729279110,-1.3359737,2.5419853,6.4247384,-1.3359737,2.5419853,6.4247384
901,1715729279120,-0.76086456,2.6708822,6.7208815,-0.76086456,2.6708822,6.7208815
902,1715729279130,-0.13355742,2.847716,6.914626,-0.13355742,2.847716,6.914626
903,1715729279140,-0.03851593250000001,2.865292825,6.90344085,-0.03851593250000001,2.865292825,6.90344085
904,1715729279150,0.513244026,2.92143218,6.68932324,0.513244026,2.92143218,6.68932324
905,1715729279160,0.6736461,2.8967180800000003,6.5811189400000005,0.6736461,2.8967180800000003,6.5811189400000005
906,1715729279170,0.919722,2.7699518,6.887995,0.919722,2.7699518,6.887995
907,1715729279180,0.8920251,2.6410549,7.142593,0.8920251,2.6410549,7.142593
908,1715729279190,0.8140478200000001,2.4945279,7.1477062,0.8140478200000001,2.4945279,7.1477062
909,1715729279200,0.41492018,1.4844449,6.291713,0.41492018,1.4844449,6.291713
910,1715729279210,0.402137028,1.40779918,6.18561284,0.402137028,1.40779918,6.18561284
911,1715729279220,0.63103557,-0.23648852,4.3256364,0.63103557,-0.23648852,4.3256364
912,1715729279230,1.3616732,-1.2950943,3.2808788,1.3616732,-1.2950943,3.2808788
913,1715729279240,1.3616732,-1.2950943,3.2808788,1.3616732,-1.2950943,3.2808788
914,1715729279250,2.89208424,-1.85656812,1.57459282,2.89208424,-1.85656812,1.57459282
915,1715729279260,3.2562447,-1.4900376,0.59175396,3.2562447,-1.4900376,0.59175396
916,1715729279270,2.8995144,-0.731703,-0.9279778000000001,2.8995144,-0.731703,-0.9279778000000001
917,1715729279280,2.395778,-0.29188225,-1.9450381999999997,2.395778,-0.29188225,-1.9450381999999997
918,1715729279290,2.24560244,-0.22479727,-2.20235262,2.24560244,-0.22479727,-2.20235262
919,1715729279300,0.8898946,0.066978455,-4.467982,0.8898946,0.066978455,-4.467982
920,1715729279310,0.78699016,-0.033369381999999996,-4.698079,0.78699016,-0.033369381999999996,-4.698079
921,1715729279320,0.705604,-1.0491515,-5.7726636,0.705604,-1.0491515,-5.7726636
922,1715729279330,0.73692277,-1.16483912,-5.853197639999999,0.73692277,-1.16483912,-5.853197639999999
923,1715729279340,0.75780195,-1.2419642,-5.906887,0.75780195,-1.2419642,-5.906887
924,1715729279350,1.27006055,-2.3979751,-6.991524999999999,1.27006055,-2.3979751,-6.991524999999999
925,1715729279360,1.3414333,-2.5102937,-7.5054483,1.3414333,-2.5102937,-7.5054483
926,1715729279370,1.1709911,-2.3027005,-8.229561,1.1709911,-2.3027005,-8.229561
927,1715729279380,0.9889641399999999,-2.2696774,-8.678037,0.9889641399999999,-2.2696774,-8.678037
928,1715729279390,0.98896414,-2.2696774,-8.678037,0.98896414,-2.2696774,-8.678037
929,1715729279400,0.786297735,-2.6469137500000004,-9.23946425,0.786297735,-2.6469137500000004,-9.23946425
930,1715729279410,0.75194299,-2.78643,-9.35953925,0.75194299,-2.78643,-9.35953925
931,1715729279420,0.810425936,-3.71486728,-9.6782664,0.810425936,-3.71486728,-9.6782664
932,1715729279430,0.9857682999999999,-4.257992,-9.716403,0.9857682999999999,-4.257992,-9.716403
933,1715729279440,1.059504525,-4.33092925,-9.685244,1.059504525,-4.33092925,-9.685244
934,1715729279450,1.5683343,-4.642419,-9.352082,1.5683343,-4.642419,-9.352082
935,1715729279460,1.7194687,-4.6402884,-9.12851,1.7194687,-4.6402884,-9.12851
936,1715729279470,1.6576834000000003,-4.5028696,-8.778039,1.6576834000000003,-4.5028696,-8.778039
937,1715729279480,1.12625,-4.238817,-8.491616,1.12625,-4.238817,-8.491616
938,1715729279490,0.8924912,-4.153596,-8.410123,0.8924912,-4.153596,-8.410123
939,1715729279500,-0.0845553,-3.75319,-8.083754,-0.0845553,-3.75319,-8.083754
940,1715729279510,-0.1447427,-3.726558425,-8.06218215,-0.1447427,-3.726558425,-8.06218215
941,1715729279520,-0.7811045599999998,-3.4186974000000006,-7.7449994,-0.7811045599999998,-3.4186974000000006,-7.7449994
942,1715729279530,-0.87804353,-3.3421316,-7.5800166,-0.87804353,-3.3421316,-7.5800166
943,1715729279540,-0.851411944,-3.30165156,-7.41961448,-0.851411944,-3.30165156,-7.41961448
944,1715729279550,-0.41372177,-2.9341354,-6.1006317,-0.41372177,-2.9341354,-6.1006317
945,1715729279560,-0.26607623,-2.8261975599999998,-5.832265080000001,-0.26607623,-2.8261975599999998,-5.832265080000001
946,1715729279570,-0.03981423,-2.491119,-5.150683,-0.03981423,-2.491119,-5.150683
947,1715729279580,-0.3274354,-2.2387848,-4.955873,-0.3274354,-2.2387848,-4.955873
948,1715729279590,-0.3274354,-2.2387848,-4.955873,-0.3274354,-2.2387848,-4.955873
949,1715729279600,-1.1815992666666666,-1.5444104,-4.7882714,-1.1815992666666666,-1.5444104,-4.7882714
950,1715729279610,-1.866641525,-0.947951475,-4.652539099999999,-1.866641525,-0.947951475,-4.652539099999999
951,1715729279620,-2.5277374,0.19054903,-4.1836896,-2.5277374,0.19054903,-4.1836896
952,1715729279630,-2.5685724833333334,0.6378487966666666,-3.7319513500000006,-2.5685724833333334,0.6378487966666666,-3.7319513500000006
953,1715729279640,-2.5536588333333334,0.7926005333333332,-3.437472566666667,-2.5536588333333334,0.7926005333333332,-3.437472566666667
954,1715729279650,-2.283792,0.8402267,-2.158091,-2.283792,0.8402267,-2.158091
955,1715729279660,-2.094541275,0.7898930000000001,-1.5509906,-2.094541275,0.7898930000000001,-1.5509906
956,1715729279670,-1.773664,0.7880287999999999,-0.14407691,-1.773664,0.7880287999999999,-0.14407691
957,1715729279680,-1.680986,0.95940304,0.5789708,-1.680986,0.95940304,0.5789708
958,1715729279690,-1.675393375,1.03397148,0.712894425,-1.675393375,1.03397148,0.712894425
959,1715729279700,-1.6927039999999998,1.6452997,1.5235933,-1.6927039999999998,1.6452997,1.5235933
960,1715729279710,-1.6948345,1.6891885600000003,1.5627950199999998,-1.6948345,1.6891885600000003,1.5627950199999998
961,1715729279720,-1.656485,2.3365226,2.5194817,-1.656485,2.3365226,2.5194817
962,1715729279730,-1.4963758,2.42344812,3.10473746,-1.4963758,2.42344812,3.10473746
963,1715729279740,-1.2464917,2.3695457,3.8943377,-1.2464917,2.3695457,3.8943377
964,1715729279750,-0.94835097,2.0819247,4.8229814,-0.94835097,2.0819247,4.8229814
965,1715729279760,-0.770664972,1.74905638,5.5252563199999996,-0.770664972,1.74905638,5.5252563199999996
966,1715729279770,-0.5776392,1.2960263,6.356561,-0.5776392,1.2960263,6.356561
967,1715729279780,-0.4829639,0.9263799,6.8773420000000005,-0.4829639,0.9263799,6.8773420000000005
968,1715729279790,-0.45846283,0.5675192,7.27362,-0.45846283,0.5675192,7.27362
969,1715729279800,-0.3954347466666667,0.27024406666666667,7.53006,-0.3954347466666667,0.27024406666666667,7.53006
970,1715729279810,-0.38282913,0.21078904,7.581348,-0.38282913,0.21078904,7.581348
971,1715729279820,0.4063981,-0.35260227,8.443013,0.4063981,-0.35260227,8.443013
972,1715729279830,0.50027446,-0.366024588,8.533054400000001,0.50027446,-0.366024588,8.533054400000001
973,1715729279840,1.39866454,-0.357928584,9.343773200000001,1.39866454,-0.357928584,9.343773200000001
974,1715729279850,1.9761972,0.011584742,9.708147,1.9761972,0.011584742,9.708147
975,1715729279860,2.01966,0.2986732924,9.6033254,2.01966,0.2986732924,9.6033254
976,1715729279870,1.6225296,0.9082704,9.006405,1.6225296,0.9082704,9.006405
977,1715729279880,0.788508156,1.2022831200000001,8.365781680000001,0.788508156,1.2022831200000001,8.365781680000001
978,1715729279890,0.15712638,1.3556812,7.9466003999999995,0.15712638,1.3556812,7.9466003999999995
979,1715729279900,-0.5713808,1.4908364999999997,7.4801483,-0.5713808,1.4908364999999997,7.4801483
980,1715729279910,-0.786497475,1.573394425,7.33104465,-0.786497475,1.573394425,7.33104465
981,1715729279920,-1.4318475,1.8210682,6.8837337,-1.4318475,1.8210682,6.8837337
982,1715729279930,-1.5117422,2.0425098,6.800776,-1.5117422,2.0425098,6.800776
983,1715729279940,-1.4531528,2.1586237,6.8826685,-1.4531528,2.1586237,6.8826685
984,1715729279950,-1.3114727,2.095773,7.0520453,-1.3114727,2.095773,7.0520453
985,1715729279960,-1.29378932,2.07382856,7.064828439999999,-1.29378932,2.07382856,7.064828439999999
986,1715729279970,-0.8801741,1.4270538,6.978542299999999,-0.8801741,1.4270538,6.978542299999999
987,1715729279980,-0.6437188625,0.9847696575,6.7408219250000005,-0.6437188625,0.9847696575,6.7408219250000005
988,1715729279990,-0.17084164999999998,0.09680583,6.2938437,-0.17084164999999998,0.09680583,6.2938437
989,1715729280000,0.21038957,-0.47723812,6.2160797,0.21038957,-0.47723812,6.2160797
990,1715729280010,0.21038957,-0.47723812,6.2160797,0.21038957,-0.47723812,6.2160797
991,1715729280020,0.5404881,-1.087501,6.291713,0.5404881,-1.087501,6.291713
992,1715729280030,0.8494145999999999,-1.7094818,6.147903,0.8494145999999999,-1.7094818,6.147903
993,1715729280040,1.05431804,-1.9280206400000002,6.0349848800000006,1.05431804,-1.9280206400000002,6.0349848800000006
994,1715729280050,1.9719361,-2.5646222,5.3714585,1.9719361,-2.5646222,5.3714585
995,1715729280060,2.22304546,-2.54033426,5.113958,2.22304546,-2.54033426,5.113958
996,1715729280070,2.75253474,-2.1791032599999998,4.27522276,2.75253474,-2.1791032599999998,4.27522276
997,1715729280080,2.86798274,-2.0314843799999998,3.9831806800000003,2.86798274,-2.0314843799999998,3.9831806800000003
998,1715729280090,2.8622303,-1.4580796,2.3490396,2.8622303,-1.4580796,2.3490396
999,1715729280100,2.6535718,-1.0534126,1.25528,2.6535718,-1.0534126,1.25528
1000,1715729280110,2.5550349,-0.88882937,0.8558727399999999,2.5550349,-0.88882937,0.8558727399999999
1001,1715729280120,1.8473003,-0.26738116,-1.0749842,1.8473003,-0.26738116,-1.0749842
1002,1715729280130,1.5097449,-0.22370537,-1.8534256,1.5097449,-0.22370537,-1.8534256
1003,1715729280140,1.0548773,-0.33875385,-2.8960524,1.0548773,-0.33875385,-2.8960524
1004,1715729280150,0.37550545,-0.812663,-4.1059256,0.37550545,-0.812663,-4.1059256
1005,1715729280160,0.3755054500000001,-0.812663,-4.1059256,0.3755054500000001,-0.812663,-4.1059256
1006,1715729280170,-0.18686498333333335,-1.3111176,-4.8649260666666665,-0.18686498333333335,-1.3111176,-4.8649260666666665
1007,1715729280180,-0.5116927175,-1.60109125,-5.29555885,-0.5116927175,-1.60109125,-5.29555885
1008,1715729280190,-0.9803089,-2.0150793,-6.012348,-0.9803089,-2.0150793,-6.012348
1009,1715729280200,-1.0847048,-2.0736687,-6.3829265,-1.0847048,-2.0736687,-6.3829265
1010,1715729280210,-1.102215,-2.10083305,-6.524539949999999,-1.102215,-2.10083305,-6.524539949999999
1011,1715729280220,-1.1314431,-2.2781994,-7.0997157,-1.1314431,-2.2781994,-7.0997157
1012,1715729280230,-1.1271821,-2.3686137,-7.2476544,-1.1271821,-2.3686137,-7.2476544
1013,1715729280240,-1.1112032,-2.6860623,-7.609844,-1.1112032,-2.6860623,-7.609844
1014,1715729280250,-1.0847048,-2.9106998,-7.767369700000001,-1.0847048,-2.9106998,-7.767369700000001
1015,1715729280260,-1.0406738333333332,-3.082917333333333,-7.8259593333333335,-1.0406738333333332,-3.082917333333333,-7.8259593333333335
1016,1715729280270,-0.9941573,-3.2856724000000006,-7.8675046,-0.9941573,-3.2856724000000006,-7.8675046
1017,1715729280280,-0.9376982999999999,-3.4060473,-7.847265,-0.9376982999999999,-3.4060473,-7.847265
1018,1715729280290,-0.8823046,-3.4325457,-7.8419385,-0.8823046,-3.4325457,-7.8419385
1019,1715729280300,-0.774713,-3.3730242000000006,-7.7822833000000005,-0.774713,-3.3730242000000006,-7.7822833000000005
1020,1715729280310,-0.736629825,-3.302184175,-7.693633575,-0.736629825,-3.302184175,-7.693633575
1021,1715729280320,-0.6862961,-3.1759503,-7.520362000000001,-0.6862961,-3.1759503,-7.520362000000001
1022,1715729280330,-0.697800956,-3.14271408,-7.478177560000001,-0.697800956,-3.14271408,-7.478177560000001
1023,1715729280340,-0.8333025,-2.9703546,-7.2721553,-0.8333025,-2.9703546,-7.2721553
1024,1715729280350,-0.86312985,-2.9415925,-7.242327999999999,-0.86312985,-2.9415925,-7.242327999999999
1025,1715729280360,-0.8980705,-2.92073992,-7.211675,-0.8980705,-2.92073992,-7.211675
1026,1715729280370,-1.2241211,-2.7627614,-6.9985156,-1.2241211,-2.7627614,-6.9985156
1027,1715729280380,-1.3082769,-2.7276075,-6.9708190000000005,-1.3082769,-2.7276075,-6.9708190000000005
1028,1715729280390,-1.5341128,-2.5848622,-6.8557706,-1.5341128,-2.5848622,-6.8557706
1029,1715729280400,-1.6533158399999999,-2.458735,-6.72026908,-1.6533158399999999,-2.458735,-6.72026908
1030,1715729280410,-1.7238628999999999,-2.2818945250000002,-6.4939469249999995,-1.7238628999999999,-2.2818945250000002,-6.4939469249999995
1031,1715729280420,-1.6905735,-1.9415761,-5.9867816,-1.6905735,-1.9415761,-5.9867816
1032,1715729280430,-1.67379555,-1.882453975,-5.914077275,-1.67379555,-1.882453975,-5.914077275
1033,1715729280440,-1.4723274999999998,-1.0608695,-5.2572093,-1.4723274999999998,-1.0608695,-5.2572093
1034,1715729280450,-1.4052159,-0.6306361,-4.99835,-1.4052159,-0.6306361,-4.99835
1035,1715729280460,-1.4011679,-0.33582438000000003,-4.79792068,-1.4011679,-0.33582438000000003,-4.79792068
1036,1715729280470,-1.5405043,1.6122766,-3.1336062,-1.5405043,1.6122766,-3.1336062
1037,1715729280480,-1.703123525,1.89826655,-2.50819655,-1.703123525,1.89826655,-2.50819655
1038,1715729280490,-1.9419756,2.1873858,-1.5052176,-1.9419756,2.1873858,-1.5052176
1039,1715729280500,-1.7129439,1.9307903,-1.025982,-1.7129439,1.9307903,-1.025982
1040,1715729280510,-1.58993925,1.8362481499999999,-0.9673925175,-1.58993925,1.8362481499999999,-0.9673925175
1041,1715729280520,-0.7491466399999999,1.1096052,-0.5542034,-0.7491466399999999,1.1096052,-0.5542034
1042,1715729280530,-0.596707408,0.91455548,-0.307062248,-0.596707408,0.91455548,-0.307062248
1043,1715729280540,-0.55753237,0.7219824,0.57364446,-0.55753237,0.7219824,0.57364446
1044,1715729280550,-0.6941302283333334,0.8160807333333334,1.28015841,-0.6941302283333334,0.8160807333333334,1.28015841
1045,1715729280560,-0.7214497999999999,0.8349004,1.4214612000000002,-0.7214497999999999,0.8349004,1.4214612000000002
1046,1715729280570,-0.9039649500000001,1.08013296,2.3859242,-0.9039649500000001,1.08013296,2.3859242
1047,1715729280580,-0.95367724,1.2601536159999998,3.0407950799999997,-0.95367724,1.2601536159999998,3.0407950799999997
1048,1715729280590,-1.0314416,1.6548871000000003,5.056274,-1.0314416,1.6548871000000003,5.056274
1049,1715729280600,-1.04529,1.6623439000000002,5.9007616,-1.04529,1.6623439000000002,5.9007616
1050,1715729280610,-1.0426268,1.6437018,6.1819246,-1.0426268,1.6437018,6.1819246
1051,1715729280620,-1.0154625,1.4620744,7.1404624,-1.0154625,1.4620744,7.1404624
1052,1715729280630,-1.00747305,1.4019536000000001,7.2868695500000005,-1.00747305,1.4019536000000001,7.2868695500000005
1053,1715729280640,-0.93024147,0.8114646000000001,8.150065,-0.93024147,0.8114646000000001,8.150065
1054,1715729280650,-0.88976145,0.41518650000000007,8.327965,-0.88976145,0.41518650000000007,8.327965
1055,1715729280660,-0.8740488125,0.328933435,8.344476625,-0.8740488125,0.328933435,8.344476625
1056,1715729280670,-0.6845916599999999,-0.363494592,8.4059423,-0.6845916599999999,-0.363494592,8.4059423
1057,1715729280680,-0.5755752749999999,-0.5986116,8.406262,-0.5755752749999999,-0.5986116,8.406262
1058,1715729280690,0.17736639,-1.3132038,8.462188,0.17736639,-1.3132038,8.462188
1059,1715729280700,0.6590320199999999,-1.268562525,8.55955975,0.6590320199999999,-1.268562525,8.55955975
1060,1715729280710,0.8195872300000001,-1.2536821,8.592017,0.8195872300000001,-1.2536821,8.592017
1061,1715729280720,1.1880352,-0.31105697,8.646345,1.1880352,-0.31105697,8.646345
1062,1715729280730,1.0506163,0.56006235,8.492948,1.0506163,0.56006235,8.492948
1063,1715729280740,0.49801075,1.7635440000000002,8.166045,0.49801075,1.7635440000000002,8.166045
1064,1715729280750,-0.13888375,2.762495,7.826359,-0.13888375,2.762495,7.826359
1065,1715729280760,-0.27755444799999995,2.9386363199999996,7.7409248,-0.27755444799999995,2.9386363199999996,7.7409248
1066,1715729280770,-1.5341128,4.259856,6.9167566,-1.5341128,4.259856,6.9167566
1067,1715729280780,-1.8033049599999997,4.3979143999999994,6.7319334,-1.8033049599999997,4.3979143999999994,6.7319334
1068,1715729280790,-2.57431612,4.4588474,6.24097992,-2.57431612,4.4588474,6.24097992
1069,1715729280800,-3.0617274599999997,3.8788646,5.7360986,-3.0617274599999997,3.8788646,5.7360986
1070,1715729280810,-3.0208213,3.2364042000000004,5.460941000000001,-3.0208213,3.2364042000000004,5.460941000000001
1071,1715729280820,-2.574609,2.3876553,5.1329727,-2.574609,2.3876553,5.1329727
1072,1715729280830,-2.4973774250000003,2.2888521,5.094090525,-2.4973774250000003,2.2888521,5.094090525
1073,1715729280840,-1.2667316,1.266199,4.5962133,-1.2667316,1.266199,4.5962133
1074,1715729280850,-1.17405368,1.22081872,4.57703832,-1.17405368,1.22081872,4.57703832
1075,1715729280860,-0.8992822500000001,1.110703725,4.550406625,-0.8992822500000001,1.110703725,4.550406625
1076,1715729280870,0.10279794000000002,0.87005407,4.528036,0.10279794000000002,0.87005407,4.528036
1077,1715729280880,0.18801903250000002,0.9714538675,4.44254875,0.18801903250000002,0.9714538675,4.44254875
1078,1715729280890,0.3030675,1.225719,4.204196,0.3030675,1.225719,4.204196
1079,1715729280900,0.1038632,1.4110749,3.8623796,0.1038632,1.4110749,3.8623796
1080,1715729280910,0.0736097144,1.42210038,3.83170008,0.0736097144,1.42210038,3.83170008
1081,1715729280920,-0.47350970280000004,1.3075046000000001,3.35797728,-0.47350970280000004,1.3075046000000001,3.35797728
1082,1715729280930,-0.6360156619999999,1.21975348,3.1022073600000004,-0.6360156619999999,1.21975348,3.1022073600000004
1083,1715729280940,-0.1580585,0.94022834,2.0486352,-0.1580585,0.94022834,2.0486352
1084,1715729280950,0.49161917,0.7326351,1.3415664,0.49161917,0.7326351,1.3415664
1085,1715729280960,0.617906156,0.690450648,1.199273814,0.617906156,0.690450648,1.199273814
1086,1715729280970,1.4196236199999999,0.40495997599999994,0.198139042,1.4196236199999999,0.40495997599999994,0.198139042
1087,1715729280980,1.63747665,0.312754765,-0.19178075125,1.63747665,0.312754765,-0.19178075125
1088,1715729280990,2.0614183,0.18735324,-1.8225329,2.0614183,0.18735324,-1.8225329
1089,1715729281000,2.1955085,0.019041587,-2.7832675,2.1955085,0.019041587,-2.7832675
1090,1715729281010,2.2381189399999997,-0.0904142558,-3.05544242,2.2381189399999997,-0.0904142558,-3.05544242
1091,1715729281020,2.4980433,-0.75939983,-4.243345,2.4980433,-0.75939983,-4.243345
1092,1715729281030,2.4980433,-0.75939983,-4.243345,2.4980433,-0.75939983,-4.243345
1093,1715729281040,2.7194848,-1.8574203,-5.3221903,2.7194848,-1.8574203,-5.3221903
1094,1715729281050,2.6862485200000004,-2.24658774,-5.73372832,2.6862485200000004,-2.24658774,-5.73372832
1095,1715729281060,2.664091,-2.5060327,-6.008087,2.664091,-2.5060327,-6.008087
1096,1715729281070,2.2518342799999997,-2.5648352,-6.686020740000001,2.2518342799999997,-2.5648352,-6.686020740000001
1097,1715729281080,2.0658925000000004,-2.48259686,-6.89007204,2.0658925000000004,-2.48259686,-6.89007204
1098,1715729281090,1.2668648,-2.0193403,-7.545928,1.2668648,-2.0193403,-7.545928
1099,1715729281100,0.92930937,-2.1279974,-7.8994627,0.92930937,-2.1279974,-7.8994627
1100,1715729281110,0.92930937,-2.1279974,-7.8994627,0.92930937,-2.1279974,-7.8994627
1101,1715729281120,0.8728504,-2.4208117,-8.097602,0.8728504,-2.4208117,-8.097602
1102,1715729281130,0.93506176,-2.7032663799999996,-8.1959788,0.93506176,-2.7032663799999996,-8.1959788
1103,1715729281140,1.3079106999999999,-3.39369685,-8.50333375,1.3079106999999999,-3.39369685,-8.50333375
1104,1715729281150,1.401088,-3.482613,-8.556597,1.401088,-3.482613,-8.556597
1105,1715729281160,1.43048928,-3.4487642999999997,-8.6151598,1.43048928,-3.4487642999999997,-8.6151598
1106,1715729281170,1.4277196000000003,-3.190864,-8.995353,1.4277196000000003,-3.190864,-8.995353
1107,1715729281180,1.225719,-3.110969266666667,-8.957358333333334,1.225719,-3.110969266666667,-8.957358333333334
1108,1715729281190,0.976181,-3.0289440000000005,-8.856868,0.976181,-3.0289440000000005,-8.856868
1109,1715729281200,0.9282440750000001,-3.019356525,-8.817719499999999,0.9282440750000001,-3.019356525,-8.817719499999999
1110,1715729281210,0.4948149600000001,-3.1301441,-8.316913,0.4948149600000001,-3.1301441,-8.316913
1111,1715729281220,0.386158065,-3.2643672500000003,-8.070137725,0.386158065,-3.2643672500000003,-8.070137725
1112,1715729281230,0.34674331,-3.33123916,-7.931633440000001,0.34674331,-3.33123916,-7.931633440000001
1113,1715729281240,0.39308229,-3.4676993749999996,-7.2992863,0.39308229,-3.4676993749999996,-7.2992863
1114,1715729281250,0.43835598,-3.4794173,-7.0411263,0.43835598,-3.4794173,-7.0411263
1115,1715729281260,0.555481732,-3.4168331000000003,-6.66279794,0.555481732,-3.4168331000000003,-6.66279794
1116,1715729281270,0.90054727,-3.1045778,-5.6267223,0.90054727,-3.1045778,-5.6267223
1117,1715729281280,0.9066725275,-3.0593041,-5.587607225,0.9066725275,-3.0593041,-5.587607225
1118,1715729281290,0.7372955875,-2.426737075,-5.30008625,0.7372955875,-2.426737075,-5.30008625
1119,1715729281300,0.4447475699999999,-1.9309234999999998,-5.143226,0.4447475699999999,-1.9309234999999998,-5.143226
1120,1715729281310,0.44474757,-1.9309235,-5.143226,0.44474757,-1.9309235,-5.143226
1121,1715729281320,-1.35964922,-0.1434910176,-4.02110398,-1.35964922,-0.1434910176,-4.02110398
1122,1715729281330,-1.6107784500000002,0.128730446,-3.7499278499999997,-1.6107784500000002,0.128730446,-3.7499278499999997
1123,1715729281340,-2.29551,1.723064,-2.522278,-2.29551,1.723064,-2.522278
1124,1715729281350,-2.291249,2.1149478,-2.473276,-2.291249,2.1149478,-2.473276
1125,1715729281360,-2.262487,2.5089622,-2.320943,-2.262487,2.5089622,-2.320943
1126,1715729281370,-2.3860574,2.2587583,-1.8736656,-2.3860574,2.2587583,-1.8736656
1127,1715729281380,-2.4199327399999997,2.0581426,-1.53626994,-2.4199327399999997,2.0581426,-1.53626994
1128,1715729281390,-2.227333,1.395096,-0.12716585,-2.227333,1.395096,-0.12716585
1129,1715729281400,-2.06892836,1.29794392,0.24184147,-2.06892836,1.29794392,0.24184147
1130,1715729281410,-1.4243907,1.1277148,1.5598123,-1.4243907,1.1277148,1.5598123
1131,1715729281420,-1.1708579,1.0456895,2.4246733,-1.1708579,1.0456895,2.4246733
1132,1715729281430,-1.14852065,1.01506315,2.5987772749999998,-1.14852065,1.01506315,2.5987772749999998
1133,1715729281440,-1.0953573,0.7230477,4.2681117,-1.0953573,0.7230477,4.2681117
1134,1715729281450,-1.1325084,0.6761761,4.6920867,-1.1325084,0.6761761,4.6920867
1135,1715729281460,-1.328517,0.590955,5.8070183,-1.328517,0.590955,5.8070183
1136,1715729281470,-1.5735276,0.4972117999999999,6.444978,-1.5735276,0.4972117999999999,6.444978
1137,1715729281480,-1.6165376200000001,0.47015409999999996,6.53017254,-1.6165376200000001,0.47015409999999996,6.53017254
1138,1715729281490,-2.0548935,0.023302643,7.5802827,-2.0548935,0.023302643,7.5802827
1139,1715729281500,-2.073003,-0.24181485,8.0371475,-2.073003,-0.24181485,8.0371475
1140,1715729281510,-1.8066871,-0.72424614,8.773112,-1.8066871,-0.72424614,8.773112
1141,1715729281520,-1.3061464,-1.2259853,9.282175,-1.3061464,-1.2259853,9.282175
1142,1715729281530,-1.10166904,-1.4048963,9.393761399999999,-1.10166904,-1.4048963,9.393761399999999
1143,1715729281540,0.08255793,-2.3835273,9.798695,0.08255793,-2.3835273,9.798695
1144,1715729281550,0.29987172,-2.539322175,9.847430000000001,0.29987172,-2.539322175,9.847430000000001
1145,1715729281560,0.9229178000000001,-2.777675,9.845566,0.9229178000000001,-2.777675,9.845566
1146,1715729281570,0.96233255,-2.5688832,9.38444,0.96233255,-2.5688832,9.38444
1147,1715729281580,0.9098683125,-2.498609075,9.2395975,0.9098683125,-2.498609075,9.2395975
1148,1715729281590,0.262560856,-1.77912342,8.057894000000001,0.262560856,-1.77912342,8.057894000000001
1149,1715729281600,0.022903169,-1.5198649,7.7123756,0.022903169,-1.5198649,7.7123756
1150,1715729281610,-0.333827,-1.0182589,6.9231486,-0.333827,-1.0182589,6.9231486
1151,1715729281620,-0.020772642,-0.9234504,6.783732,-0.020772642,-0.9234504,6.783732
1152,1715729281630,0.06466150639999999,-0.90832366,6.77052274,0.06466150639999999,-0.90832366,6.77052274
1153,1715729281640,1.299888,-0.74342084,6.5120897,1.299888,-0.74342084,6.5120897
1154,1715729281650,1.7196684166666667,-0.6893809316666667,6.394910783333334,1.7196684166666667,-0.6893809316666667,6.394910783333334
1155,1715729281660,2.28927826,-0.598465118,6.1321102000000005,2.28927826,-0.598465118,6.1321102000000005
1156,1715729281670,2.5369254000000003,-0.525707565,5.88052145,2.5369254000000003,-0.525707565,5.88052145
1157,1715729281680,2.5619590600000004,-0.432283956,5.652608320000001,2.5619590600000004,-0.432283956,5.652608320000001
1158,1715729281690,2.3685071,-0.152439232,5.17406536,2.3685071,-0.152439232,5.17406536
1159,1715729281700,2.242945825,-0.051798445,5.0600023,2.242945825,-0.051798445,5.0600023
1160,1715729281710,1.1795132,0.7890940299999999,4.676108,1.1795132,0.7890940299999999,4.676108
1161,1715729281720,0.6534061,1.2267842,4.58343,0.6534061,1.2267842,4.58343
1162,1715729281730,0.6534061,1.2267842,4.58343,0.6534061,1.2267842,4.58343
1163,1715729281740,0.1667137625,0.8535092249999999,4.1321243,0.1667137625,0.8535092249999999,4.1321243
1164,1715729281750,0.20399799000000002,-0.004207788000000013,3.6134275600000003,0.20399799000000002,-0.004207788000000013,3.6134275600000003
1165,1715729281760,0.300936985,-0.34464608750000003,3.2694273000000003,0.300936985,-0.34464608750000003,3.2694273000000003
1166,1715729281770,0.3968107,-0.21305272999999997,2.7462497,0.3968107,-0.21305272999999997,2.7462497
1167,1715729281780,0.3968107,-0.21305273,2.7462497,0.3968107,-0.21305273,2.7462497
1168,1715729281790,0.39979344,-0.026471805999999997,2.61378414,0.39979344,-0.026471805999999997,2.61378414
1169,1715729281800,0.37692578666666665,0.8625528533333333,2.0412670333333334,0.37692578666666665,0.8625528533333333,2.0412670333333334
1170,1715729281810,0.458596,2.6921875000000006,0.58003604,0.458596,2.6921875000000006,0.58003604
1171,1715729281820,0.6502103,2.827476,-0.30599698,0.6502103,2.827476,-0.30599698
1172,1715729281830,0.683233475,2.776343325,-0.5078311600000001,0.683233475,2.776343325,-0.5078311600000001
1173,1715729281840,0.8717851,2.0840552,-2.716156,0.8717851,2.0840552,-2.716156
1174,1715729281850,0.8717851,1.88048328,-3.21800176,0.8717851,1.88048328,-3.21800176
1175,1715729281860,0.77484614,1.1948264,-4.7864957,0.77484614,1.1948264,-4.7864957
1176,1715729281870,0.7024082,1.011601,-5.280645,0.7024082,1.011601,-5.280645
1177,1715729281880,0.70320715,0.9660942625,-5.40711175,0.70320715,0.9660942625,-5.40711175
1178,1715729281890,0.7844335,0.52171284,-6.324337,0.7844335,0.52171284,-6.324337
1179,1715729281900,0.8076029874999999,0.39078530999999994,-6.480930775,0.8076029874999999,0.39078530999999994,-6.480930775
1180,1715729281910,0.9250483,-0.33023173,-7.119956,0.9250483,-0.33023173,-7.119956
1181,1715729281920,0.97405046,-0.8659262,-7.486273299999999,0.97405046,-0.8659262,-7.486273299999999
1182,1715729281930,0.994823105,-1.196357675,-7.66863315,0.994823105,-1.196357675,-7.66863315
1183,1715729281940,1.0305095,-1.7712672,-7.970834999999999,1.0305095,-1.7712672,-7.970834999999999
1184,1715729281950,1.0751173,-2.0800605,-8.097602,1.0751173,-2.0800605,-8.097602
1185,1715729281960,1.2370374,-2.51562,-8.208389,1.2370374,-2.51562,-8.208389
1186,1715729281970,1.4618081,-2.9352007,-8.161517,1.4618081,-2.9352007,-8.161517
1187,1715729281980,1.55121032,-3.04513588,-8.122529,1.55121032,-3.04513588,-8.122529
1188,1715729281990,1.7812539,-3.308043,-7.963378399999999,1.7812539,-3.308043,-7.963378399999999
1189,1715729282000,1.82759295,-3.37115985,-7.8922721,1.82759295,-3.37115985,-7.8922721
1190,1715729282010,1.9218688,-3.5284194999999996,-7.598125999999999,1.9218688,-3.5284194999999996,-7.598125999999999
1191,1715729282020,1.8632792000000002,-3.4975269999999994,-7.459642,1.8632792000000002,-3.4975269999999994,-7.459642
1192,1715729282030,1.696598775,-3.43128085,-7.36723025,1.696598775,-3.43128085,-7.36723025
1193,1715729282040,1.3755217,-3.3304136,-7.222088000000001,1.3755217,-3.3304136,-7.222088000000001
1194,1715729282050,1.080743225,-3.3362725500000003,-7.13636745,1.080743225,-3.3362725500000003,-7.13636745
1195,1715729282060,0.5756418,-3.3517190000000006,-6.996385,0.5756418,-3.3517190000000006,-6.996385
1196,1715729282070,0.21784641,-3.2526493000000003,-6.8270082,0.21784641,-3.2526493000000003,-6.8270082
1197,1715729282080,0.21784641,-3.2526493,-6.8270082,0.21784641,-3.2526493,-6.8270082
1198,1715729282090,-0.2805638,-3.049184,-6.4266024,-0.2805638,-3.049184,-6.4266024
1199,1715729282100,-0.32104382,-2.9868660499999997,-6.3664150500000005,-0.32104382,-2.9868660499999997,-6.3664150500000005
1200,1715729282110,-0.59787923,-2.446378,-5.9526935,-0.59787923,-2.446378,-5.9526935
1201,1715729282120,-0.82797617,-2.110953,-5.708748,-0.82797617,-2.110953,-5.708748
1202,1715729282130,-0.82797617,-2.110953,-5.708748,-0.82797617,-2.110953,-5.708748
1203,1715729282140,-1.3072116,-1.5741934,-5.2838407,-1.3072116,-1.5741934,-5.2838407
1204,1715729282150,-1.37645375,-1.4745911999999999,-5.17465115,-1.37645375,-1.4745911999999999,-5.17465115
1205,1715729282160,-1.4510223,-1.1759179,-4.625641,-1.4510223,-1.1759179,-4.625641
1206,1715729282170,-1.3860412,-1.0459558,-4.4541335,-1.3860412,-1.0459558,-4.4541335
1207,1715729282180,-1.3860412,-1.0459558,-4.4541335,-1.3860412,-1.0459558,-4.4541335
1208,1715729282190,-1.30801065,-0.6772080575,-4.547077775,-1.30801065,-0.6772080575,-4.547077775
1209,1715729282200,-1.48291365,-0.5065328499999999,-4.3018675,-1.48291365,-0.5065328499999999,-4.3018675
1210,1715729282210,-1.818405,-0.35579807,-3.2848735,-1.818405,-0.35579807,-3.2848735
1211,1715729282220,-1.7768598,-0.29720855,-2.2486384,-1.7768598,-0.29720855,-2.2486384
1212,1715729282230,-1.7768598,-0.29720855,-2.2486384,-1.7768598,-0.29720855,-2.2486384
1213,1715729282240,-1.19386756,0.136646701,-0.024847280000000006,-1.19386756,0.136646701,-0.024847280000000006
1214,1715729282250,-1.03948424,0.36772901999999996,0.639877236,-1.03948424,0.36772901999999996,0.639877236
1215,1715729282260,-0.9579383,1.302418,2.6205485,-0.9579383,1.302418,2.6205485
1216,1715729282270,-0.8801741,1.6016239,3.3266852,-0.8801741,1.6016239,3.3266852
1217,1715729282280,-0.8801741,1.6016239000000003,3.3266852,-0.8801741,1.6016239000000003,3.3266852
1218,1715729282290,-0.39344846,1.70309025,4.827009225,-0.39344846,1.70309025,4.827009225
1219,1715729282300,-0.31784803,1.6921713,5.0051413,-0.31784803,1.6921713,5.0051413
1220,1715729282310,0.8121304,1.4599438000000002,6.878407499999999,0.8121304,1.4599438000000002,6.878407499999999
1221,1715729282320,1.0081389,1.2001526,7.6026535,1.0081389,1.2001526,7.6026535
1222,1715729282330,0.9839041425,1.09232795,7.6937002,0.9839041425,1.09232795,7.6937002
1223,1715729282340,0.57244605,0.30027118,7.924363,0.57244605,0.30027118,7.924363
1224,1715729282350,0.304099485,0.08615319475000001,7.78215025,0.304099485,0.08615319475000001,7.78215025
1225,1715729282360,-0.4158523,-0.31744856,7.353514999999999,-0.4158523,-0.31744856,7.353514999999999
1226,1715729282370,-0.82264984,-0.51771814,7.1351357,-0.82264984,-0.51771814,7.1351357
1227,1715729282380,-0.8667517520000001,-0.543071412,7.13407044,-0.8667517520000001,-0.543071412,7.13407044
1228,1715729282390,-1.0183032333333333,-0.7375840833333333,7.354291566666666,-1.0183032333333333,-0.7375840833333333,7.354291566666666
1229,1715729282400,-0.9515467249999999,-0.7764439999999999,7.50891015,-0.9515467249999999,-0.7764439999999999,7.50891015
1230,1715729282410,-0.3689807,-0.68922555,8.355661,-0.3689807,-0.68922555,8.355661
1231,1715729282420,-0.159336814,-0.442936628,8.824218,-0.159336814,-0.442936628,8.824218
1232,1715729282430,-0.17297219,-0.18642114,9.011598,-0.17297219,-0.18642114,9.011598
1233,1715729282440,-0.385492295,0.1426454625,8.971750125,-0.385492295,0.1426454625,8.971750125
1234,1715729282450,-0.88798601,0.5497648,8.594547166666667,-0.88798601,0.5497648,8.594547166666667
1235,1715729282460,-1.5128075,0.91785777,8.008386,-1.5128075,0.91785777,8.008386
1236,1715729282470,-1.9526283,0.8732499,7.446059700000001,-1.9526283,0.8732499,7.446059700000001
1237,1715729282480,-2.0932431,0.6143908,7.128744,-2.0932431,0.6143908,7.128744
1238,1715729282490,-1.9270619,0.196061776,6.9233616,-1.9270619,0.196061776,6.9233616
1239,1715729282500,-1.7722258400000002,0.00029295199999999634,6.854172800000001,-1.7722258400000002,0.00029295199999999634,6.854172800000001
1240,1715729282510,-0.34021857,-0.3984086,6.9796076,-0.34021857,-0.3984086,6.9796076
1241,1715729282520,0.4063981,-0.12370374000000002,7.169224299999999,0.4063981,-0.12370374000000002,7.169224299999999
1242,1715729282530,0.7492798,0.39388123,7.098917,0.7492798,0.39388123,7.098917
1243,1715729282540,0.6352966,0.93383676,6.693185,0.6352966,0.93383676,6.693185
1244,1715729282550,0.45388219999999996,1.066781672,6.34218044,0.45388219999999996,1.066781672,6.34218044
1245,1715729282560,0.25513065,0.21078904,5.4630713,0.25513065,0.21078904,5.4630713
1246,1715729282570,0.3573959500000001,-0.3338269866666666,5.2522381,0.3573959500000001,-0.3338269866666666,5.2522381
1247,1715729282580,2.2200093,-2.9842029,5.0008802,2.2200093,-2.9842029,5.0008802
1248,1715729282590,3.68293578,-2.9637497799999997,5.63982524,3.68293578,-2.9637497799999997,5.63982524
1249,1715729282600,4.0486674,-2.9586365,5.7995615,4.0486674,-2.9586365,5.7995615
1250,1715729282610,4.8441534,0.8146603999999998,6.878407499999999,4.8441534,0.8146603999999998,6.878407499999999
1251,1715729282620,4.60649284,1.25514688,6.85965862,4.60649284,1.25514688,6.85965862
1252,1715729282630,1.4170669,3.8711681,5.452419,1.4170669,3.8711681,5.452419
1253,1715729282640,0.50853026,3.6218963000000004,3.8932724,0.50853026,3.6218963000000004,3.8932724
1254,1715729282650,0.564350056,3.27217026,3.4400026400000003,0.564350056,3.27217026,3.4400026400000003
1255,1715729282660,1.7226645,1.4217275,1.384177,1.7226645,1.4217275,1.384177
1256,1715729282670,2.1347883,1.2108053,1.000682,2.1347883,1.2108053,1.000682
1257,1715729282680,2.406430575,1.392066575,0.1277317625,2.406430575,1.392066575,0.1277317625
1258,1715729282690,2.25068896,1.9049043600000002,-0.8670712899999999,2.25068896,1.9049043600000002,-0.8670712899999999
1259,1715729282700,2.129228925,2.101365625,-1.221391275,2.129228925,2.101365625,-1.221391275
1260,1715729282710,1.9122814000000001,2.3184133,-3.0579724,1.9122814000000001,2.3184133,-3.0579724
1261,1715729282720,2.1443758,1.7102808,-4.1421447,2.1443758,1.7102808,-4.1421447
1262,1715729282730,2.1882646400000003,1.51581692,-4.347474200000001,2.1882646400000003,1.51581692,-4.347474200000001
1263,1715729282740,2.35476525,0.17723324999999998,-5.5777868999999995,2.35476525,0.17723324999999998,-5.5777868999999995
1264,1715729282750,2.156393175,-0.944223075,-6.485191875,2.156393175,-0.944223075,-6.485191875
1265,1715729282760,1.7791234,-1.9117488000000002,-7.419162,1.7791234,-1.9117488000000002,-7.419162
1266,1715729282770,1.6534223999999997,-2.0917783,-7.734347,1.6534223999999997,-2.0917783,-7.734347
1267,1715729282780,1.3393027,-2.3441126,-8.545944,1.3393027,-2.3441126,-8.545944
1268,1715729282790,1.18697,-2.4676833,-8.916523,1.18697,-2.4676833,-8.916523
1269,1715729282800,1.17738264,-2.4789751,-8.9395326,1.17738264,-2.4789751,-8.9395326
1270,1715729282810,1.12369336,-2.59658014,-9.0903742,1.12369336,-2.59658014,-9.0903742
1271,1715729282820,1.1645994,-2.7233465,-9.024115,1.1645994,-2.7233465,-9.024115
1272,1715729282830,1.2732564,-3.2174956999999997,-8.882435,1.2732564,-3.2174956999999997,-8.882435
1273,1715729282840,1.2881701,-3.458112,-8.911197,1.2881701,-3.458112,-8.911197
1274,1715729282850,1.23384164,-3.5789129199999996,-8.9229148,1.23384164,-3.5789129199999996,-8.9229148
1275,1715729282860,1.0591384,-3.8788912,-8.945285,1.0591384,-3.8788912,-8.945285
1276,1715729282870,0.9629450399999999,-3.9206496,-8.9427282,0.9629450399999999,-3.9206496,-8.9427282
1277,1715729282880,0.51385653,-3.962914,-8.96872,0.51385653,-3.962914,-8.96872
1278,1715729282890,0.28176224,-3.9991329,-8.959133,0.28176224,-3.9991329,-8.959133
1279,1715729282900,0.23773133999999999,-4.007299933333333,-8.923624333333334,0.23773133999999999,-4.007299933333333,-8.923624333333334
1280,1715729282910,-0.012250531,-4.093941,-8.457527,-0.012250531,-4.093941,-8.457527
