id,timestamp,acc_x,acc_y,acc_z,gyro_x,gyro_y,gyro_z
0,1715728721540,-0.0402802835,0.251701835,-0.81189736,-0.0402802835,0.251701835,-0.81189736
1,1715728721550,-0.14567481,0.8656599000000001,-3.3364058,-0.14567481,0.8656599000000001,-3.3364058
2,1715728721560,-0.14567481,0.8656599,-3.3364058,-0.14567481,0.8656599,-3.3364058
3,1715728721570,-0.14567481,0.8656599,-3.3364058,-0.14567481,0.8656599,-3.3364058
4,1715728721580,-0.14567481,0.8656599000000001,-3.3364058,-0.14567481,0.8656599000000001,-3.3364058
5,1715728721590,-0.14567481,0.8656599,-3.3364058,-0.14567481,0.8656599,-3.3364058
6,1715728721600,-0.14567481,0.8656599,-3.3364058,-0.14567481,0.8656599,-3.3364058
7,1715728721610,-0.14567481,0.8656599,-3.3364058,-0.14567481,0.8656599,-3.3364058
8,1715728721620,-0.14567481,0.8656599000000001,-3.3364058,-0.14567481,0.8656599000000001,-3.3364058
9,1715728721630,-0.14567481,0.8656599,-3.3364058,-0.14567481,0.8656599,-3.3364058
10,1715728721640,-0.14567481,0.8656599000000001,-3.3364058,-0.14567481,0.8656599000000001,-3.3364058
11,1715728721650,-0.14567481,0.8656599,-3.3364058,-0.14567481,0.8656599,-3.3364058
12,1715728721660,-0.14567481,0.8656599,-3.3364058,-0.14567481,0.8656599,-3.3364058
13,1715728721670,-0.14176884166666667,0.8688556833333334,-3.4473485499999996,-0.14176884166666667,0.8688556833333334,-3.4473485499999996
14,1715728721680,1.2429153142857143,1.5378983,-9.568958857142857,1.2429153142857143,1.5378983,-9.568958857142857
15,1715728721690,1.4468499000000001,1.498604,-9.858127000000001,1.4468499000000001,1.498604,-9.858127000000001
16,1715728721700,1.4880401,1.4716617,-9.858482,1.4880401,1.4716617,-9.858482
17,1715728721710,1.694320785714286,1.3176550142857144,-9.730650571428571,1.694320785714286,1.3176550142857144,-9.730650571428571
18,1715728721720,1.8948377,1.1382342333333333,-9.3431835,1.8948377,1.1382342333333333,-9.3431835
19,1715728721730,1.9385135,1.0775142,-9.023449,1.9385135,1.0775142,-9.023449
20,1715728721740,2.0034945,1.0338384,-8.586823,2.0034945,1.0338384,-8.586823
21,1715728721750,2.02018365,0.9676367,-8.352531766666667,2.02018365,0.9676367,-8.352531766666667
22,1715728721760,2.0801935,0.9210536,-7.9904094,2.0801935,0.9210536,-7.9904094
23,1715728721770,2.0801935,0.60857624,-7.147697133333334,2.0801935,0.60857624,-7.147697133333334
24,1715728721780,1.8178280333333336,-0.03750615833333333,-5.164265133333333,1.8178280333333336,-0.03750615833333333,-5.164265133333333
25,1715728721790,1.7170719,-0.118377425,-4.7623944,1.7170719,-0.118377425,-4.7623944
26,1715728721800,1.5496701166666667,-0.041190193333333326,-4.39072835,1.5496701166666667,-0.041190193333333326,-4.39072835
27,1715728721810,1.0365015,0.29800752,-3.3854079999999995,1.0365015,0.29800752,-3.3854079999999995
28,1715728721820,0.7163365248,0.568690988,-3.19496548,0.7163365248,0.568690988,-3.19496548
29,1715728721830,-0.19856070666666667,1.2101394666666667,-2.827875583333333,-0.19856070666666667,1.2101394666666667,-2.827875583333333
30,1715728721840,-0.76659036,1.4418343,-2.6281385,-0.76659036,1.4418343,-2.6281385
31,1715728721850,-1.034956888,1.45949106,-2.40107758,-1.034956888,1.45949106,-2.40107758
32,1715728721860,-2.7826018,1.008272,-0.10839058,-2.7826018,1.008272,-0.10839058
33,1715728721870,-2.8454523666666667,0.8748033500000001,0.16427251333333334,-2.8454523666666667,0.8748033500000001,0.16427251333333334
34,1715728721880,-2.86547926,-0.59132786,3.2512378400000004,-2.86547926,-0.59132786,3.2512378400000004
35,1715728721890,-2.6047027,-1.0088047,4.395544,-2.6047027,-1.0088047,4.395544
36,1715728721900,-2.236221375,-1.114765125,5.34605875,-2.236221375,-1.114765125,5.34605875
37,1715728721910,-1.1307774,-1.4326464,8.197603,-1.1307774,-1.4326464,8.197603
38,1715728721920,-0.7652854079999999,-1.4028190600000001,8.9347654,-0.7652854079999999,-1.4028190600000001,8.9347654
39,1715728721930,-0.1452486994,-1.4015408,10.1805646,-0.1452486994,-1.4015408,10.1805646
40,1715728721940,0.014114743,-1.5327811999999998,10.491515,0.014114743,-1.5327811999999998,10.491515
41,1715728721950,-0.012871935833333334,-1.63466925,10.484413333333334,-0.012871935833333334,-1.63466925,10.484413333333334
42,1715728721960,-0.011451584,-1.762745,10.51069,-0.011451584,-1.762745,10.51069
43,1715728721970,-0.149403222,-2.09184485,10.4516345,-0.149403222,-2.09184485,10.4516345
44,1715728721980,-0.6760429,-2.6776733,10.407493,-0.6760429,-2.6776733,10.407493
45,1715728721990,-0.8635293,-2.58393,10.4276,-0.8635293,-2.58393,10.4276
46,1715728722000,-0.7987613,-2.16072744,10.7215592,-0.7987613,-2.16072744,10.7215592
47,1715728722010,-0.69095665,-1.6936361,11.097517,-0.69095665,-1.6936361,11.097517
48,1715728722020,-0.554203432,-1.16135045,11.441517399999999,-0.554203432,-1.16135045,11.441517399999999
49,1715728722030,-0.35872754,-0.09294425,11.842003,-0.35872754,-0.09294425,11.842003
50,1715728722040,-0.37364122,0.084954776,11.764239,-0.37364122,0.084954776,11.764239
51,1715728722050,-0.37364122,0.084954776,11.764239,-0.37364122,0.084954776,11.764239
52,1715728722060,-1.7423053499999999,1.1707248,9.0615765,-1.7423053499999999,1.1707248,9.0615765
53,1715728722070,-2.1886174,0.631867805,7.845001,-2.1886174,0.631867805,7.845001
54,1715728722080,-2.1998582166666663,-0.5167638166666667,6.807167666666667,-2.1998582166666663,-0.5167638166666667,6.807167666666667
55,1715728722090,-2.0445073,-0.804274,6.708631,-2.0445073,-0.804274,6.708631
56,1715728722100,-1.5006458333333332,-1.08277385,6.481973933333333,-1.5006458333333332,-1.08277385,6.481973933333333
57,1715728722110,1.2186615,-2.4752731,5.3486886,1.2186615,-2.4752731,5.3486886
58,1715728722120,1.47594934,-2.07484058,4.30177424,1.47594934,-2.07484058,4.30177424
59,1715728722130,1.607615925,-1.50854645,2.9018113750000003,1.607615925,-1.50854645,2.9018113750000003
60,1715728722140,1.4582127,-1.2952274,2.3634205,1.4582127,-1.2952274,2.3634205
61,1715728722150,1.4582127,-1.2952274,2.3634205,1.4582127,-1.2952274,2.3634205
62,1715728722160,0.28136277,-0.36977965,0.12490216000000001,0.28136277,-0.36977965,0.12490216000000001
63,1715728722170,-0.41458726500000004,0.28575697499999997,-0.84748382,-0.41458726500000004,0.28575697499999997,-0.84748382
64,1715728722180,-1.9551582,2.1702085,-3.1851382,-1.9551582,2.1702085,-3.1851382
65,1715728722190,-1.9538000800000002,2.3031533,-3.400721,-1.9538000800000002,2.3031533,-3.400721
66,1715728722200,-1.776194,2.403501,-3.8220327,-1.776194,2.403501,-3.8220327
67,1715728722210,-1.3001543,1.8262614,-3.9988666000000004,-1.3001543,1.8262614,-3.9988666000000004
68,1715728722220,-1.093226825,1.544332725,-4.116212125,-1.093226825,1.544332725,-4.116212125
69,1715728722230,-0.227060942,0.373428176,-4.94242344,-0.227060942,0.373428176,-4.94242344
70,1715728722240,-0.06022068,0.27963170000000004,-5.345026825,-0.06022068,0.27963170000000004,-5.345026825
71,1715728722250,0.18975009,0.2692454,-6.1949077,0.18975009,0.2692454,-6.1949077
72,1715728722260,0.18975009,0.2692454,-6.1949077,0.18975009,0.2692454,-6.1949077
73,1715728722270,0.075034509,0.8360655,-6.8847323750000005,0.075034509,0.8360655,-6.8847323750000005
74,1715728722280,-0.12650006,1.7154739,-7.9222326,-0.12650006,1.7154739,-7.9222326
75,1715728722290,-0.15632744,1.8965688,-8.136351,-0.15632744,1.8965688,-8.136351
76,1715728722300,0.0798614853,2.162751475,-8.858698875,0.0798614853,2.162751475,-8.858698875
77,1715728722310,0.30586383,2.1499684,-9.1725855,0.30586383,2.1499684,-9.1725855
78,1715728722320,0.40514638999999997,2.09420184,-9.2986597,0.40514638999999997,2.09420184,-9.2986597
79,1715728722330,0.8862994000000001,1.6291876000000003,-9.904288,0.8862994000000001,1.6291876000000003,-9.904288
80,1715728722340,0.98323834,1.492967,-10.018271,0.98323834,1.492967,-10.018271
81,1715728722350,1.052713505,1.431448025,-10.0448695,1.052713505,1.431448025,-10.0448695
82,1715728722360,1.3800934166666667,1.2815121833333334,-10.014698333333333,1.3800934166666667,1.2815121833333334,-10.014698333333333
83,1715728722370,1.4038843,1.2884364,-9.992705,1.4038843,1.2884364,-9.992705
84,1715728722380,1.84319455,1.5333359833333333,-9.34922,1.84319455,1.5333359833333333,-9.34922
85,1715728722390,1.9985234333333333,1.6160493166666665,-9.115772166666668,1.9985234333333333,1.6160493166666665,-9.115772166666668
86,1715728722400,2.3270418800000003,1.62727008,-8.3995774,2.3270418800000003,1.62727008,-8.3995774
87,1715728722410,2.6798038,1.2873712,-6.9626966,2.6798038,1.2873712,-6.9626966
88,1715728722420,2.62142738,0.8890690720000001,-6.2001806,2.62142738,0.8890690720000001,-6.2001806
89,1715728722430,2.4433153,0.12010848,-4.839093,2.4433153,0.12010848,-4.839093
90,1715728722440,2.3258033333333334,-0.07214941916666667,-4.490019833333334,2.3258033333333334,-0.07214941916666667,-4.490019833333334
91,1715728722450,1.9992335,-0.35699648,-3.7453340000000006,1.9992335,-0.35699648,-3.7453340000000006
92,1715728722460,1.9235998,-0.2888196,-3.7069843,1.9235998,-0.2888196,-3.7069843
93,1715728722470,1.4030587220000001,0.11267825999999999,-3.4814413600000003,1.4030587220000001,0.11267825999999999,-3.4814413600000003
94,1715728722480,0.08548741,0.9636641000000001,-2.7570355,0.08548741,0.9636641000000001,-2.7570355
95,1715728722490,-0.15952323,0.98164046,-2.4791348,-0.15952323,0.98164046,-2.4791348
96,1715728722500,-1.6717981,0.45340285,-0.05725792,-1.6717981,0.45340285,-0.05725792
97,1715728722510,-2.187818575,-0.1767671825,1.80459002,-2.187818575,-0.1767671825,1.80459002
98,1715728722520,-2.3667495499999998,-0.5779721,3.1893994,-2.3667495499999998,-0.5779721,3.1893994
99,1715728722530,-2.0253325,-1.0290446,5.9099493,-2.0253325,-1.0290446,5.9099493
100,1715728722540,-1.513406775,-1.0133321,7.271256725,-1.513406775,-1.0133321,7.271256725
101,1715728722550,-0.8113314,-0.8735162,8.760995,-0.8113314,-0.8735162,8.760995
102,1715728722560,-0.32676962,-0.77870774,9.580981,-0.32676962,-0.77870774,9.580981
103,1715728722570,-0.070041084,-0.73902666,9.923896,-0.070041084,-0.73902666,9.923896
104,1715728722580,0.09507478,-0.6881603,10.141177,0.09507478,-0.6881603,10.141177
105,1715728722590,0.10359689,-0.63503027,10.19657,0.10359689,-0.63503027,10.19657
106,1715728722600,0.00772316,-0.5576921479999999,10.243867999999999,0.00772316,-0.5576921479999999,10.243867999999999
107,1715728722610,-0.27883276,-0.5231776,10.084718,-0.27883276,-0.5231776,10.084718
108,1715728722620,-0.421311768,-0.485467272,9.9545692,-0.421311768,-0.485467272,9.9545692
109,1715728722630,-0.79535246,-0.3687144,9.63744,-0.79535246,-0.3687144,9.63744
110,1715728722640,-0.8795083,-0.3452786,9.580981,-0.8795083,-0.3452786,9.580981
111,1715728722650,-0.85500723,-0.41878176,9.429714,-0.85500723,-0.41878176,9.429714
112,1715728722660,-0.6558029,-0.5498092,9.229577,-0.6558029,-0.5498092,9.229577
113,1715728722670,-0.479268755,-0.73270165,9.11506125,-0.479268755,-0.73270165,9.11506125
114,1715728722680,-0.15526217,-1.1451584,8.905737,-0.15526217,-1.1451584,8.905737
115,1715728722690,-0.15526217,-1.1451584,8.905737,-0.15526217,-1.1451584,8.905737
116,1715728722700,-0.1252217364,-1.2022299,8.876788600000001,-0.1252217364,-1.2022299,8.876788600000001
117,1715728722710,0.412922799,-1.9411767,8.44414525,0.412922799,-1.9411767,8.44414525
118,1715728722720,1.3871064,-2.19917025,7.300850775000001,1.3871064,-2.19917025,7.300850775000001
119,1715728722730,1.936383,-1.4124064,5.7842484,1.936383,-1.4124064,5.7842484
120,1715728722740,1.74303764,-1.06481088,5.251723279999999,1.74303764,-1.06481088,5.251723279999999
121,1715728722750,0.76912034,-0.099335834,3.1675615,0.76912034,-0.099335834,3.1675615
122,1715728722760,0.3410175,0.16804534,2.3517027,0.3410175,0.16804534,2.3517027
123,1715728722770,-0.14301165,0.32114369499999995,1.5801189150000001,-0.14301165,0.32114369499999995,1.5801189150000001
124,1715728722780,-0.9997499,0.54075444,0.23129536,-0.9997499,0.54075444,0.23129536
125,1715728722790,-1.2000194999999998,0.5586508880000001,-0.140162064,-1.2000194999999998,0.5586508880000001,-0.140162064
126,1715728722800,-1.7208002999999998,0.6387587,-1.5961644999999998,-1.7208002999999998,0.6387587,-1.5961644999999998
127,1715728722810,-1.7836507999999998,0.8432893,-2.4770043,-1.7836507999999998,0.8432893,-2.4770043
128,1715728722820,-1.7050876,0.930075,-2.80580455,-1.7050876,0.930075,-2.80580455
129,1715728722830,-1.469398,1.1904321,-3.7922053,-1.469398,1.1904321,-3.7922053
130,1715728722840,-1.3288276,1.0938926,-4.005568866666667,-1.3288276,1.0938926,-4.005568866666667
131,1715728722850,-1.0476868,0.9008136,-4.432296,-1.0476868,0.9008136,-4.432296
132,1715728722860,-0.8659705666666667,0.6629047066666667,-4.721248666666667,-0.8659705666666667,0.6629047066666667,-4.721248666666667
133,1715728722870,-0.77511245,0.54395026,-4.865725,-0.77511245,0.54395026,-4.865725
134,1715728722880,-0.3841607,0.31185594,-5.671996,-0.3841607,0.31185594,-5.671996
135,1715728722890,-0.21305272375,0.3898531875,-6.236685575,-0.21305272375,0.3898531875,-6.236685575
136,1715728722900,-0.0990162554,0.6093574,-6.893747380000001,-0.0990162554,0.6093574,-6.893747380000001
137,1715728722910,-0.075367406,0.7026745,-7.125682,-0.075367406,0.7026745,-7.125682
138,1715728722920,-0.03808317688,0.8310387699999999,-7.4121711999999995,-0.03808317688,0.8310387699999999,-7.4121711999999995
139,1715728722930,0.122771636,1.1179942,-8.127829,0.122771636,1.1179942,-8.127829
140,1715728722940,0.19177409039999999,1.1062763,-8.2598944,0.19177409039999999,1.1062763,-8.2598944
141,1715728722950,0.40599862,1.0487521,-8.641152,0.40599862,1.0487521,-8.641152
142,1715728722960,0.5487439,1.0061415,-8.806268,0.5487439,1.0061415,-8.806268
143,1715728722970,0.6890258149999999,0.963331225,-8.92231525,0.6890258149999999,0.963331225,-8.92231525
144,1715728722980,0.90334356,0.8848345999999999,-9.075646,0.90334356,0.8848345999999999,-9.075646
145,1715728722990,0.98110783,0.853942,-9.069255,0.98110783,0.853942,-9.069255
146,1715728723000,1.2515516,0.88376933,-8.862727,1.2515516,0.88376933,-8.862727
147,1715728723010,1.41688048,0.8863259940000001,-8.613029399999999,1.41688048,0.8863259940000001,-8.613029399999999
148,1715728723020,1.4582127,0.88696516,-8.550605,1.4582127,0.88696516,-8.550605
149,1715728723030,1.6279625,0.697987382,-7.928890559999999,1.6279625,0.697987382,-7.928890559999999
150,1715728723040,1.8042903,0.45553336,-7.1885324,1.8042903,0.45553336,-7.1885324
151,1715728723050,1.8042903,0.45553336,-7.1885324,1.8042903,0.45553336,-7.1885324
152,1715728723060,1.8042903,0.45553336,-7.1885324,1.8042903,0.45553336,-7.1885324
153,1715728723070,1.8042903,0.45553336,-7.1885324,1.8042903,0.45553336,-7.1885324
154,1715728723080,1.8042903,0.45553336,-7.1885324,1.8042903,0.45553336,-7.1885324
155,1715728723090,1.8042903,0.45553336,-7.1885324,1.8042903,0.45553336,-7.1885324
156,1715728723100,1.75427622,-0.41153797360000005,-3.30553972,1.75427622,-0.41153797360000005,-3.30553972
157,1715728723110,1.1824427,0.17230639,-2.3481073,1.1824427,0.17230639,-2.3481073
158,1715728723120,1.1824427,0.17230639,-2.3481073,1.1824427,0.17230639,-2.3481073
159,1715728723130,-0.36085805,0.55460286,-1.3065459,-0.36085805,0.55460286,-1.3065459
160,1715728723140,-1.90375929,0.3126815116,0.9960215400000001,-1.90375929,0.3126815116,0.9960215400000001
161,1715728723150,-2.7240124,0.012516848,3.145191,-2.7240124,0.012516848,3.145191
162,1715728723160,-2.6718144,-0.08122636,4.8779755,-2.6718144,-0.08122636,4.8779755
163,1715728723170,-2.6718144,-0.08122636,4.8779755,-2.6718144,-0.08122636,4.8779755
164,1715728723180,-1.99151038,0.080267614,6.895105259999999,-1.99151038,0.080267614,6.895105259999999
165,1715728723190,-1.3209047333333332,0.2896629316666666,8.329784600000002,-1.3209047333333332,0.2896629316666666,8.329784600000002
166,1715728723200,-0.92227864,0.43790322000000004,8.9160168,-0.92227864,0.43790322000000004,8.9160168
167,1715728723210,-0.5567334,0.5780387,9.390299,-0.5567334,0.5780387,9.390299
168,1715728723220,-0.5175849650000001,0.5575323675,9.395359000000001,-0.5175849650000001,0.5575323675,9.395359000000001
169,1715728723230,-0.4779039,0.2245043,9.093224,-0.4779039,0.2245043,9.093224
170,1715728723240,-0.5908218416666667,-0.07161678666666667,8.767541666666666,-0.5908218416666667,-0.07161678666666667,8.767541666666666
171,1715728723250,-0.7533810860000001,-0.44030008600000003,8.297206,-0.7533810860000001,-0.44030008600000003,8.297206
172,1715728723260,-0.78150403,-0.54341763,8.159254,-0.78150403,-0.54341763,8.159254
173,1715728723270,-0.78150403,-0.54341763,8.159254,-0.78150403,-0.54341763,8.159254
174,1715728723280,-0.7286669659999999,-0.631941022,8.2342476,-0.7286669659999999,-0.631941022,8.2342476
175,1715728723290,-0.314412574,-0.607866094,8.775189000000001,-0.314412574,-0.607866094,8.775189000000001
176,1715728723300,0.16205323,-0.3942807,9.186967,0.16205323,-0.3942807,9.186967
177,1715728723310,0.53702605,-0.2941459,9.208272,0.53702605,-0.2941459,9.208272
178,1715728723320,0.55662689,-0.21917798200000002,8.9187867,0.55662689,-0.21917798200000002,8.9187867
179,1715728723330,0.4912197,-0.11092058,8.111317,0.4912197,-0.11092058,8.111317
180,1715728723340,0.38966456666666666,-0.3957010600000001,7.670386333333333,0.38966456666666666,-0.3957010600000001,7.670386333333333
181,1715728723350,0.71372664,-1.7053540000000003,6.3966417,0.71372664,-1.7053540000000003,6.3966417
182,1715728723360,1.313337,-2.2899175,5.7608128,1.313337,-2.2899175,5.7608128
183,1715728723370,1.313337,-2.2899175,5.7608128,1.313337,-2.2899175,5.7608128
184,1715728723380,2.2570274,-2.5764732,4.460525,2.2570274,-2.5764732,4.460525
185,1715728723390,2.2493573600000003,-2.06650488,3.2668171999999998,2.2493573600000003,-2.06650488,3.2668171999999998
186,1715728723400,0.94169307,-0.496546,0.4901544500000001,0.94169307,-0.496546,0.4901544500000001
187,1715728723410,0.37191015,-0.12583427,-0.13289164,0.37191015,-0.12583427,-0.13289164
188,1715728723420,-0.5738042400000001,0.4569182319999999,-1.163614096,-0.5738042400000001,0.4569182319999999,-1.163614096
189,1715728723430,-1.938114,1.2905669,-2.856105,-1.938114,1.2905669,-2.856105
190,1715728723440,-2.0780098199999997,1.38324482,-3.12638904,-2.0780098199999997,1.38324482,-3.12638904
191,1715728723450,-2.31103618,1.52929242,-4.017109039999999,-2.31103618,1.52929242,-4.017109039999999
192,1715728723460,-2.1595557,1.2767185,-4.4429483,-2.1595557,1.2767185,-4.4429483
193,1715728723470,-1.9734674499999998,1.10551065,-4.54624555,-1.9734674499999998,1.10551065,-4.54624555
194,1715728723480,-1.4152027,0.5918871,-4.8561373,-1.4152027,0.5918871,-4.8561373
195,1715728723490,-1.4152027,0.5918871,-4.8561373,-1.4152027,0.5918871,-4.8561373
196,1715728723500,-1.4152027,0.5918871,-4.8561373,-1.4152027,0.5918871,-4.8561373
197,1715728723510,-1.4152027,0.5918871,-4.8561373,-1.4152027,0.5918871,-4.8561373
198,1715728723520,-1.4152027,0.5918871,-4.8561373,-1.4152027,0.5918871,-4.8561373
199,1715728723530,-1.4152027,0.5918871,-4.8561373,-1.4152027,0.5918871,-4.8561373
200,1715728723540,-1.4152027,0.5918871,-4.8561373,-1.4152027,0.5918871,-4.8561373
201,1715728723550,-1.4152027,0.5918871,-4.8561373,-1.4152027,0.5918871,-4.8561373
202,1715728723560,-1.4152027,0.5918871,-4.8561373,-1.4152027,0.5918871,-4.8561373
203,1715728723570,-1.4152027,0.5918871,-4.8561373,-1.4152027,0.5918871,-4.8561373
204,1715728723580,-1.4152027,0.5918871,-4.8561373,-1.4152027,0.5918871,-4.8561373
205,1715728723590,-1.4152027,0.5918871,-4.8561373,-1.4152027,0.5918871,-4.8561373
206,1715728723600,-1.4152027,0.5918871,-4.8561373,-1.4152027,0.5918871,-4.8561373
207,1715728723610,-1.4152027,0.5918871,-4.8561373,-1.4152027,0.5918871,-4.8561373
208,1715728723620,-1.4152027,0.5918871,-4.8561373,-1.4152027,0.5918871,-4.8561373
209,1715728723630,-1.0647753833333333,0.7477263000000001,-5.5885061,-1.0647753833333333,0.7477263000000001,-5.5885061
210,1715728723640,0.82587894,1.694967625,-8.06953875,0.82587894,1.694967625,-8.06953875
211,1715728723650,2.3091587,1.5110099000000001,-7.61716775,2.3091587,1.5110099000000001,-7.61716775
212,1715728723660,2.5370586,1.339569,-7.3110375,2.5370586,1.339569,-7.3110375
213,1715728723670,2.6659553,0.3597928,-5.8103476,2.6659553,0.3597928,-5.8103476
214,1715728723680,2.61482274,0.1024250984,-5.37667864,2.61482274,0.1024250984,-5.37667864
215,1715728723690,2.42522805,-0.36889193016666666,-4.471133466666667,2.42522805,-0.36889193016666666,-4.471133466666667
216,1715728723700,2.0418441,-1.0002825,-3.0775466,2.0418441,-1.0002825,-3.0775466
217,1715728723710,1.9172082,-0.9917604299999999,-2.8284082,1.9172082,-0.9917604299999999,-2.8284082
218,1715728723720,1.6149663,-0.824301012,-2.6169266799999997,1.6149663,-0.824301012,-2.6169266799999997
219,1715728723730,1.4134716999999999,-0.7126614,-2.475939,1.4134716999999999,-0.7126614,-2.475939
220,1715728723740,1.00930402,-0.5809348875,-2.35130325,1.00930402,-0.5809348875,-2.35130325
221,1715728723750,0.12694392000000002,-0.5036477833333334,-1.761591,0.12694392000000002,-0.5036477833333334,-1.761591
222,1715728723760,-0.60701386,-0.53979572,-0.63937124,-0.60701386,-0.53979572,-0.63937124
223,1715728723770,-1.0210552,-0.6744006666666666,0.9250039333333334,-1.0210552,-0.6744006666666666,0.9250039333333334
224,1715728723780,-1.0423604,-0.8064046000000001,1.8927071999999998,-1.0423604,-0.8064046000000001,1.8927071999999998
225,1715728723790,-0.9997831749999999,-0.870586725,2.32004435,-0.9997831749999999,-0.870586725,2.32004435
226,1715728723800,-0.5234972040000001,-1.20534582,5.34695756,-0.5234972040000001,-1.20534582,5.34695756
227,1715728723810,-0.277035125,-1.1855274999999998,6.4221639999999995,-0.277035125,-1.1855274999999998,6.4221639999999995
228,1715728723820,0.256222538,-0.84541988,8.5902862,0.256222538,-0.84541988,8.5902862
229,1715728723830,0.42836913,-0.5668534,9.454215,0.42836913,-0.5668534,9.454215
230,1715728723840,0.462883678,-0.4679969399999999,9.6748842,0.462883678,-0.4679969399999999,9.6748842
231,1715728723850,0.48802390000000007,-0.034354754,10.413751,0.48802390000000007,-0.034354754,10.413751
232,1715728723860,0.42330913000000003,-0.038349491,10.413052,0.42330913000000003,-0.038349491,10.413052
233,1715728723870,-0.09028109,-0.27603644,10.010149,-0.09028109,-0.27603644,10.010149
234,1715728723880,-0.48642599999999997,-0.4677839,9.524522,-0.48642599999999997,-0.4677839,9.524522
235,1715728723890,-0.74575115,-0.35433332,9.3008835,-0.74575115,-0.35433332,9.3008835
236,1715728723900,-1.0050763,-0.24088274,9.077245,-1.0050763,-0.24088274,9.077245
237,1715728723910,-1.0807099999999998,-0.08991491,9.1997165,-1.0807099999999998,-0.08991491,9.1997165
238,1715728723920,-1.1691269,0.14993586,9.437171,-1.1691269,0.14993586,9.437171
239,1715728723930,-1.3033501,0.41625177999999996,9.816404,-1.3033501,0.41625177999999996,9.816404
240,1715728723940,-1.57616416,0.676921776,9.8881231,-1.57616416,0.676921776,9.8881231
241,1715728723950,-1.990312,0.92424935,9.587373,-1.990312,0.92424935,9.587373
242,1715728723960,-2.1137493,0.91785777,9.1347685,-2.1137493,0.91785777,9.1347685
243,1715728723970,-2.1137493,0.91785777,9.1347685,-2.1137493,0.91785777,9.1347685
244,1715728723980,-1.3571991159999999,0.07986813799999999,6.94256274,-1.3571991159999999,0.07986813799999999,6.94256274
245,1715728723990,-1.6568843999999998,0.25539696,7.1517806,-1.6568843999999998,0.25539696,7.1517806
246,1715728724000,1.3186632,-1.3921664,3.53814,1.3186632,-1.3921664,3.53814
247,1715728724010,1.43200728,-1.21325544,2.9472916000000002,1.43200728,-1.21325544,2.9472916000000002
248,1715728724020,1.4017538,-1.0066742,2.3517027,1.4017538,-1.0066742,2.3517027
249,1715728724030,1.15155,-0.9715204,1.5413033,1.15155,-0.9715204,1.5413033
250,1715728724040,1.15155,-0.9715204,1.5413033,1.15155,-0.9715204,1.5413033
251,1715728724050,0.68616295,-0.609464,-0.14993586,0.68616295,-0.609464,-0.14993586
252,1715728724060,0.440726206,-0.29329372,-0.7999597319999999,0.440726206,-0.29329372,-0.7999597319999999
253,1715728724070,-0.19467694,0.6206492,-2.2692778,-0.19467694,0.6206492,-2.2692778
254,1715728724080,-0.6270408,1.2277163,-3.2607720000000002,-0.6270408,1.2277163,-3.2607720000000002
255,1715728724090,-0.6270408,1.2277163,-3.260772,-0.6270408,1.2277163,-3.260772
256,1715728724100,-0.6270408,1.2277163,-3.2607720000000002,-0.6270408,1.2277163,-3.2607720000000002
257,1715728724110,-0.6270408,1.2277163,-3.2607720000000002,-0.6270408,1.2277163,-3.2607720000000002
258,1715728724120,-0.6270408,1.2277163,-3.260772,-0.6270408,1.2277163,-3.260772
259,1715728724130,-0.476938505,0.7516433475,-4.63010215,-0.476938505,0.7516433475,-4.63010215
260,1715728724140,-0.380192592,0.558437818,-5.05251908,-0.380192592,0.558437818,-5.05251908
261,1715728724150,-0.486426,0.67497766,-5.773063,-0.486426,0.67497766,-5.773063
262,1715728724160,-0.591461,0.870746492,-6.0525616,-0.591461,0.870746492,-6.0525616
263,1715728724170,-0.7910914,1.2958932,-6.553768,-0.7910914,1.2958932,-6.553768
264,1715728724180,-0.8880304000000001,1.6686023000000003,-6.929672999999999,-0.8880304000000001,1.6686023000000003,-6.929672999999999
265,1715728724190,-0.89042724,1.737844425,-7.0002467500000005,-0.89042724,1.737844425,-7.0002467500000005
266,1715728724200,-0.78683037,2.2831264,-7.632614000000001,-0.78683037,2.2831264,-7.632614000000001
267,1715728724210,-0.609810156,2.39668348,-7.8162386,-0.609810156,2.39668348,-7.8162386
268,1715728724220,-0.27244118,2.5015054,-8.013845,-0.27244118,2.5015054,-8.013845
269,1715728724230,0.10466214999999998,2.475939,-8.062847,0.10466214999999998,2.475939,-8.062847
270,1715728724240,0.10466215,2.475939,-8.062847,0.10466215,2.475939,-8.062847
271,1715728724250,0.9235835700000001,2.1979053,-7.944602999999999,0.9235835700000001,2.1979053,-7.944602999999999
272,1715728724260,1.083799194,2.12802386,-7.91051444,1.083799194,2.12802386,-7.91051444
273,1715728724270,1.7106802,1.8496971,-7.6677675,1.7106802,1.8496971,-7.6677675
274,1715728724280,2.049301,1.622796,-7.4025170000000005,2.049301,1.622796,-7.4025170000000005
275,1715728724290,2.049301,1.622796,-7.402517,2.049301,1.622796,-7.402517
276,1715728724300,2.4774036,1.1478215,-6.730602,2.4774036,1.1478215,-6.730602
277,1715728724310,2.4791080800000005,1.1284337199999999,-6.693104719999999,2.4791080800000005,1.1284337199999999,-6.693104719999999
278,1715728724320,2.15540116,0.816444726,-5.871946400000001,2.15540116,0.816444726,-5.871946400000001
279,1715728724330,1.936383,0.78150403,-5.611276,1.936383,0.78150403,-5.611276
280,1715728724340,1.936383,0.78150403,-5.611276,1.936383,0.78150403,-5.611276
281,1715728724350,0.86073303,0.91359675,-4.542018,0.86073303,0.91359675,-4.542018
282,1715728724360,0.5936714280000001,0.9376716999999999,-4.26038892,0.5936714280000001,0.9376716999999999,-4.26038892
283,1715728724370,-0.0014381060000000002,0.955355068,-3.58876676,-0.0014381060000000002,0.955355068,-3.58876676
284,1715728724380,-0.15313165,0.93064094,-3.3715594,-0.15313165,0.93064094,-3.3715594
285,1715728724390,-0.477104964,0.599397212,-2.3429941,-0.477104964,0.599397212,-2.3429941
286,1715728724400,-0.75806826,0.22983064,-1.2724574,-0.75806826,0.22983064,-1.2724574
287,1715728724410,-0.77937354,0.0321177008,-0.82259656,-0.77937354,0.0321177008,-0.82259656
288,1715728724420,-0.6962829,-0.76272875,0.91825724,-0.6962829,-0.76272875,0.91825724
289,1715728724430,-0.506666,-1.3570127,2.3241389,-0.506666,-1.3570127,2.3241389
290,1715728724440,-0.506666,-1.3570127,2.3241389,-0.506666,-1.3570127,2.3241389
291,1715728724450,-0.12436953000000002,-1.9001639999999997,4.722447,-0.12436953000000002,-1.9001639999999997,4.722447
292,1715728724460,-0.049801074,-1.7794784333333336,5.743457666666667,-0.049801074,-1.7794784333333336,5.743457666666667
293,1715728724470,-0.048522758799999996,-1.60926708,6.493127799999999,-0.048522758799999996,-1.60926708,6.493127799999999
294,1715728724480,-0.07749793,-1.5018886,6.887595,-0.07749793,-1.5018886,6.887595
295,1715728724490,-0.119895424,-1.44031636,7.1097558,-0.119895424,-1.44031636,7.1097558
296,1715728724500,-0.2894854,-1.1940274,7.998399000000001,-0.2894854,-1.1940274,7.998399000000001
297,1715728724510,-0.351696792,-1.1787941199999998,8.1560582,-0.351696792,-1.1787941199999998,8.1560582
298,1715728724520,-0.36724964,-1.1749858,8.195473,-0.36724964,-1.1749858,8.195473
299,1715728724530,-0.36724964,-1.1749858,8.195473,-0.36724964,-1.1749858,8.195473
300,1715728724540,-0.36724964,-1.1749858,8.195473,-0.36724964,-1.1749858,8.195473
301,1715728724550,-0.36724964,-1.1749858,8.195473,-0.36724964,-1.1749858,8.195473
302,1715728724560,-0.36724964,-1.1749858,8.195473,-0.36724964,-1.1749858,8.195473
303,1715728724570,-0.36724964,-1.1749858,8.195473,-0.36724964,-1.1749858,8.195473
304,1715728724580,-0.36724964,-1.1749858,8.195473,-0.36724964,-1.1749858,8.195473
305,1715728724590,-0.36724964,-1.1749858,8.195473,-0.36724964,-1.1749858,8.195473
306,1715728724600,-0.36724964,-1.1749858,8.195473,-0.36724964,-1.1749858,8.195473
307,1715728724610,-0.36724964,-1.1749858,8.195473,-0.36724964,-1.1749858,8.195473
308,1715728724620,-0.36724964,-1.1749858,8.195473,-0.36724964,-1.1749858,8.195473
309,1715728724630,-0.36724964,-1.1749858,8.195473,-0.36724964,-1.1749858,8.195473
310,1715728724640,-0.36724964,-1.1749858,8.195473,-0.36724964,-1.1749858,8.195473
311,1715728724650,-1.0764489,-0.49761128,9.6491585,-1.0764489,-0.49761128,9.6491585
312,1715728724660,-0.20812589999999997,-1.3964718666666667,8.734673666666668,-0.20812589999999997,-1.3964718666666667,8.734673666666668
313,1715728724670,1.8255956000000002,-2.4081616,7.4094415,1.8255956000000002,-2.4081616,7.4094415
314,1715728724680,2.070606133333333,-2.4337278666666666,6.641918966666666,2.070606133333333,-2.4337278666666666,6.641918966666666
315,1715728724690,2.36987865,-2.3527678,5.0270456999999995,2.36987865,-2.3527678,5.0270456999999995
316,1715728724700,2.3203882333333334,-1.7461446,2.1292400333333332,2.3203882333333334,-1.7461446,2.1292400333333332
317,1715728724710,1.4433434233333333,-0.66303785,0.44545772,1.4433434233333333,-0.66303785,0.44545772
318,1715728724720,0.088261525,0.7196743416666666,-1.1655315999999998,0.088261525,0.7196743416666666,-1.1655315999999998
319,1715728724730,-1.1542132,1.6462318,-1.9891136,-1.1542132,1.6462318,-1.9891136
320,1715728724740,-1.30161904,1.73355678,-2.07412164,-1.30161904,1.73355678,-2.07412164
321,1715728724750,-2.55357,2.41948,-2.8944545,-2.55357,2.41948,-2.8944545
322,1715728724760,-2.76364008,2.42331504,-3.15895954,-2.76364008,2.42331504,-3.15895954
323,1715728724770,-2.78941954,2.28208768,-3.3108395600000002,-2.78941954,2.28208768,-3.3108395600000002
324,1715728724780,-2.6078985,2.030792,-3.3364058,-2.6078985,2.030792,-3.3364058
325,1715728724790,-2.4541277399999997,1.8982731999999998,-3.37859024,-2.4541277399999997,1.8982731999999998,-3.37859024
326,1715728724800,-1.7698022999999998,1.4088112,-3.6803526999999994,-1.7698022999999998,1.4088112,-3.6803526999999994
327,1715728724810,-1.49634918,1.26649192,-3.9215283800000003,-1.49634918,1.26649192,-3.9215283800000003
328,1715728724820,-0.89548725,1.0210552,-4.655868,-0.89548725,1.0210552,-4.655868
329,1715728724830,-0.542885,0.9763141,-5.183173,-0.542885,0.9763141,-5.183173
330,1715728724840,-0.48645931,0.97871095,-5.30830835,-0.48645931,0.97871095,-5.30830835
331,1715728724850,-0.22556958000000002,1.0412952,-6.060683999999999,-0.22556958000000002,1.0412952,-6.060683999999999
332,1715728724860,-0.15142722800000002,1.1060632,-6.450038080000001,-0.15142722800000002,1.1060632,-6.450038080000001
333,1715728724870,0.02135853624,1.3063328,-7.141847200000001,0.02135853624,1.3063328,-7.141847200000001
334,1715728724880,0.1355548,1.3693964,-7.406778,0.1355548,1.3693964,-7.406778
335,1715728724890,0.225503,1.3667332,-7.562839,0.225503,1.3667332,-7.562839
336,1715728724900,0.553005,1.3523521,-8.058586,0.553005,1.3523521,-8.058586
337,1715728724910,0.66938504,1.3452504333333335,-8.191389333333333,0.66938504,1.3452504333333335,-8.191389333333333
338,1715728724920,1.002413,1.2948279,-8.423839,1.002413,1.2948279,-8.423839
339,1715728724930,1.25101902,1.25243048,-8.4370474,1.25101902,1.25243048,-8.4370474
340,1715728724940,1.4102759,1.2149332,-8.425969,1.4102759,1.2149332,-8.425969
341,1715728724950,1.5966971,1.1233205,-8.332359,1.5966971,1.1233205,-8.332359
342,1715728724960,1.6752269750000002,1.0415948,-8.1688745,1.6752269750000002,1.0415948,-8.1688745
343,1715728724970,1.8298566,0.8656599000000001,-7.786012,1.8298566,0.8656599000000001,-7.786012
344,1715728724980,1.8483212,0.7129720933333333,-7.0401500666666665,1.8483212,0.7129720933333333,-7.0401500666666665
345,1715728724990,1.8192039999999998,0.6866956,-6.749777,1.8192039999999998,0.6866956,-6.749777
346,1715728725000,1.6765918,0.64621556,-6.1011643,1.6765918,0.64621556,-6.1011643
347,1715728725010,1.4728934,0.6635261025,-5.468564025,1.4728934,0.6635261025,-5.468564025
348,1715728725020,1.1856384,0.71758825,-4.6272388,1.1856384,0.71758825,-4.6272388
349,1715728725030,0.94275831,0.7060834,-4.05015898,0.94275831,0.7060834,-4.05015898
350,1715728725040,0.49548075,0.5865608,-3.0935256,0.49548075,0.5865608,-3.0935256
351,1715728725050,0.087617934,0.32783487,-2.347042,0.087617934,0.32783487,-2.347042
352,1715728725060,-0.1407745972,0.142905118,-1.91763424,-0.1407745972,0.142905118,-1.91763424
353,1715728725070,-0.6099966,-0.33036488,-0.93263835,-0.6099966,-0.33036488,-0.93263835
354,1715728725080,-0.883935775,-0.656235695,-0.03032673149999998,-0.883935775,-0.656235695,-0.03032673149999998
355,1715728725090,-1.0668615,-0.8799078,0.7255777,-1.0668615,-0.8799078,0.7255777
356,1715728725100,-1.1659311,-1.0151962,1.7437034,-1.1659311,-1.0151962,1.7437034
357,1715728725110,-1.1659311,-1.0151962,1.7437034,-1.1659311,-1.0151962,1.7437034
358,1715728725120,-1.1606047,-1.0034784,2.5562332,-1.1606047,-1.0034784,2.5562332
359,1715728725130,-0.77191665,-0.749179925,4.91279615,-0.77191665,-0.749179925,4.91279615
360,1715728725140,-0.4779039,-0.5551355,6.1038275,-0.4779039,-0.5551355,6.1038275
361,1715728725150,-0.21491694,-0.48802390000000007,6.986665,-0.21491694,-0.48802390000000007,6.986665
362,1715728725160,-0.14375732800000002,-0.49356328400000005,7.199664440000001,-0.14375732800000002,-0.49356328400000005,7.199664440000001
363,1715728725170,0.2099901,-0.6115945,8.1986685,0.2099901,-0.6115945,8.1986685
364,1715728725180,0.2653838,-0.703074,8.400935,0.2653838,-0.703074,8.400935
365,1715728725190,0.3506049,-1.0727205,8.715188,0.3506049,-1.0727205,8.715188
366,1715728725200,0.41025966,-1.313337,8.72158,0.41025966,-1.313337,8.72158
367,1715728725210,0.42304282000000004,-1.3370391,8.719449375,0.42304282000000004,-1.3370391,8.719449375
368,1715728725220,0.53702605,-1.4731264,8.730102,0.53702605,-1.4731264,8.730102
369,1715728725230,0.562379284,-1.49230122,8.8355368,0.562379284,-1.49230122,8.8355368
370,1715728725240,0.5956155,-1.5945665,9.086832,0.5956155,-1.5945665,9.086832
371,1715728725250,0.61425763,-1.6217307,9.077244499999999,0.61425763,-1.6217307,9.077244499999999
372,1715728725260,0.69092334,-1.5567496,8.81335875,0.69092334,-1.5567496,8.81335875
373,1715728725270,0.8138614000000001,-1.3761874,8.268843,0.8138614000000001,-1.3761874,8.268843
374,1715728725280,0.8445410320000001,-1.35914324,8.136004600000001,0.8445410320000001,-1.35914324,8.136004600000001
375,1715728725290,0.985155844,-1.3246287200000002,7.55066872,0.985155844,-1.3246287200000002,7.55066872
376,1715728725300,1.252383925,-1.1499188,6.192177625,1.252383925,-1.1499188,6.192177625
377,1715728725310,1.26542674,-1.07421184,5.92425052,1.26542674,-1.07421184,5.92425052
378,1715728725320,0.8937562,-0.8074698399999999,4.8651924,0.8937562,-0.8074698399999999,4.8651924
379,1715728725330,0.8085351120000001,-0.7895734080000001,4.74332616,0.8085351120000001,-0.7895734080000001,4.74332616
380,1715728725340,-0.08921583,-0.49228495,3.4997904000000006,-0.08921583,-0.49228495,3.4997904000000006
381,1715728725350,-0.8145272,-0.11411637,2.0077558,-0.8145272,-0.11411637,2.0077558
382,1715728725360,-0.8145272,-0.11411637000000001,2.0077558,-0.8145272,-0.11411637000000001,2.0077558
383,1715728725370,-1.400289,0.6387587,-0.8358325000000001,-1.400289,0.6387587,-0.8358325000000001
384,1715728725380,-1.436741025,0.8331360325,-1.440469475,-1.436741025,0.8331360325,-1.440469475
385,1715728725390,-1.5162697,1.2916322,-2.9136293,-1.5162697,1.2916322,-2.9136293
386,1715728725400,-1.4747244,1.4141375,-3.5951316000000006,-1.4747244,1.4141375,-3.5951316000000006
387,1715728725410,-1.4747244000000002,1.4141375,-3.5951316,-1.4747244000000002,1.4141375,-3.5951316
388,1715728725420,-1.15229566,1.2104591199999999,-3.8556951400000004,-1.15229566,1.2104591199999999,-3.8556951400000004
389,1715728725430,-0.882810624,0.9763407199999999,-3.88488336,-0.882810624,0.9763407199999999,-3.88488336
390,1715728725440,-0.46299022,0.6302366,-4.005258,-0.46299022,0.6302366,-4.005258
391,1715728725450,-0.361683644,0.5646163599999999,-4.1159388,-0.361683644,0.5646163599999999,-4.1159388
392,1715728725460,-0.25592959375,0.5815007875,-4.416782575,-0.25592959375,0.5815007875,-4.416782575
393,1715728725470,-0.014647375,0.68136925,-5.2363033,-0.014647375,0.68136925,-5.2363033
394,1715728725480,0.015393058920000003,0.8104526,-5.5622475,0.015393058920000003,0.8104526,-5.5622475
395,1715728725490,0.08442214,1.0775142,-6.127796,0.08442214,1.0775142,-6.127796
396,1715728725500,0.10146635600000001,1.11288096,-6.2023112,0.10146635600000001,1.11288096,-6.2023112
397,1715728725510,0.18928404000000001,1.2602069500000002,-6.5436482,0.18928404000000001,1.2602069500000002,-6.5436482
398,1715728725520,0.3474091,1.4535522,-7.1650963,0.3474091,1.4535522,-7.1650963
399,1715728725530,0.367862172,1.45270004,-7.26480526,0.367862172,1.45270004,-7.26480526
400,1715728725540,0.4344943975,1.3789837999999999,-7.59692775,0.4344943975,1.3789837999999999,-7.59692775
401,1715728725550,0.46245757,1.3438301,-7.649658,0.46245757,1.3438301,-7.649658
402,1715728725560,0.48589338,1.3285612999999998,-7.642556333333332,0.48589338,1.3285612999999998,-7.642556333333332
403,1715728725570,0.6488787,1.3289164,-7.4089089999999995,0.6488787,1.3289164,-7.4089089999999995
404,1715728725580,0.6966824,1.3502216,-7.276949,0.6966824,1.3502216,-7.276949
405,1715728725590,0.86073303,1.3779185,-6.8742795,0.86073303,1.3779185,-6.8742795
406,1715728725600,0.9896299,1.3544828,-6.635793699999999,0.9896299,1.3544828,-6.635793699999999
407,1715728725610,1.0180369333333334,1.3388589,-6.578624566666666,1.0180369333333334,1.3388589,-6.578624566666666
408,1715728725620,1.1696595,1.2149332,-6.1107516,1.1696595,1.2149332,-6.1107516
409,1715728725630,1.1604982,1.139113052,-5.87921666,1.1604982,1.139113052,-5.87921666
410,1715728725640,1.115331,0.88696516,-5.1394978,1.115331,0.88696516,-5.1394978
411,1715728725650,1.09083,0.81026614,-4.974382,1.09083,0.81026614,-4.974382
412,1715728725660,1.01029605,0.46008736599999994,-4.263797680000001,1.01029605,0.46008736599999994,-4.263797680000001
413,1715728725670,0.8905604,-0.2653838,-2.9200208,0.8905604,-0.2653838,-2.9200208
414,1715728725680,0.830139975,-0.489322175,-2.5179836250000003,0.830139975,-0.489322175,-2.5179836250000003
415,1715728725690,0.6288162333333334,-1.1859712666666666,-1.2507969933333334,0.6288162333333334,-1.1859712666666666,-1.2507969933333334
416,1715728725700,0.5285039,-1.3101411,-0.94542146,0.5285039,-1.3101411,-0.94542146
417,1715728725710,0.3538450568,-1.4010436333333331,-0.5549579566666667,0.3538450568,-1.4010436333333331,-0.5549579566666667
418,1715728725720,-0.42677125,-1.6158718,1.0812426,-0.42677125,-1.6158718,1.0812426
419,1715728725730,-0.55204624,-1.59222292,1.36111398,-0.55204624,-1.59222292,1.36111398
420,1715728725740,-0.93716574,-1.37831804,2.51322324,-0.93716574,-1.37831804,2.51322324
421,1715728725750,-1.3534174,-0.89908254,4.2794304,-1.3534174,-0.89908254,4.2794304
422,1715728725760,-1.4070534399999999,-0.7423289759999999,4.70670756,-1.4070534399999999,-0.7423289759999999,4.70670756
423,1715728725770,-1.566337,-0.16098797,6.3508353,-1.566337,-0.16098797,6.3508353
424,1715728725780,-1.5889206200000001,-0.007456848000000005,7.133617920000001,-1.5889206200000001,-0.007456848000000005,7.133617920000001
425,1715728725790,-1.6100129,0.15206638,8.069772,-1.6100129,0.15206638,8.069772
426,1715728725800,-1.6040473800000001,0.145248692,8.198455200000001,-1.6040473800000001,0.145248692,8.198455200000001
427,1715728725810,-1.56593756,0.09965541,8.3865274,-1.56593756,0.09965541,8.3865274
428,1715728725820,-1.2298468,-0.3207775,9.22212,-1.2298468,-0.3207775,9.22212
429,1715728725830,-1.006194744,-0.638172812,9.268992,-1.006194744,-0.638172812,9.268992
430,1715728725840,-0.77724296,-0.9757815,9.283906,-0.77724296,-0.9757815,9.283906
431,1715728725850,-0.52584076,-1.3697959,9.121985,-0.52584076,-1.3697959,9.121985
432,1715728725860,-0.52584076,-1.3697959,9.121985,-0.52584076,-1.3697959,9.121985
433,1715728725870,-0.10519478499999999,-2.126,8.709862,-0.10519478499999999,-2.126,8.709862
434,1715728725880,-0.062584237,-2.174576,8.678329999999999,-0.062584237,-2.174576,8.678329999999999
435,1715728725890,0.16418377,-2.2474399,8.711992,0.16418377,-2.2474399,8.711992
436,1715728725900,0.42197755,-2.32081,8.739689,0.42197755,-2.32081,8.739689
437,1715728725910,0.42197755,-2.32081,8.739689,0.42197755,-2.32081,8.739689
438,1715728725920,1.8767282,-2.0343874,8.114512,1.8767282,-2.0343874,8.114512
439,1715728725930,2.04546596,-1.89888574,7.84550656,2.04546596,-1.89888574,7.84550656
440,1715728725940,2.397509,-1.2675306,5.766139,2.397509,-1.2675306,5.766139
441,1715728725950,1.8543577,-0.6657898,3.0866015,1.8543577,-0.6657898,3.0866015
442,1715728725960,1.4553276333333336,-0.4080847533333333,2.0606637666666665,1.4553276333333336,-0.4080847533333333,2.0606637666666665
443,1715728725970,0.13662006,0.36724964,-0.526906,0.13662006,0.36724964,-0.526906
444,1715728725980,-0.6294110359999999,0.90800406,-1.5880950999999999,-0.6294110359999999,0.90800406,-1.5880950999999999
445,1715728725990,-1.30478818,1.44284636,-2.50059992,-1.30478818,1.44284636,-2.50059992
446,1715728726000,-1.5482275,1.6632761000000003,-2.8667576,-1.5482275,1.6632761000000003,-2.8667576
447,1715728726010,-1.536010275,1.661411875,-3.137800625,-1.536010275,1.661411875,-3.137800625
448,1715728726020,-1.4194638,1.5450318,-3.5217617,-1.4194638,1.5450318,-3.5217617
449,1715728726030,-1.2011180424999999,1.2628367950000001,-3.6138737,-1.2011180424999999,1.2628367950000001,-3.6138737
450,1715728726040,-0.54608077,0.41625177999999996,-3.8902097000000007,-0.54608077,0.41625177999999996,-3.8902097000000007
451,1715728726050,-0.31185594,0.17337166,-4.0201716,-0.31185594,0.17337166,-4.0201716
452,1715728726060,-0.07117293,0.004593945000000002,-4.3002696,-0.07117293,0.004593945000000002,-4.3002696
453,1715728726070,0.25792697,-0.10985532000000002,-5.1032786,0.25792697,-0.10985532000000002,-5.1032786
454,1715728726080,0.18766394666666666,0.17758832466666666,-5.734447499999999,0.18766394666666666,0.17758832466666666,-5.734447499999999
455,1715728726090,0.06908234399999999,0.489834848,-6.22833024,0.06908234399999999,0.489834848,-6.22833024
456,1715728726100,-0.03914844,0.70800084,-6.545246000000001,-0.03914844,0.70800084,-6.545246000000001
457,1715728726110,-0.03914844,0.70800084,-6.545246,-0.03914844,0.70800084,-6.545246
458,1715728726120,-0.13821796,0.99016255,-7.1895976,-0.13821796,0.99016255,-7.1895976
459,1715728726130,-0.111053737,1.0178594250000002,-7.311503650000001,-0.111053737,1.0178594250000002,-7.311503650000001
460,1715728726140,0.04607265,1.0317079,-7.8328834,0.04607265,1.0317079,-7.8328834
461,1715728726150,0.07590003,1.01999,-7.915841,0.07590003,1.01999,-7.915841
462,1715728726160,0.07590003,1.01999,-7.915841,0.07590003,1.01999,-7.915841
463,1715728726170,0.43476072,0.9944236,-8.547409,0.43476072,0.9944236,-8.547409
464,1715728726180,0.57427697,1.0727204750000001,-8.5285005,0.57427697,1.0727204750000001,-8.5285005
465,1715728726190,0.8628635399999999,1.2458259,-8.429165,0.8628635399999999,1.2458259,-8.429165
466,1715728726200,1.1209237349999999,1.4207954250000001,-8.09290775,1.1209237349999999,1.4207954250000001,-8.09290775
467,1715728726210,1.2761415333333332,1.5319823000000001,-7.865462866666667,1.2761415333333332,1.5319823000000001,-7.865462866666667
468,1715728726220,1.6893749,1.8156086999999999,-7.0894628,1.6893749,1.8156086999999999,-7.0894628
469,1715728726230,1.731586,1.8127680000000002,-6.9723282,1.731586,1.8127680000000002,-6.9723282
470,1715728726240,1.89888564,1.0398304919999999,-5.2953454,1.89888564,1.0398304919999999,-5.2953454
471,1715728726250,1.8767282,0.88909566,-5.096887,1.8767282,0.88909566,-5.096887
472,1715728726260,1.8767282,0.88909566,-5.096887,1.8767282,0.88909566,-5.096887
473,1715728726270,1.2909664,-1.3996233,-2.9956546,1.2909664,-1.3996233,-2.9956546
474,1715728726280,1.05461101,-1.724229075,-2.6707824000000002,1.05461101,-1.724229075,-2.6707824000000002
475,1715728726290,0.5988113159999999,-2.0972378400000005,-2.16232532,0.5988113159999999,-2.0972378400000005,-2.16232532
476,1715728726300,0.40280281999999995,-2.114282,-1.9731346000000003,0.40280281999999995,-2.114282,-1.9731346000000003
477,1715728726310,0.40280282,-2.114282,-1.9731346,0.40280282,-2.114282,-1.9731346
478,1715728726320,-0.58889105,-1.7491850500000001,-0.09236724166666667,-0.58889105,-1.7491850500000001,-0.09236724166666667
479,1715728726330,-0.696495992,-1.65933456,1.184759586,-0.696495992,-1.65933456,1.184759586
480,1715728726340,-0.64621556,-1.6616781,2.8150923,-0.64621556,-1.6616781,2.8150923
481,1715728726350,-0.64621556,-1.6616781000000003,2.8150923,-0.64621556,-1.6616781000000003,2.8150923
482,1715728726360,-0.11158637,-1.531716,5.7885094,-0.11158637,-1.531716,5.7885094
483,1715728726370,0.0972053,-1.3090758,7.076147000000001,0.0972053,-1.3090758,7.076147000000001
484,1715728726380,0.13815137,-1.20581185,7.49626035,0.13815137,-1.20581185,7.49626035
485,1715728726390,0.21531641,-0.74568456,9.0804405,0.21531641,-0.74568456,9.0804405
486,1715728726400,0.18548903,-0.61265975,9.441432,0.18548903,-0.61265975,9.441432
487,1715728726410,-0.03914844,-0.2568617,10.15396,-0.03914844,-0.2568617,10.15396
488,1715728726420,-0.31079066,-0.047137916,10.405362,-0.31079066,-0.047137916,10.405362
489,1715728726430,-0.3988080733333333,0.015712639333333334,10.450414,-0.3988080733333333,0.015712639333333334,10.450414
490,1715728726440,-1.2138679,0.6046703,10.884598000000002,-1.2138679,0.6046703,10.884598000000002
491,1715728726450,-1.4734261,0.824380895,11.065059999999999,-1.4734261,0.824380895,11.065059999999999
492,1715728726460,-1.5599455,0.89761776,11.125214,-1.5599455,0.89761776,11.125214
493,1715728726470,-3.1435930000000005,2.2564948,11.851591,-3.1435930000000005,2.2564948,11.851591
494,1715728726480,-3.7694087400000003,2.67461074,11.803228,-3.7694087400000003,2.67461074,11.803228
495,1715728726490,-8.57191,4.5686493,9.751424,-8.57191,4.5686493,9.751424
496,1715728726500,-8.7900764,4.35133546,9.3765576,-8.7900764,4.35133546,9.3765576
497,1715728726510,-8.1689744,2.688885092,7.77224368,-8.1689744,2.688885092,7.77224368
498,1715728726520,-3.5473279999999994,-2.6574333,3.9864829,-3.5473279999999994,-2.6574333,3.9864829
499,1715728726530,-1.56915996,-3.27747,3.6584882399999996,-1.56915996,-3.27747,3.6584882399999996
500,1715728726540,2.3836606,-3.8342833999999995,3.0855362,2.3836606,-3.8342833999999995,3.0855362
501,1715728726550,2.6627595,-3.7203001999999996,3.040795,2.6627595,-3.7203001999999996,3.040795
502,1715728726560,2.7383933,-2.1515663,3.0876667,2.7383933,-2.1515663,3.0876667
503,1715728726570,2.2463746,-1.5828487000000002,3.0940583,2.2463746,-1.5828487000000002,3.0940583
504,1715728726580,2.2463746,-1.5828487,3.0940583,2.2463746,-1.5828487,3.0940583
505,1715728726590,0.9255143666666666,-1.3417439,2.2672805,0.9255143666666666,-1.3417439,2.2672805
506,1715728726600,0.64781344,-1.3112063,1.9491662,0.64781344,-1.3112063,1.9491662
507,1715728726610,0.64781344,-1.3112063,1.9491661999999998,0.64781344,-1.3112063,1.9491661999999998
508,1715728726620,-0.026365275000000004,-0.21212062,-0.5577987,-0.026365275000000004,-0.21212062,-0.5577987
509,1715728726630,-0.041705073,-0.10096036000000001,-0.71497834,-0.041705073,-0.10096036000000001,-0.71497834
510,1715728726640,-0.05832318599999999,0.6760429,-1.812413,-0.05832318599999999,0.6760429,-1.812413
511,1715728726650,-0.042344230000000004,0.73143667,-1.9168087,-0.042344230000000004,0.73143667,-1.9168087
512,1715728726660,-0.04234423,0.73143667,-1.9168087,-0.04234423,0.73143667,-1.9168087
513,1715728726670,0.221708,0.7431545,-2.529069,0.221708,0.7431545,-2.529069
514,1715728726680,0.305597515,0.622280375,-2.6475796,0.305597515,0.622280375,-2.6475796
515,1715728726690,0.8234488,-0.19933745,-3.507913,0.8234488,-0.19933745,-3.507913
516,1715728726700,0.9534109749999999,-0.388954385,-4.1106527,0.9534109749999999,-0.388954385,-4.1106527
517,1715728726710,1.0056089,-0.44328284,-4.481298,1.0056089,-0.44328284,-4.481298
518,1715728726720,0.993891,-0.22916484,-4.9818387,0.993891,-0.22916484,-4.9818387
519,1715728726730,0.9805752,0.22024322999999996,-5.45148685,0.9805752,0.22024322999999996,-5.45148685
520,1715728726740,0.9672594,0.6696513,-5.921135,0.9672594,0.6696513,-5.921135
521,1715728726750,1.003691356,1.11146944,-6.31991596,1.003691356,1.11146944,-6.31991596
522,1715728726760,1.0407625,1.4514217,-6.6240754,1.0407625,1.4514217,-6.6240754
523,1715728726770,1.1227878,1.6728634,-6.8657575,1.1227878,1.6728634,-6.8657575
524,1715728726780,1.15154994,1.7342225800000002,-6.976970799999999,1.15154994,1.7342225800000002,-6.976970799999999
525,1715728726790,1.2377032,1.7900424000000001,-7.3238206,1.2377032,1.7900424000000001,-7.3238206
526,1715728726800,1.265666425,1.751692875,-7.506679675,1.265666425,1.751692875,-7.506679675
527,1715728726810,1.3080106,1.679255,-7.8701677,1.3080106,1.679255,-7.8701677
528,1715728726820,1.4251896,1.6014907,-8.619847,1.4251896,1.6014907,-8.619847
529,1715728726830,1.52191556,1.6773374799999998,-8.815802600000001,1.52191556,1.6773374799999998,-8.815802600000001
530,1715728726840,1.6403728999999998,1.7836507999999998,-8.997883,1.6403728999999998,1.7836507999999998,-8.997883
531,1715728726850,1.712278175,1.832386625,-8.9866975,1.712278175,1.832386625,-8.9866975
532,1715728726860,2.078063,2.0137477,-8.776441,2.078063,2.0137477,-8.776441
533,1715728726870,2.3303974,2.0286615,-8.554866,2.3303974,2.0286615,-8.554866
534,1715728726880,2.37354055,2.015079375,-8.501103500000001,2.37354055,2.015079375,-8.501103500000001
535,1715728726890,2.70153528,1.788551,-7.9521664,2.70153528,1.788551,-7.9521664
536,1715728726900,2.8299617,1.4105422133333334,-7.378104533333333,2.8299617,1.4105422133333334,-7.378104533333333
537,1715728726910,2.9363992,0.8198535400000001,-6.551637600000001,2.9363992,0.8198535400000001,-6.551637600000001
538,1715728726920,2.7511766,-0.17909744,-5.3470907,2.7511766,-0.17909744,-5.3470907
539,1715728726930,2.6719209200000003,-0.375904904,-5.08295858,2.6719209200000003,-0.375904904,-5.08295858
540,1715728726940,2.28384532,-1.03586242,-4.12025328,2.28384532,-1.03586242,-4.12025328
541,1715728726950,2.0184083,-1.2984232,-3.6824832,2.0184083,-1.2984232,-3.6824832
542,1715728726960,1.1749858,-1.5849792,-2.8997808,1.1749858,-1.5849792,-2.8997808
543,1715728726970,0.39960703,-1.6542213000000001,-2.185122,0.39960703,-1.6542213000000001,-2.185122
544,1715728726980,0.39960703000000003,-1.6542213,-2.185122,0.39960703000000003,-1.6542213,-2.185122
545,1715728726990,-1.0125331,-1.8053555,0.15046848,-1.0125331,-1.8053555,0.15046848
546,1715728727000,-1.18467966,-1.8181387,0.7672561440000001,-1.18467966,-1.8181387,0.7672561440000001
547,1715728727010,-1.4152027,-1.6403729,3.513639,-1.4152027,-1.6403729,3.513639
548,1715728727020,-1.1968237,-1.236638,5.2517495,-1.1968237,-1.236638,5.2517495
549,1715728727030,-1.06739415,-1.02418445,5.84443575,-1.06739415,-1.02418445,5.84443575
550,1715728727040,-0.5183839,-0.05566002400000001,8.130491,-0.5183839,-0.05566002400000001,8.130491
551,1715728727050,-0.416917555,0.138484274,8.55782825,-0.416917555,0.138484274,8.55782825
552,1715728727060,-0.10519478499999999,0.71652293,10.018671,-0.10519478499999999,0.71652293,10.018671
553,1715728727070,-0.052996866,0.7900261,10.329728,-0.052996866,0.7900261,10.329728
554,1715728727080,-0.05796809733333333,0.7765327666666666,10.4862775,-0.05796809733333333,0.7765327666666666,10.4862775
555,1715728727090,-0.25646222,0.2894854,10.641718,-0.25646222,0.2894854,10.641718
556,1715728727100,-0.43964318666666663,-0.17741079,10.19262,-0.43964318666666663,-0.17741079,10.19262
557,1715728727110,-0.6249103,-0.5913545,9.733314,-0.6249103,-0.5913545,9.733314
558,1715728727120,-0.7122619,-0.7382277,9.569263,-0.7122619,-0.7382277,9.569263
559,1715728727130,-0.742888225,-0.830373,9.4707595,-0.742888225,-0.830373,9.4707595
560,1715728727140,-0.85500723,-1.362339,8.951544,-0.85500723,-1.362339,8.951544
561,1715728727150,-0.8542083075,-1.414270575,8.92118325,-0.8542083075,-1.414270575,8.92118325
562,1715728727160,-0.72611034,-1.4422338,8.776974,-0.72611034,-1.4422338,8.776974
563,1715728727170,-0.46938178,-1.439038,8.6502075,-0.46938178,-1.439038,8.6502075
564,1715728727180,-0.46938178,-1.439038,8.6502075,-0.46938178,-1.439038,8.6502075
565,1715728727190,0.31332067,-1.5615433,7.990942,0.31332067,-1.5615433,7.990942
566,1715728727200,0.461605366,-1.58881402,7.711523600000001,0.461605366,-1.58881402,7.711523600000001
567,1715728727210,0.6339317225,-1.7569193250000001,6.6349614,0.6339317225,-1.7569193250000001,6.6349614
568,1715728727220,0.80960035,-1.8660755999999998,5.6404376,0.80960035,-1.8660755999999998,5.6404376
569,1715728727230,0.987499425,-1.8160082000000002,4.8352980500000005,0.987499425,-1.8160082000000002,4.8352980500000005
570,1715728727240,1.2952274,-1.2281158,2.3559637,1.2952274,-1.2281158,2.3559637
571,1715728727250,0.89006108,-0.43502704500000006,0.9337035875,0.89006108,-0.43502704500000006,0.9337035875
572,1715728727260,0.11744532,0.6685861,-0.83050615,0.11744532,0.6685861,-0.83050615
573,1715728727270,-0.0551273925,0.8579367250000001,-1.0892653375,-0.0551273925,0.8579367250000001,-1.0892653375
574,1715728727280,-0.382935664,1.1500054,-1.5565632,-0.382935664,1.1500054,-1.5565632
575,1715728727290,-1.7591498,2.1584904,-3.714441,-1.7591498,2.1584904,-3.714441
576,1715728727300,-1.4712622333333334,1.5997596666666667,-3.928914133333333,-1.4712622333333334,1.5997596666666667,-3.928914133333333
577,1715728727310,-1.3289164,1.3704617,-3.9573212,-1.3289164,1.3704617,-3.9573212
578,1715728727320,-0.80174404,0.84009355,-4.041477,-0.80174404,0.84009355,-4.041477
579,1715728727330,-0.80174404,0.84009355,-4.041477,-0.80174404,0.84009355,-4.041477
580,1715728727340,-0.15632743,0.40097189,-4.411489975,-0.15632743,0.40097189,-4.411489975
581,1715728727350,0.005526064999999997,0.35919357500000004,-4.6271725,0.005526064999999997,0.35919357500000004,-4.6271725
582,1715728727360,0.27134926200000004,0.68286062,-5.80374268,0.27134926200000004,0.68286062,-5.80374268
583,1715728727370,0.18016271,0.9104009,-6.1224694,0.18016271,0.9104009,-6.1224694
584,1715728727380,0.09243825,1.1029472999999999,-6.34654776,0.09243825,1.1029472999999999,-6.34654776
585,1715728727390,-0.133743848,1.6251661800000001,-6.9424826600000005,-0.133743848,1.6251661800000001,-6.9424826600000005
586,1715728727400,-0.19787272666666667,1.8425953666666668,-7.276549499999999,-0.19787272666666667,1.8425953666666668,-7.276549499999999
587,1715728727410,-0.2042643,1.9626151,-7.5335445,-0.2042643,1.9626151,-7.5335445
588,1715728727420,-0.13289164,1.9700719,-7.7423363,-0.13289164,1.9700719,-7.7423363
589,1715728727430,-0.13289164,1.9700719,-7.742336300000001,-0.13289164,1.9700719,-7.742336300000001
590,1715728727440,0.1367265872,1.85481044,-8.067535,0.1367265872,1.85481044,-8.067535
591,1715728727450,0.2920154,1.8049561,-8.19707,0.2920154,1.8049561,-8.19707
592,1715728727460,0.7286403,1.6739286,-8.499473,0.7286403,1.6739286,-8.499473
593,1715728727470,0.9853688500000001,1.6419708,-8.607064,0.9853688500000001,1.6419708,-8.607064
594,1715728727480,1.20643774,1.6087345199999998,-8.6243212,1.20643774,1.6087345199999998,-8.6243212
595,1715728727490,1.8735323999999998,1.4940323,-8.520778,1.8735323999999998,1.4940323,-8.520778
596,1715728727500,2.296708366666667,1.3278511,-8.220107133333334,2.296708366666667,1.3278511,-8.220107133333334
597,1715728727510,2.9055066000000003,1.0423604,-7.7157044,2.9055066000000003,1.0423604,-7.7157044
598,1715728727520,3.3646352,0.35446647,-6.905172,3.3646352,0.35446647,-6.905172
599,1715728727530,3.3646352,0.35446647,-6.905172,3.3646352,0.35446647,-6.905172
600,1715728727540,3.8641107,-1.4273201,-5.529251,3.8641107,-1.4273201,-5.529251
601,1715728727550,3.9101168,-2.254064525,-5.108571625,3.9101168,-2.254064525,-5.108571625
602,1715728727560,3.8630455,-3.157974,-4.6920867,3.8630455,-3.157974,-4.6920867
603,1715728727570,3.526422,-3.5786199999999995,-4.3747716,3.526422,-3.5786199999999995,-4.3747716
604,1715728727580,3.526422,-3.57862,-4.3747716,3.526422,-3.57862,-4.3747716
605,1715728727590,2.4507721,-3.58927265,-3.30977415,2.4507721,-3.58927265,-3.30977415
606,1715728727600,1.3751222,-3.5999253,-2.2447767,1.3751222,-3.5999253,-2.2447767
607,1715728727610,-0.1238701775,-2.54368315,0.5306011575,-0.1238701775,-2.54368315,0.5306011575
608,1715728727620,-0.5567334,-1.9757978,1.9555577,-0.5567334,-1.9757978,1.9555577
609,1715728727630,-0.64621555,-1.6195669750000001,2.700809525,-0.64621555,-1.6195669750000001,2.700809525
610,1715728727640,-0.94116044,0.4512723,6.826875,-0.94116044,0.4512723,6.826875
611,1715728727650,-0.938230955,0.6182190750000001,7.1623665,-0.938230955,0.6182190750000001,7.1623665
612,1715728727660,-0.9061399,2.0286615,10.152895,-0.9061399,2.0286615,10.152895
613,1715728727670,-0.9464868,2.4216106,11.143324,-0.9464868,2.4216106,11.143324
614,1715728727680,-1.0088047,2.6308683000000004,11.77009825,-1.0088047,2.6308683000000004,11.77009825
615,1715728727690,-1.0990325,2.89211088,12.529364600000001,-1.0990325,2.89211088,12.529364600000001
616,1715728727700,-1.2612721,3.1346049000000002,13.1418245,-1.2612721,3.1346049000000002,13.1418245
617,1715728727710,-1.6899076000000002,2.8230817,12.735493,-1.6899076000000002,2.8230817,12.735493
618,1715728727720,-1.8482324333333333,2.0484576999999997,11.860467666666667,-1.8482324333333333,2.0484576999999997,11.860467666666667
619,1715728727730,-2.0413115,0.8656599,10.587389,-2.0413115,0.8656599,10.587389
620,1715728727740,-1.8422402999999998,-0.7712509,9.074049,-1.8422402999999998,-0.7712509,9.074049
621,1715728727750,-1.3835555333333334,-1.3151124,8.744261,-1.3835555333333334,-1.3151124,8.744261
622,1715728727760,-0.466186,-2.4028354,8.084685,-0.466186,-2.4028354,8.084685
623,1715728727770,0.57715098,-2.3641751666666666,8.186196,0.57715098,-2.3641751666666666,8.186196
624,1715728727780,1.5583476,-2.0184083,8.331694,1.5583476,-2.0184083,8.331694
625,1715728727790,1.9757978,-1.1004174,8.281626,1.9757978,-1.1004174,8.281626
626,1715728727800,1.97068444,-0.79617804,8.221225200000001,1.97068444,-0.79617804,8.221225200000001
627,1715728727810,1.6371771,0.11584741999999999,7.590536,1.6371771,0.11584741999999999,7.590536
628,1715728727820,1.5349118,0.20319904,7.4168983,1.5349118,0.20319904,7.4168983
629,1715728727830,0.3687144,0.6632598,5.5297837,0.3687144,0.6632598,5.5297837
630,1715728727840,-0.27031064,0.80493987,4.399805,-0.27031064,0.80493987,4.399805
631,1715728727850,-0.4499407266666666,0.8063602133333333,4.017819266666667,-0.4499407266666666,0.8063602133333333,4.017819266666667
632,1715728727860,-1.1925627,0.46938178,1.6030886000000002,-1.1925627,0.46938178,1.6030886000000002
633,1715728727870,-1.1531479,0.2830938,1.0716553,-1.1531479,0.2830938,1.0716553
634,1715728727880,-0.64301974,-0.16737954,-0.14141375,-0.64301974,-0.16737954,-0.14141375
635,1715728727890,-0.25220117,-0.26964486,-0.79535246,-0.25220117,-0.26964486,-0.79535246
636,1715728727900,-0.08548740699999999,-0.1352219065,-1.3206273149999999,-0.08548740699999999,-0.1352219065,-1.3206273149999999
637,1715728727910,-0.011451584,-0.037550543,-1.622796,-0.011451584,-0.037550543,-1.622796
638,1715728727920,-0.11797795,0.22130850999999999,-2.0626168,-0.11797795,0.22130850999999999,-2.0626168
639,1715728727930,-0.5434176225,0.45659864,-2.767688075,-0.5434176225,0.45659864,-2.767688075
640,1715728727940,-0.6984135,0.45659864,-3.0073724,-0.6984135,0.45659864,-3.0073724
641,1715728727950,-0.6984135,0.45659864,-3.0073724,-0.6984135,0.45659864,-3.0073724
642,1715728727960,-1.0874566133333332,0.34949524,-3.8582962333333337,-1.0874566133333332,0.34949524,-3.8582962333333337
643,1715728727970,-1.1731748400000002,0.334652562,-4.1517852,-1.1731748400000002,0.334652562,-4.1517852
644,1715728727980,-1.1797795,0.6717819,-4.873182,-1.1797795,0.6717819,-4.873182
645,1715728727990,-1.0721879,0.9466199,-5.173586,-1.0721879,0.9466199,-5.173586
646,1715728728000,-0.9997943433333334,1.0907411666666667,-5.314156433333333,-0.9997943433333334,1.0907411666666667,-5.314156433333333
647,1715728728010,-0.5332976,1.8944383000000002,-6.0532274,-0.5332976,1.8944383000000002,-6.0532274
648,1715728728020,-0.47151232,1.9956383,-6.1416445,-0.47151232,1.9956383,-6.1416445
649,1715728728030,-0.054062128,2.3981748,-6.7252755,-0.054062128,2.3981748,-6.7252755
650,1715728728040,0.120641105,2.415219,-6.998914999999999,0.120641105,2.415219,-6.998914999999999
651,1715728728050,0.18079520875,2.3965769,-7.09289125,0.18079520875,2.3965769,-7.09289125
652,1715728728060,0.629704,2.180861,-7.6997256,0.629704,2.180861,-7.6997256
653,1715728728070,0.6800820833333333,2.1542294,-7.741981066666667,0.6800820833333333,2.1542294,-7.741981066666667
654,1715728728080,1.3659609,1.9076475599999998,-8.0992788,1.3659609,1.9076475599999998,-8.0992788
655,1715728728090,1.6616781,1.8539582,-8.125698,1.6616781,1.8539582,-8.125698
656,1715728728100,1.8762622,1.8001624,-8.068173999999999,1.8762622,1.8001624,-8.068173999999999
657,1715728728110,2.6840649,1.4460953,-7.5697637,2.6840649,1.4460953,-7.5697637
658,1715728728120,2.7969828,1.3438301,-7.438736,2.7969828,1.3438301,-7.438736
659,1715728728130,3.3752878,0.3949465,-6.4451113,3.3752878,0.3949465,-6.4451113
660,1715728728140,3.3752878,0.3949465,-6.445111299999999,3.3752878,0.3949465,-6.445111299999999
661,1715728728150,3.69899485,-0.66905216,-5.5249233,3.69899485,-0.66905216,-5.5249233
662,1715728728160,4.0099187,-1.9097514,-4.8753123,4.0099187,-1.9097514,-4.8753123
663,1715728728170,4.0983357,-2.2005684,-4.8145924,4.0983357,-2.2005684,-4.8145924
664,1715728728180,3.9617487000000002,-2.78842745,-4.9038078,3.9617487000000002,-2.78842745,-4.9038078
665,1715728728190,3.5999253,-2.887397,-4.912596,3.5999253,-2.887397,-4.912596
666,1715728728200,2.7124275333333334,-2.7777193333333337,-4.5522708,2.7124275333333334,-2.7777193333333337,-4.5522708
667,1715728728210,1.5743265,-2.5690165,-4.0148454,1.5743265,-2.5690165,-4.0148454
668,1715728728220,1.0151962,-2.3346584,-3.6217632,1.0151962,-2.3346584,-3.6217632
669,1715728728230,-0.31505173,-1.4092107,-2.1297283,-0.31505173,-1.4092107,-2.1297283
670,1715728728240,-1.0018804,-0.89908254,-0.6185187,-1.0018804,-0.89908254,-0.6185187
671,1715728728250,-1.1602052333333333,-0.8465295266666667,-0.13750779,-1.1602052333333333,-0.8465295266666667,-0.13750779
672,1715728728260,-2.0008314,-0.6052029,3.4678326,-2.0008314,-0.6052029,3.4678326
673,1715728728270,-2.0849872,-0.5444829,4.5552006,-2.0849872,-0.5444829,4.5552006
674,1715728728280,-2.051964,-0.16737954,7.615037,-2.051964,-0.16737954,7.615037
675,1715728728290,-1.9018950000000001,0.37577176,9.312668,-1.9018950000000001,0.37577176,9.312668
676,1715728728300,-1.901895,0.37577176,9.312668,-1.901895,0.37577176,9.312668
677,1715728728310,-1.7048213,1.4269207,11.500053,-1.7048213,1.4269207,11.500053
678,1715728728320,-1.6909728999999998,1.6196002,11.718432,-1.6909728999999998,1.6196002,11.718432
679,1715728728330,-1.7740635,1.6899076000000002,11.799393,-1.7740635,1.6899076000000002,11.799393
680,1715728728340,-1.8465014,1.3406343,11.508575,-1.8465014,1.3406343,11.508575
681,1715728728350,-1.8230656,1.1367029,11.335004000000001,-1.8230656,1.1367029,11.335004000000001
682,1715728728360,-1.63941412,0.15310502239999998,10.558281000000001,-1.63941412,0.15310502239999998,10.558281000000001
683,1715728728370,-1.4334787,-0.59797909925,10.001128,-1.4334787,-0.59797909925,10.001128
684,1715728728380,-1.1041458,-1.3974928,9.485107,-1.1041458,-1.3974928,9.485107
685,1715728728390,-0.7069356,-1.4273201,9.508543,-0.7069356,-1.4273201,9.508543
686,1715728728400,-0.7069356,-1.4273201,9.508543,-0.7069356,-1.4273201,9.508543
687,1715728728410,0.15366428,-0.23129535999999998,8.801341,0.15366428,-0.23129535999999998,8.801341
688,1715728728420,0.10350811866666666,0.7836789333333334,7.4840100666666665,0.10350811866666666,0.7836789333333334,7.4840100666666665
689,1715728728430,-0.011451584,1.4823142999999999,6.3295302,-0.011451584,1.4823142999999999,6.3295302
690,1715728728440,-0.035420016,1.5653383,6.1373166,-0.035420016,1.5653383,6.1373166
691,1715728728450,-0.124635846,1.699761275,5.3391012,-0.124635846,1.699761275,5.3391012
692,1715728728460,-0.20852535999999997,1.2106721,2.5466459,-0.20852535999999997,1.2106721,2.5466459
693,1715728728470,-0.141946383,1.004077535,2.3666829500000004,-0.141946383,1.004077535,2.3666829500000004
694,1715728728480,0.44860913599999996,-0.45326967200000007,1.40774594,0.44860913599999996,-0.45326967200000007,1.40774594
695,1715728728490,0.593485,-0.87671196,1.1121353,0.593485,-0.87671196,1.1121353
696,1715728728500,0.593485,-0.8767119600000001,1.1121353,0.593485,-0.8767119600000001,1.1121353
697,1715728728510,0.51678602,-1.0205225533333333,0.7538959733333334,0.51678602,-1.0205225533333333,0.7538959733333334
698,1715728728520,0.295637288,-0.9972998000000001,0.31286793199999996,0.295637288,-0.9972998000000001,0.31286793199999996
699,1715728728530,-0.44381547,-0.41132492,-0.4810997,-0.44381547,-0.41132492,-0.4810997
700,1715728728540,-0.5620597,-0.3005375,-0.6163882,-0.5620597,-0.3005375,-0.6163882
701,1715728728550,-0.5620597,-0.3005375,-0.6163882,-0.5620597,-0.3005375,-0.6163882
702,1715728728560,-1.26713108,0.19361165600000002,-2.0990753399999997,-1.26713108,0.19361165600000002,-2.0990753399999997
703,1715728728570,-1.2266511,0.094542146,-2.5077639,-1.2266511,0.094542146,-2.5077639
704,1715728728580,-0.7761777,-0.3356912,-3.3449278,-0.7761777,-0.3356912,-3.3449278
705,1715728728590,-0.35020542,-0.5551355,-3.8689044,-0.35020542,-0.5551355,-3.8689044
706,1715728728600,-0.35020542,-0.5551355,-3.8689043999999995,-0.35020542,-0.5551355,-3.8689043999999995
707,1715728728610,0.27603644,-0.56578815,-4.650542,0.27603644,-0.56578815,-4.650542
708,1715728728620,0.3953459666666667,-0.48766881,-4.831636666666666,0.3953459666666667,-0.48766881,-4.831636666666666
709,1715728728630,0.7201182,0.07430214,-5.601689,0.7201182,0.07430214,-5.601689
710,1715728728640,0.77231616,0.3416833,-5.9520273,0.77231616,0.3416833,-5.9520273
711,1715728728650,0.79575196,0.4731768,-6.13891465,0.79575196,0.4731768,-6.13891465
712,1715728728660,0.9310404,0.91572726,-6.9073024,0.9310404,0.91572726,-6.9073024
713,1715728728670,1.0301099333333334,1.0161283533333334,-7.171088366666666,1.0301099333333334,1.0161283533333334,-7.171088366666666
714,1715728728680,1.1685942,1.14143,-7.497325399999999,1.1685942,1.14143,-7.497325399999999
715,1715728728690,1.3122716,1.2479564,-7.717835,1.3122716,1.2479564,-7.717835
716,1715728728700,1.357722866666667,1.2756532333333335,-7.773539433333333,1.357722866666667,1.2756532333333335,-7.773539433333333
717,1715728728710,1.5679349,1.3843100999999998,-7.9946704,1.5679349,1.3843100999999998,-7.9946704
718,1715728728720,1.632383375,1.42981685,-8.03195445,1.632383375,1.42981685,-8.03195445
719,1715728728730,1.7511602999999998,1.5237264999999998,-8.087348,1.7511602999999998,1.5237264999999998,-8.087348
720,1715728728740,1.7883114,1.5727286,-8.091609,1.7883114,1.5727286,-8.091609
721,1715728728750,1.7883114000000002,1.5727286000000003,-8.091609,1.7883114000000002,1.5727286000000003,-8.091609
722,1715728728760,1.999233625,1.700560225,-8.0058555,1.999233625,1.700560225,-8.0058555
723,1715728728770,2.2211634666666664,1.7683820666666668,-7.901992333333333,2.2211634666666664,1.7683820666666668,-7.901992333333333
724,1715728728780,2.5604944,1.780455,-7.6198306,2.5604944,1.780455,-7.6198306
725,1715728728790,2.9065719,1.6302528000000003,-7.105441600000001,2.9065719,1.6302528000000003,-7.105441600000001
726,1715728728800,2.9065719,1.6302528,-7.1054416,2.9065719,1.6302528,-7.1054416
727,1715728728810,3.1865231,1.028618576,-6.05895354,3.1865231,1.028618576,-6.05895354
728,1715728728820,3.2329685600000007,0.678386508,-5.5343110200000005,3.2329685600000007,0.678386508,-5.5343110200000005
729,1715728728830,3.2144330000000005,-0.28668907,-4.195807,3.2144330000000005,-0.28668907,-4.195807
730,1715728728840,3.186736,-0.5828324,-3.8039234,3.186736,-0.5828324,-3.8039234
731,1715728728850,3.1694787599999996,-0.71529792,-3.6194729600000004,3.1694787599999996,-0.71529792,-3.6194729600000004
732,1715728728860,2.887397,-1.4411685,-2.4780695,2.887397,-1.4411685,-2.4780695
733,1715728728870,2.7336262,-1.45863882,-2.3553511800000004,2.7336262,-1.45863882,-2.3553511800000004
734,1715728728880,1.4401033,-1.4273201,-1.4960296,1.4401033,-1.4273201,-1.4960296
735,1715728728890,1.23227042,-1.4068670600000002,-1.36148688,1.23227042,-1.4068670600000002,-1.36148688
736,1715728728900,1.1803122,-1.4017538,-1.3278512,1.1803122,-1.4017538,-1.3278512
737,1715728728910,-1.2786626599999997,-1.0577801399999998,1.4331258359999999,-1.2786626599999997,-1.0577801399999998,1.4331258359999999
738,1715728728920,-1.5960047,-0.9653419,2.15984866,-1.5960047,-0.9653419,2.15984866
739,1715728728930,-1.9370488,-0.45819652,4.8875628,-1.9370488,-0.45819652,4.8875628
740,1715728728940,-1.739975,0.023169484,6.4967766,-1.739975,0.023169484,6.4967766
741,1715728728950,-1.739975,0.023169484,6.4967766,-1.739975,0.023169484,6.4967766
742,1715728728960,-1.3515976666666667,0.611816428,8.410167533333334,-1.3515976666666667,0.611816428,8.410167533333334
743,1715728728970,-1.076715225,1.0162948,9.799793000000001,-1.076715225,1.0162948,9.799793000000001
744,1715728728980,-0.8858999,1.3811144000000002,11.204043,-0.8858999,1.3811144000000002,11.204043
745,1715728728990,-0.89335674,1.4450301,11.417096,-0.89335674,1.4450301,11.417096
746,1715728729000,-0.89335674,1.4450301,11.417096,-0.89335674,1.4450301,11.417096
747,1715728729010,-1.1957585,1.2607396,11.236001,-1.1957585,1.2607396,11.236001
748,1715728729020,-1.2716052599999998,1.128700136,11.042176600000001,-1.2716052599999998,1.128700136,11.042176600000001
749,1715728729030,-1.4981601,0.55247235,10.213614,-1.4981601,0.55247235,10.213614
750,1715728729040,-1.5247917,0.38109806,10.063413,-1.5247917,0.38109806,10.063413
751,1715728729050,-1.532071,0.2816956483333333,9.971644833333334,-1.532071,0.2816956483333333,9.971644833333334
752,1715728729060,-1.5322486,-0.62118185,9.319059,-1.5322486,-0.62118185,9.319059
753,1715728729070,-1.3368837000000002,-0.8870317133333333,9.209337333333332,-1.3368837000000002,-0.8870317133333333,9.209337333333332
754,1715728729080,-0.7655251,-1.4241244,8.852474,-0.7655251,-1.4241244,8.852474
755,1715728729090,-0.4214068857142857,-1.6405250285714286,8.569532,-0.4214068857142857,-1.6405250285714286,8.569532
756,1715728729100,-0.36405385000000007,-1.6765918,8.522375,-0.36405385000000007,-1.6765918,8.522375
757,1715728729110,0.8058187499999999,-2.0369705199999997,7.23670884,0.8058187499999999,-2.0369705199999997,7.23670884
758,1715728729120,1.3181972499999999,-1.952128925,6.35349885,1.3181972499999999,-1.952128925,6.35349885
759,1715728729130,1.5018886,-0.221708,3.3294816,1.5018886,-0.221708,3.3294816
760,1715728729140,0.9621661,0.36531884849999996,2.782568575,0.9621661,0.36531884849999996,2.782568575
761,1715728729150,-0.2926812,1.5876423,1.6318507,-0.2926812,1.5876423,1.6318507
762,1715728729160,-0.6057688125,1.7322518249999999,1.3705948000000001,-0.6057688125,1.7322518249999999,1.3705948000000001
763,1715728729170,-0.8680234125,1.742371825,1.0774475700000001,-0.8680234125,1.742371825,1.0774475700000001
764,1715728729180,-1.3704617,0.9082703999999999,-0.3756386,-1.3704617,0.9082703999999999,-0.3756386
765,1715728729190,-1.33040778,0.7864042400000001,-0.5119923359999999,-1.33040778,0.7864042400000001,-0.5119923359999999
766,1715728729200,-0.75487244,0.01890843,-1.7463666,-0.75487244,0.01890843,-1.7463666
767,1715728729210,-0.5556682,-0.087617934,-2.2074926,-0.5556682,-0.087617934,-2.2074926
768,1715728729220,-0.5208695666666666,-0.097516008,-2.3342146,-0.5208695666666666,-0.097516008,-2.3342146
769,1715728729230,-0.45659864,-0.11518163,-3.1340055,-0.45659864,-0.11518163,-3.1340055
770,1715728729240,-0.47364286,-0.10985532,-3.2021825,-0.47364286,-0.10985532,-3.2021825
771,1715728729250,-0.6472808,-0.060986344,-3.6473296,-0.6472808,-0.060986344,-3.6473296
772,1715728729260,-0.74635035,-0.031158960999999995,-3.9296242999999995,-0.74635035,-0.031158960999999995,-3.9296242999999995
773,1715728729270,-0.754020252,-0.027324011999999998,-3.97455184,-0.754020252,-0.027324011999999998,-3.97455184
774,1715728729280,-0.7761777,0.03914844,-4.497277,-0.7761777,0.03914844,-4.497277
775,1715728729290,-0.74635035,0.09986847,-4.6867604,-0.74635035,0.09986847,-4.6867604
776,1715728729300,-0.6217145,0.44488072,-5.2448254,-0.6217145,0.44488072,-5.2448254
777,1715728729310,-0.5290366,0.7431545,-5.601689,-0.5290366,0.7431545,-5.601689
778,1715728729320,-0.506666055,0.7926892750000001,-5.674359900000001,-0.506666055,0.7926892750000001,-5.674359900000001
779,1715728729330,-0.27989802,1.2287816,-6.451503,-0.27989802,1.2287816,-6.451503
780,1715728729340,-0.231321996,1.30803728,-6.631319240000001,-0.231321996,1.30803728,-6.631319240000001
781,1715728729350,-0.1616537564,1.4066274,-6.9340139800000005,-0.1616537564,1.4066274,-6.9340139800000005
782,1715728729360,0.024767379999999995,1.6142739,-7.6635065,0.024767379999999995,1.6142739,-7.6635065
783,1715728729370,0.0631168725,1.6339812999999999,-7.74659705,0.0631168725,1.6339812999999999,-7.74659705
784,1715728729380,0.2185122,1.695234,-8.002128,0.2185122,1.695234,-8.002128
785,1715728729390,0.26112275,1.7174269166666667,-8.040299666666668,0.26112275,1.7174269166666667,-8.040299666666668
786,1715728729400,0.33249541,1.7468992,-8.03568335,0.33249541,1.7468992,-8.03568335
787,1715728729410,0.6787061,1.8646108,-7.8934703,0.6787061,1.8646108,-7.8934703
788,1715728729420,1.026248356,1.9575018400000002,-7.69160302,1.026248356,1.9575018400000002,-7.69160302
789,1715728729430,1.3346422,2.0275962,-7.5260878,1.3346422,2.0275962,-7.5260878
790,1715728729440,1.5242591,2.0158782,-7.424887700000001,1.5242591,2.0158782,-7.424887700000001
791,1715728729450,2.1110861,1.8294571999999998,-6.9552393,2.1110861,1.8294571999999998,-6.9552393
792,1715728729460,2.4347932,1.4705964,-6.33965,2.4347932,1.4705964,-6.33965
793,1715728729470,2.4347932,1.4705964,-6.33965,2.4347932,1.4705964,-6.33965
794,1715728729480,2.8161576,0.08175898,-4.4908853,2.8161576,0.08175898,-4.4908853
795,1715728729490,2.8655925,-0.20656128500000004,-4.1338553749999996,2.8655925,-0.20656128500000004,-4.1338553749999996
796,1715728729500,3.0088372,-1.2632695,-2.754905,3.0088372,-1.2632695,-2.754905
797,1715728729510,3.0099025000000004,-1.3772527000000003,-2.57381,3.0099025000000004,-1.3772527000000003,-2.57381
798,1715728729520,2.9468189,-1.4637721000000001,-2.346442825,2.9468189,-1.4637721000000001,-2.346442825
799,1715728729530,1.9736673,-1.7936376,-0.89641935,1.9736673,-1.7936376,-0.89641935
800,1715728729540,1.7532908,-1.7851156,-0.700544,1.7532908,-1.7851156,-0.700544
801,1715728729550,0.23875222,-1.6425034,0.80320877,0.23875222,-1.6425034,0.80320877
802,1715728729560,-0.83370197,-1.3634043,2.3964436,-0.83370197,-1.3634043,2.3964436
803,1715728729570,-0.83370197,-1.3634043,2.3964436,-0.83370197,-1.3634043,2.3964436
804,1715728729580,-1.2010847675,-1.0026794125,3.4790845999999997,-1.2010847675,-1.0026794125,3.4790845999999997
805,1715728729590,-1.3391696,-0.7830131766666666,4.045516333333333,-1.3391696,-0.7830131766666666,4.045516333333333
806,1715728729600,-1.469398,0.55886394,7.0580373,-1.469398,0.55886394,7.0580373
807,1715728729610,-1.3016190399999998,0.8273103880000001,8.03520346,-1.3016190399999998,0.8273103880000001,8.03520346
808,1715728729620,-1.1856385,0.94122702,8.573441500000001,-1.1856385,0.94122702,8.573441500000001
809,1715728729630,-0.88909566,1.0338384,9.586308,-0.88909566,1.0338384,9.586308
810,1715728729640,-0.832104065,1.01492994,9.7692335,-0.832104065,1.01492994,9.7692335
811,1715728729650,-0.7335672,0.97311836,10.107088,-0.7335672,0.97311836,10.107088
812,1715728729660,-0.73676294,0.85713774,10.061282,-0.73676294,0.85713774,10.061282
813,1715728729670,-0.739426105,0.76632402,9.9915405,-0.739426105,0.76632402,9.9915405
814,1715728729680,-0.73463243,0.025300011,9.43504,-0.73463243,0.025300011,9.43504
815,1715728729690,-0.7175882149999999,-0.08808398950000002,9.356277,-0.7175882149999999,-0.08808398950000002,9.356277
816,1715728729700,-0.40653124,-0.97471625,8.797214,-0.40653124,-0.97471625,8.797214
817,1715728729710,-0.3448791,-1.05035,8.739689,-0.3448791,-1.05035,8.739689
818,1715728729720,-0.26951169825,-1.084405125,8.65287,-0.26951169825,-1.084405125,8.65287
819,1715728729730,0.17057534,-1.1622026,7.823695699999999,0.17057534,-1.1622026,7.823695699999999
820,1715728729740,0.31119013,-1.2675306,7.5532517,0.31119013,-1.2675306,7.5532517
821,1715728729750,1.2749875,-1.8895113,6.573476,1.2749875,-1.8895113,6.573476
822,1715728729760,2.215482,-2.1451747,5.6308503,2.215482,-2.1451747,5.6308503
823,1715728729770,2.215482,-2.1451747,5.6308503,2.215482,-2.1451747,5.6308503
824,1715728729780,3.24109128,-1.8094036,3.6417369,3.24109128,-1.8094036,3.6417369
825,1715728729790,3.322290925,-1.52901955,2.91412855,3.322290925,-1.52901955,2.91412855
826,1715728729800,2.4731426,-0.54341763,1.264468,2.4731426,-0.54341763,1.264468
827,1715728729810,1.439038,0.059388448,0.35699648,1.439038,0.059388448,0.35699648
828,1715728729820,0.9080573380000001,0.2996320372,-0.02961432399999999,0.9080573380000001,0.2996320372,-0.02961432399999999
829,1715728729830,-0.81026614,0.9093357000000001,-1.3278512,-0.81026614,0.9093357000000001,-1.3278512
830,1715728729840,-1.0949578466666667,0.9909171666666667,-1.5926579333333333,-1.0949578466666667,0.9909171666666667,-1.5926579333333333
831,1715728729850,-2.0700736,1.1787143,-2.7527745,-2.0700736,1.1787143,-2.7527745
832,1715728729860,-2.2234716,1.1329079,-3.1872687,-2.2234716,1.1329079,-3.1872687
833,1715728729870,-2.1964849333333336,1.0729424333333333,-3.2554456000000003,-2.1964849333333336,1.0729424333333333,-3.2554456000000003
834,1715728729880,-1.8209349999999997,0.5918871,-3.5409361999999995,-1.8209349999999997,0.5918871,-3.5409361999999995
835,1715728729890,-1.505949875,0.34750897,-3.660711875,-1.505949875,0.34750897,-3.660711875
836,1715728729900,-0.8266002133333332,-0.14820480666666666,-4.024033566666667,-0.8266002133333332,-0.14820480666666666,-4.024033566666667
837,1715728729910,-0.69734824,-0.22703432,-4.2043295,-0.69734824,-0.22703432,-4.2043295
838,1715728729920,-0.65793348,-0.230496425,-4.31561625,-0.65793348,-0.230496425,-4.31561625
839,1715728729930,-0.4981438999999999,-0.12583427,-5.1277795,-0.4981438999999999,-0.12583427,-5.1277795
840,1715728729940,-0.514921775,-0.04763726,-5.313035875,-0.514921775,-0.04763726,-5.313035875
841,1715728729950,-0.6877608299999999,0.43635863,-6.136318,-0.6877608299999999,0.43635863,-6.136318
842,1715728729960,-0.8209188,0.8006788,-6.5835958,-0.8209188,0.8006788,-6.5835958
843,1715728729970,-0.8383891199999999,0.86307662,-6.659842040000001,-0.8383891199999999,0.86307662,-6.659842040000001
844,1715728729980,-0.9241162,1.3214595,-7.285471,-0.9241162,1.3214595,-7.285471
845,1715728729990,-0.848562376,1.44007662,-7.488217400000001,-0.848562376,1.44007662,-7.488217400000001
846,1715728730000,-0.7548724400000001,1.5631411999999998,-7.705051999999999,-0.7548724400000001,1.5631411999999998,-7.705051999999999
847,1715728730010,-0.5950829,1.6323833,-7.842471,-0.5950829,1.6323833,-7.842471
848,1715728730020,-0.5950829,1.6323833,-7.842471000000001,-0.5950829,1.6323833,-7.842471000000001
849,1715728730030,-0.26651565,1.68191815,-7.8886765,-0.26651565,1.68191815,-7.8886765
850,1715728730040,-0.082824245,1.6968318,-7.86584,-0.082824245,1.6968318,-7.86584
851,1715728730050,0.4209123,1.7634107999999997,-7.6262226,0.4209123,1.7634107999999997,-7.6262226
852,1715728730060,0.7765772,1.8177392,-7.312102999999999,0.7765772,1.8177392,-7.312102999999999
853,1715728730070,0.7765771999999999,1.8177392,-7.312103,0.7765771999999999,1.8177392,-7.312103
854,1715728730080,1.4405027333333333,1.7396199666666667,-6.336144,1.4405027333333333,1.7396199666666667,-6.336144
855,1715728730090,1.79715302,1.37357761,-5.44938278,1.79715302,1.37357761,-5.44938278
856,1715728730100,2.1238694,0.60786605,-4.167045,2.1238694,0.60786605,-4.167045
857,1715728730110,2.2101557,-0.12050794999999999,-3.2266836,2.2101557,-0.12050794999999999,-3.2266836
858,1715728730120,2.2101557,-0.12050795,-3.2266836,2.2101557,-0.12050795,-3.2266836
859,1715728730130,2.2900505,-1.1249185,-1.9795262,2.2900505,-1.1249185,-1.9795262
860,1715728730140,2.2080252000000002,-1.2614386249999998,-1.73811085,2.2080252000000002,-1.2614386249999998,-1.73811085
861,1715728730150,1.9512967,-1.4454296,-1.3140028,1.9512967,-1.4454296,-1.3140028
862,1715728730160,1.3548822,-1.5285202,-0.63769346,1.3548822,-1.5285202,-0.63769346
863,1715728730170,0.88781736,-1.5636739,-0.019148114000000004,0.88781736,-1.5636739,-0.019148114000000004
864,1715728730180,-0.21172114999999997,-1.6339812000000002,1.729855,-0.21172114999999997,-1.6339812000000002,1.729855
865,1715728730190,-0.5830986874999999,-1.55621695,2.796150575,-0.5830986874999999,-1.55621695,2.796150575
866,1715728730200,-1.05216088,-1.2500868720000002,4.75957116,-1.05216088,-1.2500868720000002,4.75957116
867,1715728730210,-1.0956236,-0.85647196,5.934450600000001,-1.0956236,-0.85647196,5.934450600000001
868,1715728730220,-1.05833939,-0.6374271233333334,6.369300066666667,-1.05833939,-0.6374271233333334,6.369300066666667
869,1715728730230,-0.82837564,0.4544681,8.354064,-0.82837564,0.4544681,8.354064
870,1715728730240,-0.7609089466666666,0.6895363,8.794994,-0.7609089466666666,0.6895363,8.794994
871,1715728730250,-0.62384504,1.0839057,9.666203,-0.62384504,1.0839057,9.666203
872,1715728730260,-0.59082186,0.9604683499999999,9.671529,-0.59082186,0.9604683499999999,9.671529
873,1715728730270,-0.587359755,0.902411475,9.622793,-0.587359755,0.902411475,9.622793
874,1715728730280,-0.5247755,0.32783487,9.27858,-0.5247755,0.32783487,9.27858
875,1715728730290,-0.5106607575,0.243146414375,9.2756505,-0.5106607575,0.243146414375,9.2756505
876,1715728730300,-0.30546436,-0.48908915999999997,9.238099,-0.30546436,-0.48908915999999997,9.238099
877,1715728730310,-0.20149461600000002,-0.54363068,9.1835582,-0.20149461600000002,-0.54363068,9.1835582
878,1715728730320,-0.1429051136,-0.5353216279999999,9.131786400000001,-0.1429051136,-0.5353216279999999,9.131786400000001
879,1715728730330,0.15153375,-0.2483396,8.632097,0.15153375,-0.2483396,8.632097
880,1715728730340,0.26647571000000003,-0.15374417599999998,8.3423458,0.26647571000000003,-0.15374417599999998,8.3423458
881,1715728730350,0.61905134,-0.07270424,7.3029150000000005,0.61905134,-0.07270424,7.3029150000000005
882,1715728730360,0.6977477,-0.079095826,7.039928000000001,0.6977477,-0.079095826,7.039928000000001
883,1715728730370,0.6977477,-0.079095826,7.039928,0.6977477,-0.079095826,7.039928
884,1715728730380,1.4454296,-0.21957746,4.003527,1.4454296,-0.21957746,4.003527
885,1715728730390,1.4038842800000002,-0.248339576,3.59909976,1.4038842800000002,-0.248339576,3.59909976
886,1715728730400,0.937432,-0.15566164,2.4188142,0.937432,-0.15566164,2.4188142
887,1715728730410,0.46352285,0.09773793999999998,1.8138777,0.46352285,0.09773793999999998,1.8138777
888,1715728730420,0.46352285,0.09773794,1.8138777,0.46352285,0.09773794,1.8138777
889,1715728730430,-0.061518975,0.44914176999999994,0.6850977,-0.061518975,0.44914176999999994,0.6850977
890,1715728730440,-0.0585362362,0.435133558,0.5218993000000001,-0.0585362362,0.435133558,0.5218993000000001
891,1715728730450,0.08016109,0.22130850999999999,-0.37670385999999995,0.08016109,0.22130850999999999,-0.37670385999999995
892,1715728730460,0.10359688999999998,0.16271903,-0.5109271,0.10359688999999998,0.16271903,-0.5109271
893,1715728730470,0.088150565,-0.060919765000000015,-0.9667268,0.088150565,-0.060919765000000015,-0.9667268
894,1715728730480,-0.13821796,-0.5146555,-1.9285266,-0.13821796,-0.5146555,-1.9285266
895,1715728730490,-0.3558424533333333,-0.6261087166666667,-2.3204105333333334,-0.3558424533333333,-0.6261087166666667,-2.3204105333333334
896,1715728730500,-0.66432506,-0.7510109000000001,-2.8603660000000004,-0.66432506,-0.7510109000000001,-2.8603660000000004
897,1715728730510,-0.73037136,-0.739293,-2.9626312,-0.73037136,-0.739293,-2.9626312
898,1715728730520,-1.13312086,-0.372336258,-3.6116431400000004,-1.13312086,-0.372336258,-3.6116431400000004
899,1715728730530,-1.2277163,-0.19933745,-3.8177717,-1.2277163,-0.19933745,-3.8177717
900,1715728730540,-1.27437488,-0.0818122442,-3.9940995200000002,-1.27437488,-0.0818122442,-3.9940995200000002
901,1715728730550,-1.3321122,0.21172115,-4.7783732,-1.3321122,0.21172115,-4.7783732
902,1715728730560,-1.3001543,0.24154851999999996,-5.0382977,-1.3001543,0.24154851999999996,-5.0382977
903,1715728730570,-1.1712574,0.31079066,-5.731518,-1.1712574,0.31079066,-5.731518
904,1715728730580,-1.0626005,0.38748965,-6.2757344,-1.0626005,0.38748965,-6.2757344
905,1715728730590,-1.0450236400000001,0.4122237375,-6.3694776,-1.0450236400000001,0.4122237375,-6.3694776
906,1715728730600,-0.9008135999999999,0.6781735000000001,-7.159769999999999,-0.9008135999999999,0.6781735000000001,-7.159769999999999
907,1715728730610,-0.8800409475,0.73090402,-7.283607,-0.8800409475,0.73090402,-7.283607
908,1715728730620,-0.853941976,0.786404248,-7.4156198,-0.853941976,0.786404248,-7.4156198
909,1715728730630,-0.6962829,1.0519478,-7.9030575999999995,-0.6962829,1.0519478,-7.9030575999999995
910,1715728730640,-0.6962829,1.0519478,-7.9030576,-0.6962829,1.0519478,-7.9030576
911,1715728730650,-0.49601337,1.2277163,-8.164047,-0.49601337,1.2277163,-8.164047
912,1715728730660,-0.474441795,1.23970055,-8.1776295,-0.474441795,1.23970055,-8.1776295
913,1715728730670,-0.46725127,1.2436953,-8.182157,-0.46725127,1.2436953,-8.182157
914,1715728730680,0.026897907,1.3992238,-8.108654,0.026897907,1.3992238,-8.108654
915,1715728730690,0.026897907,1.3992238,-8.108654,0.026897907,1.3992238,-8.108654
916,1715728730700,0.57431024,1.4642049,-7.627288,0.57431024,1.4642049,-7.627288
917,1715728730710,0.93180608,1.3427648,-7.1783457,0.93180608,1.3427648,-7.1783457
918,1715728730720,1.4454296,1.0104026,-6.4387197,1.4454296,1.0104026,-6.4387197
919,1715728730730,1.7851156,0.43742388,-5.68691,1.7851156,0.43742388,-5.68691
920,1715728730740,1.83837875,0.307495005,-5.52928425,1.83837875,0.307495005,-5.52928425
921,1715728730750,2.2825937,-0.993891,-3.992475,2.2825937,-0.993891,-3.992475
922,1715728730760,2.32339322,-1.1268358800000002,-3.83652028,2.32339322,-1.1268358800000002,-3.83652028
923,1715728730770,2.3335931,-1.1600721,-3.7975316000000006,2.3335931,-1.1600721,-3.7975316000000006
924,1715728730780,2.6829996,-2.1568925,-1.9423751000000002,2.6829996,-2.1568925,-1.9423751000000002
925,1715728730790,2.6829996,-2.1568925,-1.9423751000000002,2.6829996,-2.1568925,-1.9423751000000002
926,1715728730800,1.8213345,-2.4923174,-0.20852536,1.8213345,-2.4923174,-0.20852536
927,1715728730810,1.6425034,-2.5285363,0.076965295,1.6425034,-2.5285363,0.076965295
928,1715728730820,0.22809958,-2.4433153,2.3868563,0.22809958,-2.4433153,2.3868563
929,1715728730830,-0.42996705,-1.9747325,3.8417401,-0.42996705,-1.9747325,3.8417401
930,1715728730840,-0.4893554875,-1.88714785,4.0193063250000005,-0.4893554875,-1.88714785,4.0193063250000005
931,1715728730850,-0.9333307000000002,-0.795565516,5.7450735,-0.9333307000000002,-0.795565516,5.7450735
932,1715728730860,-1.1552784,0.00079894776,6.8481803,-1.1552784,0.00079894776,6.8481803
933,1715728730870,-1.319329,1.3044153,8.52131,-1.319329,1.3044153,8.52131
934,1715728730880,-1.3779185,1.8944383000000002,9.415865,-1.3779185,1.8944383000000002,9.415865
935,1715728730890,-1.39762585,2.0429759,9.668266,-1.39762585,2.0429759,9.668266
936,1715728730900,-1.5109433,2.4610252,10.5895195,-1.5109433,2.4610252,10.5895195
937,1715728730910,-1.5301180250000002,2.4658190500000003,10.639853125,-1.5301180250000002,2.4658190500000003,10.639853125
938,1715728730920,-1.6867118,2.2447767,10.734395,-1.6867118,2.2447767,10.734395
939,1715728730930,-1.6909729,1.7378445,10.319076,-1.6909729,1.7378445,10.319076
940,1715728730940,-1.6909729,1.7378445000000002,10.319076,-1.6909729,1.7378445000000002,10.319076
941,1715728730950,-1.3608743,0.16378428,9.095354,-1.3608743,0.16378428,9.095354
942,1715728730960,-1.2418310750000001,-0.21162128249999998,8.874045500000001,-1.2418310750000001,-0.21162128249999998,8.874045500000001
943,1715728730970,-0.37577176,-1.9470357,8.104925,-0.37577176,-1.9470357,8.104925
944,1715728730980,0.55939656,-2.8160244999999997,7.9217,0.55939656,-2.8160244999999997,7.9217
945,1715728730990,0.76146377,-2.8887287,7.889475750000001,0.76146377,-2.8887287,7.889475750000001
946,1715728731000,2.3911173,-2.7309365,7.2379336,2.3911173,-2.7309365,7.2379336
947,1715728731010,2.5082964333333333,-2.533507633333333,6.9930118666666665,2.5082964333333333,-2.533507633333333,6.9930118666666665
948,1715728731020,2.5636902,-1.240899,5.4445624,2.5636902,-1.240899,5.4445624
949,1715728731030,2.4550333,-0.5807018,4.665988,2.4550333,-0.5807018,4.665988
950,1715728731040,2.4550333,-0.5807018,4.665988,2.4550333,-0.5807018,4.665988
951,1715728731050,1.62585872,0.577639228,2.5164456,1.62585872,0.577639228,2.5164456
952,1715728731060,1.3203277500000001,0.749013515,1.9779948,1.3203277500000001,0.749013515,1.9779948
953,1715728731070,0.2749712,0.837963,0.5711145,0.2749712,0.837963,0.5711145
954,1715728731080,-0.3097254,0.49494812,-0.34274858,-0.3097254,0.49494812,-0.34274858
955,1715728731090,-0.330464755,0.3243062025,-0.64145516,-0.330464755,0.3243062025,-0.64145516
956,1715728731100,-0.39268281999999993,-0.18761955,-1.5375749,-0.39268281999999993,-0.18761955,-1.5375749
957,1715728731110,-0.36292201,-0.2302301,-1.669135,-0.36292201,-0.2302301,-1.669135
958,1715728731120,-0.20490345800000004,-0.293719806,-2.4124226,-0.20490345800000004,-0.293719806,-2.4124226
959,1715728731130,-0.20746009,-0.27923223,-2.690989,-0.20746009,-0.27923223,-2.690989
960,1715728731140,-0.20746009,-0.27923223,-2.690989,-0.20746009,-0.27923223,-2.690989
961,1715728731150,-0.42144492000000006,-0.3239733,-3.3310795,-0.42144492000000006,-0.3239733,-3.3310795
962,1715728731160,-0.46778388,-0.36871438,-3.45138765,-0.46778388,-0.36871438,-3.45138765
963,1715728731170,-0.61425763,-0.58815867,-3.996736,-0.61425763,-0.58815867,-3.996736
964,1715728731180,-0.65047663,-0.6711161,-4.5217776,-0.65047663,-0.6711161,-4.5217776
965,1715728731190,-0.6502102975,-0.6511757,-4.616819125,-0.6502102975,-0.6511757,-4.616819125
966,1715728731200,-0.6494113,-0.5913545000000001,-4.9019436999999995,-0.6494113,-0.5913545000000001,-4.9019436999999995
967,1715728731210,-0.6494113,-0.5913545,-4.9019437,-0.6494113,-0.5913545,-4.9019437
968,1715728731220,-0.6952176999999999,0.49288417500000004,-6.09017875,-0.6952176999999999,0.49288417500000004,-6.09017875
969,1715728731230,-0.6856303,1.1595395,-6.621944999999999,-0.6856303,1.1595395,-6.621944999999999
970,1715728731240,-0.64408504,1.35576104,-6.7733457,-0.64408504,1.35576104,-6.7733457
971,1715728731250,-0.52520164,1.63049252,-7.039608459999999,-0.52520164,1.63049252,-7.039608459999999
972,1715728731260,-0.45638558199999996,1.6933164600000001,-7.137825680000001,-0.45638558199999996,1.6933164600000001,-7.137825680000001
973,1715728731270,-0.16484955,1.7687371,-7.378016,-0.16484955,1.7687371,-7.378016
974,1715728731280,0.032224227,1.7580845,-7.447258000000001,0.032224227,1.7580845,-7.447258000000001
975,1715728731290,0.12080089620000001,1.7482841,-7.447258,0.12080089620000001,1.7482841,-7.447258
976,1715728731300,0.52743864,1.7474319,-7.3833423,0.52743864,1.7474319,-7.3833423
977,1715728731310,0.645682935,1.765807725,-7.343494575,0.645682935,1.765807725,-7.343494575
978,1715728731320,1.1930953,1.8912424,-7.036199600000001,1.1930953,1.8912424,-7.036199600000001
979,1715728731330,1.5572823,1.9050908,-6.710362000000001,1.5572823,1.9050908,-6.710362000000001
980,1715728731340,1.5572823,1.9050908,-6.710362,1.5572823,1.9050908,-6.710362
981,1715728731350,1.8526265666666666,1.7240404,-6.154072466666666,1.8526265666666666,1.7240404,-6.154072466666666
982,1715728731360,1.8895113,1.7889771,-6.221539,1.8895113,1.7889771,-6.221539
983,1715728731370,2.00349465,1.091429165,-4.95680485,2.00349465,1.091429165,-4.95680485
984,1715728731380,2.0953204,0.276276126,-3.49702086,2.0953204,0.276276126,-3.49702086
985,1715728731390,2.089781,0.24687485,-3.4482584,2.089781,0.24687485,-3.4482584
986,1715728731400,1.8426398,-0.8500804,-1.1627352,1.8426398,-0.8500804,-1.1627352
987,1715728731410,1.80343804,-0.8884298399999999,-0.9105873600000001,1.80343804,-0.8884298399999999,-0.9105873600000001
988,1715728731420,1.455017,-0.7733814,-0.18189377,1.455017,-0.7733814,-0.18189377
989,1715728731430,1.3431643,-0.73609716,-0.01571264,1.3431643,-0.73609716,-0.01571264
990,1715728731440,1.06173496,-0.71346032,0.12886362,1.06173496,-0.71346032,0.12886362
991,1715728731450,-0.79748297,-0.73609716,1.2717916,-0.79748297,-0.73609716,1.2717916
992,1715728731460,-1.161669985,-0.80161088,1.6211315000000002,-1.161669985,-0.80161088,1.6211315000000002
993,1715728731470,-2.3811305,-1.0780468,3.3976583,-2.3811305,-1.0780468,3.3976583
994,1715728731480,-2.5908544,-1.1600721,4.537091,-2.5908544,-1.1600721,4.537091
995,1715728731490,-2.51889584,-1.1438801,4.9797082,-2.51889584,-1.1438801,4.9797082
996,1715728731500,-1.8177392,-0.8554067,6.9376626,-1.8177392,-0.8554067,6.9376626
997,1715728731510,-1.6464448400000002,-0.76720286,7.21625544,-1.6464448400000002,-0.76720286,7.21625544
998,1715728731520,-0.84009355,-0.3452786,8.405196,-0.84009355,-0.3452786,8.405196
999,1715728731530,-0.39013061666666665,-0.12257190333333333,8.967011833333334,-0.39013061666666665,-0.12257190333333333,8.967011833333334
1000,1715728731540,-0.30013803,-0.078030564,9.079375,-0.30013803,-0.078030564,9.079375
1001,1715728731550,-0.062273536666666664,0.021749132,9.254744333333333,-0.062273536666666664,0.021749132,9.254744333333333
1002,1715728731560,0.23236062999999998,0.09099126933333333,9.339566,0.23236062999999998,0.09099126933333333,9.339566
1003,1715728731570,0.5423524,-0.26218802,9.072984,0.5423524,-0.26218802,9.072984
1004,1715728731580,0.6934866300000001,-0.63503027,9.015459,0.6934866300000001,-0.63503027,9.015459
1005,1715728731590,0.69348663,-0.63503027,9.015459,0.69348663,-0.63503027,9.015459
1006,1715728731600,1.1272619860000002,-0.8658462800000001,8.9815838,1.1272619860000002,-0.8658462800000001,8.9815838
1007,1715728731610,1.245259925,-0.79631785,8.86955125,1.245259925,-0.79631785,8.86955125
1008,1715728731620,1.4209286,-0.5583313,8.518114,1.4209286,-0.5583313,8.518114
1009,1715728731630,1.3623389999999997,-0.3356912,7.918504000000001,1.3623389999999997,-0.3356912,7.918504000000001
1010,1715728731640,1.23075234,-0.23214758,7.487791419999999,1.23075234,-0.23214758,7.487791419999999
1011,1715728731650,0.9267794,-0.0002663159,6.2219386,0.9267794,-0.0002663159,6.2219386
1012,1715728731660,0.9044088666666666,0.024234747733333336,6.032011066666667,0.9044088666666666,0.024234747733333336,6.032011066666667
1013,1715728731670,0.8617982999999999,0.14780533,4.230428,0.8617982999999999,0.14780533,4.230428
1014,1715728731680,0.9406278,0.15206638,3.4795506000000005,0.9406278,0.15206638,3.4795506000000005
1015,1715728731690,0.9406278,0.15206638,3.4795506,0.9406278,0.15206638,3.4795506
1016,1715728731700,1.02185415,0.15952323000000002,2.5871259,1.02185415,0.15952323000000002,2.5871259
1017,1715728731710,0.98696675,0.06151898000000001,1.9471022,0.98696675,0.06151898000000001,1.9471022
1018,1715728731720,0.8415583,-0.5849629,0.8554067,0.8415583,-0.5849629,0.8554067
1019,1715728731730,0.8372971999999999,-0.6966824,0.68403244,0.8372971999999999,-0.6966824,0.68403244
1020,1715728731740,0.8372972,-0.6966824,0.68403244,0.8372972,-0.6966824,0.68403244
1021,1715728731750,0.46157875,-1.014344044,-1.3823127400000002,0.46157875,-1.014344044,-1.3823127400000002
1022,1715728731760,0.31204235599999997,-0.9137831779999999,-1.7360867599999998,0.31204235599999997,-0.9137831779999999,-1.7360867599999998
1023,1715728731770,-0.6089313,-0.19294588,-3.1563761,-0.6089313,-0.19294588,-3.1563761
1024,1715728731780,-0.741024,-0.10253163000000001,-3.3151004,-0.741024,-0.10253163000000001,-3.3151004
1025,1715728731790,-0.86733764,-0.05416866,-3.4601627199999996,-0.86733764,-0.05416866,-3.4601627199999996
1026,1715728731800,-1.5823159,0.047670547,-4.349205,-1.5823159,0.047670547,-4.349205
1027,1715728731810,-1.6091606200000002,-0.0366983312,-4.449552840000001,-1.6091606200000002,-0.0366983312,-4.449552840000001
1028,1715728731820,-1.5631412,-0.33462593,-4.78583,-1.5631412,-0.33462593,-4.78583
1029,1715728731830,-1.4928339,-0.39960703,-4.979708,-1.4928339,-0.39960703,-4.979708
1030,1715728731840,-1.4928339,-0.39960703000000003,-4.979708,-1.4928339,-0.39960703000000003,-4.979708
1031,1715728731850,-1.3938975000000002,-0.22596905,-5.8305874,-1.3938975000000002,-0.22596905,-5.8305874
1032,1715728731860,-1.398691125,-0.08785096025,-6.079060074999999,-1.398691125,-0.08785096025,-6.079060074999999
1033,1715728731870,-1.4247901,0.33209595,-6.6528378,-1.4247901,0.33209595,-6.6528378
1034,1715728731880,-1.42819898,0.459821054,-6.797607080000001,-1.42819898,0.459821054,-6.797607080000001
1035,1715728731890,-1.425589075,0.6264748975000001,-6.9424563,-1.425589075,0.6264748975000001,-6.9424563
1036,1715728731900,-1.3438301,1.3970933,-7.373755,-1.3438301,1.3970933,-7.373755
1037,1715728731910,-1.27565314,1.59129082,-7.3669374,-1.27565314,1.59129082,-7.3669374
1038,1715728731920,-1.07964466,1.87760708,-7.31420684,-1.07964466,1.87760708,-7.31420684
1039,1715728731930,-0.8454199,2.051964,-7.275883699999999,-0.8454199,2.051964,-7.275883699999999
1040,1715728731940,-0.8454198999999999,2.051964,-7.2758837,-0.8454198999999999,2.051964,-7.2758837
1041,1715728731950,-0.23242721600000002,2.22080835,-7.19971765,-0.23242721600000002,2.22080835,-7.19971765
1042,1715728731960,0.0545614735,2.2229389,-7.143258599999999,0.0545614735,2.2229389,-7.143258599999999
1043,1715728731970,0.8341014399999999,1.9221350999999998,-6.7806690000000005,0.8341014399999999,1.9221350999999998,-6.7806690000000005
1044,1715728731980,0.9353015,1.852893,-6.698643999999999,0.9353015,1.852893,-6.698643999999999
1045,1715728731990,0.9353015,1.852893,-6.698644,0.9353015,1.852893,-6.698644
1046,1715728732000,1.79749926,0.6694116720000001,-5.3224567,1.79749926,0.6694116720000001,-5.3224567
1047,1715728732010,1.9496988000000002,0.2835598715,-4.87484615,1.9496988000000002,0.2835598715,-4.87484615
1048,1715728732020,2.271941,-0.9725857000000001,-3.4642375,2.271941,-0.9725857000000001,-3.4642375
1049,1715728732030,2.404965825,-1.53115005,-2.82567825,2.404965825,-1.53115005,-2.82567825
1050,1715728732040,2.5583637,-2.1014988,-2.137185,2.5583637,-2.1014988,-2.137185
1051,1715728732050,2.6382585,-2.3218753,-1.7208003,2.6382585,-2.3218753,-1.7208003
1052,1715728732060,2.62994952,-2.34360664,-1.61150418,2.62994952,-2.34360664,-1.61150418
1053,1715728732070,2.2005684,-2.2632859,-1.1584742,2.2005684,-2.2632859,-1.1584742
1054,1715728732080,2.2005684,-2.2632859,-1.1584742,2.2005684,-2.2632859,-1.1584742
1055,1715728732090,2.2005684,-2.2632859,-1.1584742,2.2005684,-2.2632859,-1.1584742
1056,1715728732100,2.2005684,-2.2632859,-1.1584742,2.2005684,-2.2632859,-1.1584742
1057,1715728732110,2.2005684,-2.2632859,-1.1584742,2.2005684,-2.2632859,-1.1584742
1058,1715728732120,2.1259999,-2.2452429499999997,-1.1297120999999999,2.1259999,-2.2452429499999997,-1.1297120999999999
1059,1715728732130,0.7350319,-2.057823,-0.3777691,0.7350319,-2.057823,-0.3777691
1060,1715728732140,0.7350319,-2.057823,-0.3777691,0.7350319,-2.057823,-0.3777691
1061,1715728732150,0.7350319,-2.057823,-0.3777691,0.7350319,-2.057823,-0.3777691
1062,1715728732160,0.7350319,-2.057823,-0.3777691,0.7350319,-2.057823,-0.3777691
1063,1715728732170,0.7350319,-2.057823,-0.3777691,0.7350319,-2.057823,-0.3777691
1064,1715728732180,0.7350319,-2.057823,-0.3777691,0.7350319,-2.057823,-0.3777691
1065,1715728732190,0.7350319,-2.057823,-0.3777691,0.7350319,-2.057823,-0.3777691
1066,1715728732200,0.7350319,-2.057823,-0.3777691,0.7350319,-2.057823,-0.3777691
1067,1715728732210,0.7350319,-2.057823,-0.3777691,0.7350319,-2.057823,-0.3777691
1068,1715728732220,-0.6201166100000001,-1.9331871999999999,0.99016257,-0.6201166100000001,-1.9331871999999999,0.99016257
1069,1715728732230,-1.4492246,-0.455999465,5.23257485,-1.4492246,-0.455999465,5.23257485
1070,1715728732240,,,,,,
1071,1715728732250,-0.279298805,1.59569835,9.157605499999999,-0.279298805,1.59569835,9.157605499999999
1072,1715728732260,0.3213434325,-0.373741088,8.12117025,0.3213434325,-0.373741088,8.12117025
1073,1715728732270,1.1952258,-0.8234488,7.995203,1.1952258,-0.8234488,7.995203
1074,1715728732280,1.4892829333333335,-0.8619758333333333,7.810224383333334,1.4892829333333335,-0.8619758333333333,7.810224383333334
1075,1715728732290,1.7883114000000002,-0.9139962,7.2773484999999996,1.7883114000000002,-0.9139962,7.2773484999999996
1076,1715728732300,1.8106818,-1.2100064,6.619282000000001,1.8106818,-1.2100064,6.619282000000001
1077,1715728732310,1.86820604,-1.3229243199999998,6.3977604,1.86820604,-1.3229243199999998,6.3977604
1078,1715728732320,2.2506359,-1.7957681,5.1622677,2.2506359,-1.7957681,5.1622677
1079,1715728732330,2.26217615,-1.7957681,5.003477116666667,2.26217615,-1.7957681,5.003477116666667
1080,1715728732340,1.7106802,-1.176051,3.5221609999999997,1.7106802,-1.176051,3.5221609999999997
1081,1715728732350,0.9992173000000001,-0.64341927,2.733067,0.9992173000000001,-0.64341927,2.733067
1082,1715728732360,0.7602253959999999,-0.50243161,2.50600604,0.7602253959999999,-0.50243161,2.50600604
1083,1715728732370,-0.32508296,0.019640796666666665,1.4278305166666667,-0.32508296,0.019640796666666665,1.4278305166666667
1084,1715728732380,-0.51483305,0.09241161666666665,1.2231889333333335,-0.51483305,0.09241161666666665,1.2231889333333335
1085,1715728732390,-1.0796447,0.08708529999999999,-0.23515695,-1.0796447,0.08708529999999999,-0.23515695
1086,1715728732400,-1.1840405,0.13715269,-1.1403648,-1.1840405,0.13715269,-1.1403648
1087,1715728732410,-1.2530696,0.225356512,-1.55765514,-1.2530696,0.225356512,-1.55765514
1088,1715728732420,-1.5418359,0.55247235,-2.6430523,-1.5418359,0.55247235,-2.6430523
1089,1715728732430,-1.6217306999999999,0.63748038,-2.8431088,-1.6217306999999999,0.63748038,-2.8431088
1090,1715728732440,-1.9125477,0.97844464,-3.6952665,-1.9125477,0.97844464,-3.6952665
1091,1715728732450,-1.8859161,1.00188042,-3.9039916,-1.8859161,1.00188042,-3.9039916
1092,1715728732460,-1.84586218,1.0231856799999999,-4.14595296,-1.84586218,1.0231856799999999,-4.14595296
1093,1715728732470,-1.5727286000000003,0.9944235999999999,-4.7070007,-1.5727286000000003,0.9944235999999999,-4.7070007
1094,1715728732480,-1.4821812,0.9827057,-4.899813,-1.4821812,0.9827057,-4.899813
1095,1715728732490,-1.2245206,0.9572725,-5.584645,-1.2245206,0.9572725,-5.584645
1096,1715728732500,-1.0626005,0.9848362,-6.108621,-1.0626005,0.9848362,-6.108621
1097,1715728732510,-1.0341047,0.9952225250000001,-6.2071246250000005,-1.0341047,0.9952225250000001,-6.2071246250000005
1098,1715728732520,-0.75061136,1.0924278,-7.131008,-0.75061136,1.0924278,-7.131008
1099,1715728732530,-0.730105045,1.100417275,-7.1906295,-0.730105045,1.100417275,-7.1906295
1100,1715728732540,-0.42251018,1.2330427,-7.976561,-0.42251018,1.2330427,-7.976561
1101,1715728732550,-0.27670223,1.3438301,-8.237551,-0.27670223,1.3438301,-8.237551
1102,1715728732560,-0.25561001,1.3576785199999999,-8.2641824,-0.25561001,1.3576785199999999,-8.2641824
1103,1715728732570,0.05779055,1.508946,-8.523973,0.05779055,1.508946,-8.523973
1104,1715728732580,0.11578084,1.5275215,-8.538886999999999,0.11578084,1.5275215,-8.538886999999999
1105,1715728732590,0.58389765,1.6323833,-8.541018,0.58389765,1.6323833,-8.541018
1106,1715728732600,0.896952,1.6313181,-8.447274,0.896952,1.6313181,-8.447274
1107,1715728732610,0.8969520000000001,1.6313181000000003,-8.447274,0.8969520000000001,1.6313181000000003,-8.447274
1108,1715728732620,0.8969520000000001,1.6313181000000003,-8.447274,0.8969520000000001,1.6313181000000003,-8.447274
1109,1715728732630,0.8969520000000001,1.6313181000000003,-8.447274,0.8969520000000001,1.6313181000000003,-8.447274
1110,1715728732640,0.8969520000000001,1.6313181000000003,-8.447274,0.8969520000000001,1.6313181000000003,-8.447274
1111,1715728732650,0.896952,1.6313181,-8.447274,0.896952,1.6313181,-8.447274
1112,1715728732660,0.8969520000000001,1.6313181000000003,-8.447274,0.8969520000000001,1.6313181000000003,-8.447274
1113,1715728732670,0.896952,1.6313181,-8.447274,0.896952,1.6313181,-8.447274
1114,1715728732680,0.896952,1.6313181,-8.447274,0.896952,1.6313181,-8.447274
1115,1715728732690,0.8969520000000001,1.6313181000000003,-8.447274,0.8969520000000001,1.6313181000000003,-8.447274
1116,1715728732700,0.896952,1.6313181,-8.447274,0.896952,1.6313181,-8.447274
1117,1715728732710,0.896952,1.6313181,-8.447274,0.896952,1.6313181,-8.447274
1118,1715728732720,0.896952,1.6313181,-8.447274,0.896952,1.6313181,-8.447274
1119,1715728732730,0.896952,1.6313181,-8.447274,0.896952,1.6313181,-8.447274
1120,1715728732740,0.896952,1.6313181,-8.447274,0.896952,1.6313181,-8.447274
1121,1715728732750,0.896952,1.6313181,-8.447274,0.896952,1.6313181,-8.447274
1122,1715728732760,1.1568763,1.5631412,-8.3078575,1.1568763,1.5631412,-8.3078575
1123,1715728732770,1.86774005,-1.65954755,-4.70973025,1.86774005,-1.65954755,-4.70973025
1124,1715728732780,2.3197448,-2.4007049,-3.422692,2.3197448,-2.4007049,-3.422692
1125,1715728732790,-2.2895179,-2.05143145,1.85335895,-2.2895179,-2.05143145,1.85335895
1126,1715728732800,0.409960075,1.0847713475,9.772895,0.409960075,1.0847713475,9.772895
1127,1715728732810,0.8064046,1.3811144,10.422273,0.8064046,1.3811144,10.422273
1128,1715728732820,0.937432,1.9775288,10.663023,0.937432,1.9775288,10.663023
1129,1715728732830,0.937432,1.9775288,10.663023,0.937432,1.9775288,10.663023
1130,1715728732840,0.5093292,1.7953687000000003,9.855819,0.5093292,1.7953687000000003,9.855819
1131,1715728732850,0.46032706,1.739975,9.623591,0.46032706,1.739975,9.623591
1132,1715728732860,0.342721952,1.49842644,9.3965306,0.342721952,1.49842644,9.3965306
1133,1715728732870,0.12383689999999999,0.5418197,8.766321,0.12383689999999999,0.5418197,8.766321
1134,1715728732880,0.19281272,0.25555674,8.6597947,0.19281272,0.25555674,8.6597947
1135,1715728732890,0.43156493,-0.5487439,8.354064,0.43156493,-0.5487439,8.354064
1136,1715728732900,0.5647229,-0.65833294,8.2029295,0.5647229,-0.65833294,8.2029295
1137,1715728732910,0.5643678166666667,-0.64148846,8.164402483333333,0.5643678166666667,-0.64148846,8.164402483333333
1138,1715728732920,0.46245757,-0.38043228,7.161368,0.46245757,-0.38043228,7.161368
1139,1715728732930,0.567226258,-0.459687892,6.348465200000001,0.567226258,-0.459687892,6.348465200000001
1140,1715728732940,0.7265098,-0.57217973,5.577587,0.7265098,-0.57217973,5.577587
1141,1715728732950,1.127049,-0.6977477,4.797015,1.127049,-0.6977477,4.797015
1142,1715728732960,1.127049,-0.6977477,4.797015,1.127049,-0.6977477,4.797015
1143,1715728732970,1.42028942,-0.677507672,3.49006992,1.42028942,-0.677507672,3.49006992
1144,1715728732980,1.3330443,-0.610462625,3.0547100499999997,1.3330443,-0.610462625,3.0547100499999997
1145,1715728732990,0.65953135,-0.40919439999999996,1.7777919,0.65953135,-0.40919439999999996,1.7777919
1146,1715728733000,0.040746335,-0.2515354,0.97684675,0.040746335,-0.2515354,0.97684675
1147,1715728733010,0.040746335,-0.2515354,0.97684675,0.040746335,-0.2515354,0.97684675
1148,1715728733020,-0.949096612,0.12564784680000002,-0.3609912,-0.949096612,0.12564784680000002,-0.3609912
1149,1715728733030,-1.35038144,0.43939462999999995,-1.1625488000000002,-1.35038144,0.43939462999999995,-1.1625488000000002
1150,1715728733040,-1.7623456000000002,0.9890972999999998,-2.3566294,-1.7623456000000002,0.9890972999999998,-2.3566294
1151,1715728733050,-1.7879119,1.2415648,-3.2298794,-1.7879119,1.2415648,-3.2298794
1152,1715728733060,-1.7879119,1.2415648,-3.2298794,-1.7879119,1.2415648,-3.2298794
1153,1715728733070,-1.4269207,0.91572726,-4.187285,-1.4269207,0.91572726,-4.187285
1154,1715728733080,-1.2863059,0.7265364240000001,-4.3700843,-1.2863059,0.7265364240000001,-4.3700843
1155,1715728733090,-0.8145272,0.114782155,-4.926445,-0.8145272,0.114782155,-4.926445
1156,1715728733100,-0.682700825,-0.033822121249999997,-5.186802025,-0.682700825,-0.033822121249999997,-5.186802025
1157,1715728733110,-0.6387587,-0.08335688000000001,-5.2735877,-0.6387587,-0.08335688000000001,-5.2735877
1158,1715728733120,-0.4685828375,-0.003462106999999998,-5.915841950000001,-0.4685828375,-0.003462106999999998,-5.915841950000001
1159,1715728733130,-0.408022596,0.1139299516,-6.25448244,-0.408022596,0.1139299516,-6.25448244
1160,1715728733140,-0.3905522799999999,0.5865608,-6.806102800000001,-0.3905522799999999,0.5865608,-6.806102800000001
1161,1715728733150,-0.37896755,0.8475503999999999,-7.117159400000001,-0.37896755,0.8475503999999999,-7.117159400000001
1162,1715728733160,-0.37896755,0.8475504,-7.1171594,-0.37896755,0.8475504,-7.1171594
1163,1715728733170,-0.35553175,1.0743184,-7.393995000000001,-0.35553175,1.0743184,-7.393995000000001
1164,1715728733180,-0.35553175,1.0743184,-7.393995,-0.35553175,1.0743184,-7.393995
1165,1715728733190,-0.022104219999999997,1.1265163,-8.109719,-0.022104219999999997,1.1265163,-8.109719
1166,1715728733200,0.17057534,1.0263815,-8.287618,0.17057534,1.0263815,-8.287618
1167,1715728733210,0.251109272,1.01426412,-8.3417068,0.251109272,1.01426412,-8.3417068
1168,1715728733220,0.933171,0.9944236,-8.664588,0.933171,0.9944236,-8.664588
1169,1715728733230,0.933171,0.9944236,-8.664588,0.933171,0.9944236,-8.664588
1170,1715728733240,1.5871097,1.0135983,-8.579367,1.5871097,1.0135983,-8.579367
1171,1715728733250,1.74210554,1.03490358,-8.5427222,1.74210554,1.03490358,-8.5427222
1172,1715728733260,1.7808545,1.0402299,-8.533561,1.7808545,1.0402299,-8.533561
1173,1715728733270,1.7808544999999998,1.0402299,-8.533561,1.7808544999999998,1.0402299,-8.533561
1174,1715728733280,2.54824375,0.455000745,-7.3578427,2.54824375,0.455000745,-7.3578427
1175,1715728733290,2.7447848,-0.08548741,-6.472808400000001,2.7447848,-0.08548741,-6.472808400000001
1176,1715728733300,2.608431,-0.56365764,-5.676257,2.608431,-0.56365764,-5.676257
1177,1715728733310,2.49288325,-0.73962588,-5.28380725,2.49288325,-0.73962588,-5.28380725
1178,1715728733320,1.8586187,-1.358078,-3.4653027,1.8586187,-1.358078,-3.4653027
1179,1715728733330,1.7436146000000001,-1.3484906333333333,-3.2945498,1.7436146000000001,-1.3484906333333333,-3.2945498
1180,1715728733340,0.42836912999999993,-1.002413,-2.1361198,0.42836912999999993,-1.002413,-2.1361198
1181,1715728733350,-0.176068125,-0.890294075,-1.626491125,-0.176068125,-0.890294075,-1.626491125
1182,1715728733360,-1.2895017,-0.7329014,-0.5897566,-1.2895017,-0.7329014,-0.5897566
1183,1715728733370,-2.1148148,-0.7648593,0.7329013999999999,-2.1148148,-0.7648593,0.7329013999999999
1184,1715728733380,-2.35961234,-0.74951952,1.4108884400000001,-2.35961234,-0.74951952,1.4108884400000001
1185,1715728733390,-2.7421217,-0.49654600000000004,3.8417401,-2.7421217,-0.49654600000000004,3.8417401
1186,1715728733400,-2.6899238000000003,-0.318647,4.61379,-2.6899238000000003,-0.318647,4.61379
1187,1715728733410,-2.2298632,0.41412123999999995,6.748046,-2.2298632,0.41412123999999995,6.748046
1188,1715728733420,-1.816674,0.858203,8.00479,-1.816674,0.858203,8.00479
1189,1715728733430,-1.74237185,0.91409605,8.205791999999999,-1.74237185,0.91409605,8.205791999999999
1190,1715728733440,-1.0583395,1.3140028,9.768468,-1.0583395,1.3140028,9.768468
1191,1715728733450,-0.8456062899999999,1.35150002,10.0436254,-0.8456062899999999,1.35150002,10.0436254
1192,1715728733460,-0.50560075,1.3385036999999997,10.387253,-0.50560075,1.3385036999999997,10.387253
1193,1715728733470,-0.37364122,1.0253162,10.314815,-0.37364122,1.0253162,10.314815
1194,1715728733480,-0.35606437,0.923350515,10.2495675,-0.35606437,0.923350515,10.2495675
1195,1715728733490,-0.17443693000000002,-0.062051605,9.315864,-0.17443693000000002,-0.062051605,9.315864
1196,1715728733500,-0.08815057,-0.31971225,8.985632,-0.08815057,-0.31971225,8.985632
1197,1715728733510,0.005566000000000004,-0.46733115999999997,8.796707600000001,0.005566000000000004,-0.46733115999999997,8.796707600000001
1198,1715728733520,0.89908254,-1.5977623,7.5042496,0.89908254,-1.5977623,7.5042496
1199,1715728733530,1.1082470839999998,-1.80820514,7.3709317599999995,1.1082470839999998,-1.80820514,7.3709317599999995
1200,1715728733540,2.5935175,-3.234673,6.6979785,2.5935175,-3.234673,6.6979785
1201,1715728733550,3.09829262,-3.7108991599999994,6.5591478,3.09829262,-3.7108991599999994,6.5591478
1202,1715728733560,4.5892887,-5.111135,6.176132,4.5892887,-5.111135,6.176132
1203,1715728733570,5.1942253,-5.385973,6.1558924,5.1942253,-5.385973,6.1558924
1204,1715728733580,5.220590575,-5.2930287499999995,6.14154455,5.220590575,-5.2930287499999995,6.14154455
1205,1715728733590,4.650009,-3.5125737,5.7160716,4.650009,-3.5125737,5.7160716
1206,1715728733600,4.152664,-2.7788734,5.4839773,4.152664,-2.7788734,5.4839773
1207,1715728733610,2.1931114,-0.64874554,4.391283,2.1931114,-0.64874554,4.391283
1208,1715728733620,0.69881296,0.47896915999999995,3.2953929999999994,0.69881296,0.47896915999999995,3.2953929999999994
1209,1715728733630,0.39212355200000004,0.644298096,3.04660072,0.39212355200000004,0.644298096,3.04660072
1210,1715728733640,-2.0817914,1.5386401,0.7021419,-2.0817914,1.5386401,0.7021419
1211,1715728733650,-2.3192786,1.5743265000000002,0.38689044,-2.3192786,1.5743265000000002,0.38689044
1212,1715728733660,-3.3204267,1.731453,-1.3374385,-3.3204267,1.731453,-1.3374385
1213,1715728733670,-3.560111,1.7921729,-2.2319937,-3.560111,1.7921729,-2.2319937
1214,1715728733680,-3.5601110000000005,1.7921729,-2.2319937,-3.5601110000000005,1.7921729,-2.2319937
1215,1715728733690,-3.560111,1.7921729,-2.2319937,-3.560111,1.7921729,-2.2319937
1216,1715728733700,-3.130543466666667,1.7112129333333332,-2.9945003999999997,-3.130543466666667,1.7112129333333332,-2.9945003999999997
1217,1715728733710,-2.0151326999999997,1.086702,-3.2179484,-2.0151326999999997,1.086702,-3.2179484
1218,1715728733720,-1.6078823,0.7271756000000001,-3.361972,-1.6078823,0.7271756000000001,-3.361972
1219,1715728733730,-1.53041765,0.6521078,-3.419729275,-1.53041765,0.6521078,-3.419729275
1220,1715728733740,-0.94542146,0.15952323,-4.1169777,-0.94542146,0.15952323,-4.1169777
1221,1715728733750,-0.9000589866666666,0.15597235666666664,-4.279607899999999,-0.9000589866666666,0.15597235666666664,-4.279607899999999
1222,1715728733760,-0.8469112400000001,0.4535093760000001,-5.19955178,-0.8469112400000001,0.4535093760000001,-5.19955178
1223,1715728733770,-0.878443,0.6707166399999999,-5.571861299999999,-0.878443,0.6707166399999999,-5.571861299999999
1224,1715728733780,-0.878443,0.67071664,-5.5718613,-0.878443,0.67071664,-5.5718613
1225,1715728733790,-0.87737775,1.2191943,-6.431263,-0.87737775,1.2191943,-6.431263
1226,1715728733800,-0.8539419566666666,1.2866609666666668,-6.572588,-0.8539419566666666,1.2866609666666668,-6.572588
1227,1715728733810,-0.6834998,1.4801838,-7.151248,-0.6834998,1.4801838,-7.151248
1228,1715728733820,-0.46938178,1.5279875,-7.529283500000001,-0.46938178,1.5279875,-7.529283500000001
1229,1715728733830,-0.46938178,1.5279875,-7.5292835,-0.46938178,1.5279875,-7.5292835
1230,1715728733840,-0.1120124728,1.4256422800000002,-7.9951229,-0.1120124728,1.4256422800000002,-7.9951229
1231,1715728733850,0.032756856,1.3611406,-8.16191675,0.032756856,1.3611406,-8.16191675
1232,1715728733860,0.47311023,1.157409,-8.499473,0.47311023,1.157409,-8.499473
1233,1715728733870,0.77231616,1.0902973,-8.545279,0.77231616,1.0902973,-8.545279
1234,1715728733880,0.8198269079999999,1.08688848,-8.5290868,0.8198269079999999,1.08688848,-8.5290868
1235,1715728733890,1.414537,1.0881668,-8.0308895,1.414537,1.0881668,-8.0308895
1236,1715728733900,1.414537,1.0881668,-8.0308895,1.414537,1.0881668,-8.0308895
1237,1715728733910,1.7801887,0.8702315733333333,-7.065716233333333,1.7801887,0.8702315733333333,-7.065716233333333
1238,1715728733920,2.061019,0.40666440000000004,-5.913678,2.061019,0.40666440000000004,-5.913678
1239,1715728733930,2.061019,0.4066644,-5.913678,2.061019,0.4066644,-5.913678
1240,1715728733940,1.7479644999999997,-0.28988487,-4.4994073,1.7479644999999997,-0.28988487,-4.4994073
1241,1715728733950,1.6329160200000001,-0.341869726,-4.40140306,1.6329160200000001,-0.341869726,-4.40140306
1242,1715728733960,0.15779218,-0.9161266999999998,-2.964762,0.15779218,-0.9161266999999998,-2.964762
1243,1715728733970,-0.7356977,-1.2153326,-1.7943034,-0.7356977,-1.2153326,-1.7943034
1244,1715728733980,-1.08630262,-1.28670528,-1.065423408,-1.08630262,-1.28670528,-1.065423408
1245,1715728733990,-1.9082867,-1.4209286,0.82451403,-1.9082867,-1.4209286,0.82451403
1246,1715728734000,-2.06330914,-1.30207176,1.9038391319999999,-2.06330914,-1.30207176,1.9038391319999999
1247,1715728734010,-2.2895179,-0.9203878,4.463721,-2.2895179,-0.9203878,4.463721
1248,1715728734020,-2.2895179,-0.9203878,4.463721,-2.2895179,-0.9203878,4.463721
1249,1715728734030,-2.051964,-0.36977965,6.171871,-2.051964,-0.36977965,6.171871
1250,1715728734040,-2.051964,-0.36977965000000007,6.171871,-2.051964,-0.36977965000000007,6.171871
1251,1715728734050,-2.051964,-0.36977965,6.171871,-2.051964,-0.36977965,6.171871
1252,1715728734060,-1.679255,0.25113592,7.6693654,-1.679255,0.25113592,7.6693654
1253,1715728734070,-0.7857650875,1.522960825,11.29032975,-0.7857650875,1.522960825,11.29032975
1254,1715728734080,-0.7676556,1.5301181,11.379812,-0.7676556,1.5301181,11.379812
1255,1715728734090,-0.7809714249999999,1.23653805,11.508076500000001,-0.7809714249999999,1.23653805,11.508076500000001
1256,1715728734100,-0.773514575,0.86086617,11.345124500000002,-0.773514575,0.86086617,11.345124500000002
1257,1715728734110,-0.38842174,-1.0695246,10.128393,-0.38842174,-1.0695246,10.128393
1258,1715728734120,-0.17017587,-1.6797876000000003,9.39669,-0.17017587,-1.6797876000000003,9.39669
1259,1715728734130,-0.172732504,-1.7104405599999999,9.288699,-0.172732504,-1.7104405599999999,9.288699
1260,1715728734140,-0.4576639,-1.7064191999999998,8.135818,-0.4576639,-1.7064191999999998,8.135818
1261,1715728734150,-0.30502047933333337,-1.6059293333333333,7.712642,-0.30502047933333337,-1.6059293333333333,7.712642
1262,1715728734160,0.042876861999999995,-1.4571475000000003,7.124084,0.042876861999999995,-1.4571475000000003,7.124084
1263,1715728734170,0.5295692,-1.2270505,6.787460300000001,0.5295692,-1.2270505,6.787460300000001
1264,1715728734180,0.5295692,-1.2270505,6.787460300000001,0.5295692,-1.2270505,6.787460300000001
1265,1715728734190,1.0107221,-0.392336596,5.3309522000000005,1.0107221,-0.392336596,5.3309522000000005
1266,1715728734200,0.8338351025,-0.02073935250000001,4.379232200000001,0.8338351025,-0.02073935250000001,4.379232200000001
1267,1715728734210,0.11851057999999999,0.37364121999999994,2.3220084,0.11851057999999999,0.37364121999999994,2.3220084
1268,1715728734220,-0.17976324,0.36405385,1.7106802,-0.17976324,0.36405385,1.7106802
1269,1715728734230,-0.17976324,0.36405385,1.7106802,-0.17976324,0.36405385,1.7106802
1270,1715728734240,-0.6536724,0.49068707000000006,0.6488787,-0.6536724,0.49068707000000006,0.6488787
1271,1715728734250,-0.70427242,0.490154435,0.47044705,-0.70427242,0.490154435,0.47044705
1272,1715728734260,-0.7431545575,0.08685228249999999,-0.5351285299999999,-0.7431545575,0.08685228249999999,-0.5351285299999999
1273,1715728734270,-0.65047663,-0.24620906,-0.9912278,-0.65047663,-0.24620906,-0.9912278
