id,timestamp,acc_x,acc_y,acc_z,gyro_x,gyro_y,gyro_z
0,1715728688440,-0.9906419134,-0.55630733,2.2427528134,-0.9906419134,-0.55630733,2.2427528134
1,1715728688450,-1.1061431285714285,-2.1191138142857144,3.543257,-1.1061431285714285,-2.1191138142857144,3.543257
2,1715728688460,-1.2731233,-2.1401145,3.290333,-1.2731233,-2.1401145,3.290333
3,1715728688470,-1.4867846714285713,-1.9008868428571428,2.9927439714285713,-1.4867846714285713,-1.9008868428571428,2.9927439714285713
4,1715728688480,-1.8140108714285714,-1.3052142999999998,2.4911760285714286,-1.8140108714285714,-1.3052142999999998,2.4911760285714286
5,1715728688490,-1.9587155,-0.7428882314285714,2.1426637142857143,-1.9587155,-0.7428882314285714,2.1426637142857143
6,1715728688500,-1.8934491,0.40637907142857144,1.1662924285714287,-1.8934491,0.40637907142857144,1.1662924285714287
7,1715728688510,-1.7301212999999998,0.6874945,0.7162566,-1.7301212999999998,0.6874945,0.7162566
8,1715728688520,-1.7301213,0.6874945,0.7162566,-1.7301213,0.6874945,0.7162566
9,1715728688530,-1.0151391714285716,0.8195871757142859,-0.8039506761428571,-1.0151391714285716,0.8195871757142859,-0.8039506761428571
10,1715728688540,-0.5253747083333333,0.7174994200000001,-1.58291523,-0.5253747083333333,0.7174994200000001,-1.58291523
11,1715728688550,0.13475585,0.59268606,-2.561826,0.13475585,0.59268606,-2.561826
12,1715728688560,0.6555366000000001,0.7716503999999998,-3.3498546999999994,0.6555366000000001,0.7716503999999998,-3.3498546999999994
13,1715728688570,0.7034734666666668,0.8309500666666666,-3.4961509,0.7034734666666668,0.8309500666666666,-3.4961509
14,1715728688580,0.8313051,1.2775174,-4.4638543,0.8313051,1.2775174,-4.4638543
15,1715728688590,0.7457289166666667,1.4345994166666667,-4.804161533333334,0.7457289166666667,1.4345994166666667,-4.804161533333334
16,1715728688600,0.608665,1.6907065999999997,-5.3585424,0.608665,1.6907065999999997,-5.3585424
17,1715728688610,0.5639239428571429,1.8030158,-5.5848732,0.5639239428571429,1.8030158,-5.5848732
18,1715728688620,0.53658218,1.9633696666666667,-5.869336566666667,0.53658218,1.9633696666666667,-5.869336566666667
19,1715728688630,0.5713808,2.5310664,-6.7717476,0.5713808,2.5310664,-6.7717476
20,1715728688640,0.6690299666666667,2.650797733333333,-6.984800433333334,0.6690299666666667,2.650797733333333,-6.984800433333334
21,1715728688650,1.0069405,2.7748787,-7.3617706,1.0069405,2.7748787,-7.3617706
22,1715728688660,1.0559425666666666,2.7762990333333337,-7.397989533333333,1.0559425666666666,2.7762990333333337,-7.397989533333333
23,1715728688670,1.0804436,2.7770092,-7.416099,1.0804436,2.7770092,-7.416099
24,1715728688680,1.6608791,2.8366640000000003,-7.7419367,1.6608791,2.8366640000000003,-7.7419367
25,1715728688690,1.6843149666666666,2.931827466666667,-7.783126899999999,1.6843149666666666,2.931827466666667,-7.783126899999999
26,1715728688700,1.6203991,3.346792,-7.8995957,1.6203991,3.346792,-7.8995957
27,1715728688710,1.5794931,3.476328,-7.96947714,1.5794931,3.476328,-7.96947714
28,1715728688720,1.5692666,3.508712,-7.986947500000001,1.5692666,3.508712,-7.986947500000001
29,1715728688730,1.5483163,3.7174149333333335,-8.488508666666666,1.5483163,3.7174149333333335,-8.488508666666666
30,1715728688740,1.6429827200000002,3.6087669399999998,-8.5760644,1.6429827200000002,3.6087669399999998,-8.5760644
31,1715728688750,2.3542325,2.9165587,-8.970984,2.3542325,2.9165587,-8.970984
32,1715728688760,2.44201026,2.85264294,-8.9667232,2.44201026,2.85264294,-8.9667232
33,1715728688770,2.4639547,2.836664,-8.965658,2.4639547,2.836664,-8.965658
34,1715728688780,3.8366802,2.0678098,-8.363917,3.8366802,2.0678098,-8.363917
35,1715728688790,4.12379544,1.76338416,-8.0041777,4.12379544,1.76338416,-8.0041777
36,1715728688800,4.61628675,1.0967222749999999,-7.23610305,4.61628675,1.0967222749999999,-7.23610305
37,1715728688810,4.737627,0.8515451,-6.9613647,4.737627,0.8515451,-6.9613647
38,1715728688820,5.07425,-0.1580585,-5.7919717,5.07425,-0.1580585,-5.7919717
39,1715728688830,5.0981124,-0.280776876,-5.64113034,5.0981124,-0.280776876,-5.64113034
40,1715728688840,4.97571355,-0.9525787175,-4.7609961,4.97571355,-0.9525787175,-4.7609961
41,1715728688850,4.8409576,-1.2614053,-4.3711762,4.8409576,-1.2614053,-4.3711762
42,1715728688860,4.8409576,-1.2614053,-4.3711762,4.8409576,-1.2614053,-4.3711762
43,1715728688870,3.4373395,-1.9600852,-4.2264333,3.4373395,-1.9600852,-4.2264333
44,1715728688880,2.22214,-2.0026956,-3.722697,2.22214,-2.0026956,-3.722697
45,1715728688890,1.26896205,-1.96274825,-2.835265775,1.26896205,-1.96274825,-2.835265775
46,1715728688900,-0.5266397,-1.8993651,-0.9558078,-0.5266397,-1.8993651,-0.9558078
47,1715728688910,-0.9541033800000001,-1.72383628,0.4389152354,-0.9541033800000001,-1.72383628,0.4389152354
48,1715728688920,-1.180744875,-1.118693275,3.704953625,-1.180744875,-1.118693275,3.704953625
49,1715728688930,-0.8333025,-0.6713824,5.392631,-0.8333025,-0.6713824,5.392631
50,1715728688940,-0.5888910599999999,-0.4322973,6.21161885,-0.5888910599999999,-0.4322973,6.21161885
51,1715728688950,0.38282913,0.5000081,9.19469,0.38282913,0.5000081,9.19469
52,1715728688960,0.5756418275,0.5964144650000001,9.816404499999999,0.5756418275,0.5964144650000001,9.816404499999999
53,1715728688970,0.77058506,0.57457656,10.520677,0.77058506,0.57457656,10.520677
54,1715728688980,0.6182524,0.17523587,10.328929,0.6182524,0.17523587,10.328929
55,1715728688990,0.509062875,-0.043076605000000004,10.159619,0.509062875,-0.043076605000000004,10.159619
56,1715728689000,-0.011185268,-0.9217194,9.4034815,-0.011185268,-0.9217194,9.4034815
57,1715728689010,-0.3702856376,-1.0592982,9.1095755,-0.3702856376,-1.0592982,9.1095755
58,1715728689020,-0.4978776,-1.0346373,9.017989,-0.4978776,-1.0346373,9.017989
59,1715728689030,-0.47870284,-0.53729236,9.104276,-0.47870284,-0.53729236,9.104276
60,1715728689040,-0.41947418399999997,-0.32684952320000005,9.2000964,-0.41947418399999997,-0.32684952320000005,9.2000964
61,1715728689050,-0.12300466125000001,0.7477151830000001,9.879821249999999,-0.12300466125000001,0.7477151830000001,9.879821249999999
62,1715728689060,-0.11341728875000001,1.3422322,10.21178375,-0.11341728875000001,1.3422322,10.21178375
63,1715728689070,-0.33702278,1.9261298,10.365149,-0.33702278,1.9261298,10.365149
64,1715728689080,-0.54581445,1.3116058,9.997766,-0.54581445,1.3116058,9.997766
65,1715728689090,-0.5886580374999999,0.949516045,9.60212025,-0.5886580374999999,0.949516045,9.60212025
66,1715728689100,-0.7171888,-0.13675322,8.415183,-0.7171888,-0.13675322,8.415183
67,1715728689110,-0.688320104,-0.328500676,8.2106526,-0.688320104,-0.328500676,8.2106526
68,1715728689120,0.8749809,-2.4467773,6.443780000000001,0.8749809,-2.4467773,6.443780000000001
69,1715728689130,2.4309316,-3.233874,5.387305,2.4309316,-3.233874,5.387305
70,1715728689140,2.7727814,-3.03736615,4.7171541999999995,2.7727814,-3.03736615,4.7171541999999995
71,1715728689150,3.7983308,-2.4478426,2.7067018,3.7983308,-2.4478426,2.7067018
72,1715728689160,3.1172609500000004,-1.6901405325,1.744502273875,3.1172609500000004,-1.6901405325,1.744502273875
73,1715728689170,1.4000227,-0.18042903,0.0015978955,1.4000227,-0.18042903,0.0015978955
74,1715728689180,0.034621067,0.6619282,-0.81199723,0.034621067,0.6619282,-0.81199723
75,1715728689190,-0.6911563997500001,1.0525138,-1.3929653475000001,-0.6911563997500001,1.0525138,-1.3929653475000001
76,1715728689200,-2.89213764,2.2404626,-3.18292776,-2.89213764,2.2404626,-3.18292776
77,1715728689210,-2.986733,2.3052306,-3.37116,-2.986733,2.3052306,-3.37116
78,1715728689220,-2.999516,2.4224095,-4.318046,-2.999516,2.4224095,-4.318046
79,1715728689230,-2.3509037,2.1230705,-4.657732,-2.3509037,2.1230705,-4.657732
80,1715728689240,-2.0529494799999997,1.9652783,-4.7810629,-2.0529494799999997,1.9652783,-4.7810629
81,1715728689250,-1.1944269,1.5065491,-5.1657295,-1.1944269,1.5065491,-5.1657295
82,1715728689260,-0.7741004800000001,1.413019,-5.5821947000000005,-0.7741004800000001,1.413019,-5.5821947000000005
83,1715728689270,-0.27310696,1.477787,-6.3361883,-0.27310696,1.477787,-6.3361883
84,1715728689280,-0.08362319,1.6821845,-7.070954,-0.08362319,1.6821845,-7.070954
85,1715728689290,-0.056778548400000003,1.74056094,-7.27798784,-0.056778548400000003,1.74056094,-7.27798784
86,1715728689300,0.09853689,2.0433087,-8.245673,0.09853689,2.0433087,-8.245673
87,1715728689310,0.16884428,2.1188095,-8.438486,0.16884428,2.1188095,-8.438486
88,1715728689320,0.49391614500000003,2.1603879249999998,-8.73532825,0.49391614500000003,2.1603879249999998,-8.73532825
89,1715728689330,0.7876293,2.0933762,-8.899611,0.7876293,2.0933762,-8.899611
90,1715728689340,0.9737175499999999,1.9285266499999998,-8.940358,0.9737175499999999,1.9285266499999998,-8.940358
91,1715728689350,1.320128,1.6161381,-9.017857,1.320128,1.6161381,-9.017857
92,1715728689360,1.5127187666666666,1.4715507499999998,-9.103210666666667,1.5127187666666666,1.4715507499999998,-9.103210666666667
93,1715728689370,1.7365129,1.3179975,-9.214797,1.7365129,1.3179975,-9.214797
94,1715728689380,1.9984344999999997,1.2807132,-9.264864,1.9984344999999997,1.2807132,-9.264864
95,1715728689390,2.1049609,1.2700606,-9.254743999999999,2.1049609,1.2700606,-9.254743999999999
96,1715728689400,2.6300027,1.2498206,-8.961397,2.6300027,1.2498206,-8.961397
97,1715728689410,2.674743725,1.2194606000000001,-8.87830675,2.674743725,1.2194606000000001,-8.87830675
98,1715728689420,2.7674217,0.52344394,-7.686543,2.7674217,0.52344394,-7.686543
99,1715728689430,2.736529,0.34354752,-7.4171643,2.736529,0.34354752,-7.4171643
100,1715728689440,2.476138725,-0.284824865,-6.31275225,2.476138725,-0.284824865,-6.31275225
101,1715728689450,2.0612853,-1.069791,-4.7557364,2.0612853,-1.069791,-4.7557364
102,1715728689460,1.93778125,-1.0298436199999998,-4.5411522,1.93778125,-1.0298436199999998,-4.5411522
103,1715728689470,1.2817785,-0.43715756999999994,-3.9888797,1.2817785,-0.43715756999999994,-3.9888797
104,1715728689480,0.782303,-0.09733847,-3.9366817,0.782303,-0.09733847,-3.9366817
105,1715728689490,0.21731379999999997,0.07996134499999999,-3.6459313499999997,0.21731379999999997,0.07996134499999999,-3.6459313499999997
106,1715728689500,-1.18697,0.31158963,-2.364752,-1.18697,0.31158963,-2.364752
107,1715728689510,-1.5074812,0.13795164,-1.6831166,-1.5074812,0.13795164,-1.6831166
108,1715728689520,-1.5074812,0.13795164,-1.6831166,-1.5074812,0.13795164,-1.6831166
109,1715728689530,-1.7217856399999998,-0.9393761119999999,0.7480547700000001,-1.7217856399999998,-0.9393761119999999,0.7480547700000001
110,1715728689540,-1.3907815959999998,-1.6237546999999999,2.89954112,-1.3907815959999998,-1.6237546999999999,2.89954112
111,1715728689550,-0.12942953,-2.1007,6.841122999999999,-0.12942953,-2.1007,6.841122999999999
112,1715728689560,-0.004154525999999997,-2.04488016,7.1431254,-0.004154525999999997,-2.04488016,7.1431254
113,1715728689570,0.84405497,-1.224953335,9.26845975,0.84405497,-1.224953335,9.26845975
114,1715728689580,0.9238499,-0.98137414,9.601621,0.9238499,-0.98137414,9.601621
115,1715728689590,0.8940558125,-0.9656614925,9.59336525,0.8940558125,-0.9656614925,9.59336525
116,1715728689600,0.50107336,-1.0825741,9.3278475,0.50107336,-1.0825741,9.3278475
117,1715728689610,0.251056004,-1.16579786,9.222839400000002,0.251056004,-1.16579786,9.222839400000002
118,1715728689620,-0.3657849,-1.2646011,9.062731,-0.3657849,-1.2646011,9.062731
119,1715728689630,-0.79388773,-0.89615303,9.270324,-0.79388773,-0.89615303,9.270324
120,1715728689640,-0.965395165,-0.56545525,9.506213500000001,-0.965395165,-0.56545525,9.506213500000001
121,1715728689650,-1.3136033,0.6427534,10.447174,-1.3136033,0.6427534,10.447174
122,1715728689660,-1.3193557,1.00185382,10.8005218,-1.3193557,1.00185382,10.8005218
123,1715728689670,-1.2869717,1.6033549,11.434407,-1.2869717,1.6033549,11.434407
124,1715728689680,-1.26055314,1.53358018,11.2683318,-1.26055314,1.53358018,11.2683318
125,1715728689690,-1.12233516,1.11141621,10.7569254,-1.12233516,1.11141621,10.7569254
126,1715728689700,-1.0378331,0.5767071,10.213881,-1.0378331,0.5767071,10.213881
127,1715728689710,-0.67231451,-0.2437323,9.0292014,-0.67231451,-0.2437323,9.0292014
128,1715728689720,-0.2752375,-1.0282457,6.562024,-0.2752375,-1.0282457,6.562024
129,1715728689730,-0.27630275,-1.0122668,6.3544307,-0.27630275,-1.0122668,6.3544307
130,1715728689740,-0.2335057846,-0.9739172999999999,6.18316296,-0.2335057846,-0.9739172999999999,6.18316296
131,1715728689750,0.19845860740000001,-0.62973058,5.382191199999999,0.19845860740000001,-0.62973058,5.382191199999999
132,1715728689760,0.513856535,-0.30186907749999997,5.23101065,0.513856535,-0.30186907749999997,5.23101065
133,1715728689770,0.6672545,-0.24434485,4.8931556,0.6672545,-0.24434485,4.8931556
134,1715728689780,0.7546061,-0.45207125,4.5129895,0.7546061,-0.45207125,4.5129895
135,1715728689790,0.840859175,-0.6719816125,4.18655275,0.840859175,-0.6719816125,4.18655275
136,1715728689800,1.2860394833333333,-1.7941037,1.8777713333333335,1.2860394833333333,-1.7941037,1.8777713333333335
137,1715728689810,1.142528525,-1.720434075,0.7434541625,1.142528525,-1.720434075,0.7434541625
138,1715728689820,0.6917556,-1.2795148,-0.57976973,0.6917556,-1.2795148,-0.57976973
139,1715728689830,0.5980124,-1.19169715,-0.724645585,0.5980124,-1.19169715,-0.724645585
140,1715728689840,0.0030182666666666393,-0.5929968,-1.4506671933333333,0.0030182666666666393,-0.5929968,-1.4506671933333333
141,1715728689850,-1.6704665000000003,1.2072101,-3.3658335,-1.6704665000000003,1.2072101,-3.3658335
142,1715728689860,-1.858652025,1.512840825,-3.7788563,-1.858652025,1.512840825,-3.7788563
143,1715728689870,-1.81225312,1.62319554,-4.220441500000001,-1.81225312,1.62319554,-4.220441500000001
144,1715728689880,-1.506416,1.3957617,-4.3796983,-1.506416,1.3957617,-4.3796983
145,1715728689890,-1.2934165199999998,1.207050236,-4.48494638,-1.2934165199999998,1.207050236,-4.48494638
146,1715728689900,-0.43715757,0.46179178,-5.0080705,-0.43715757,0.46179178,-5.0080705
147,1715728689910,-0.24365686333333333,0.32241979438333335,-5.261203916666666,-0.24365686333333333,0.32241979438333335,-5.261203916666666
148,1715728689920,0.26152223,0.0047936863,-6.068807,0.26152223,0.0047936863,-6.068807
149,1715728689930,0.2902843325,0.016777903075,-6.17586575,0.2902843325,0.016777903075,-6.17586575
150,1715728689940,0.2998717,0.020772642,-6.211552,0.2998717,0.020772642,-6.211552
151,1715728689950,0.1944106,1.0644647,-7.4661665,0.1944106,1.0644647,-7.4661665
152,1715728689960,0.1288968955,1.2266510750000001,-7.652221325,0.1288968955,1.2266510750000001,-7.652221325
153,1715728689970,-0.09427583,1.7034897,-8.49601,-0.09427583,1.7034897,-8.49601
154,1715728689980,-0.10670390916666667,1.7239072000000002,-8.589220000000001,-0.10670390916666667,1.7239072000000002,-8.589220000000001
155,1715728689990,-0.09214530639999999,1.7186164000000002,-8.712018400000002,-0.09214530639999999,1.7186164000000002,-8.712018400000002
156,1715728690000,0.14966954,1.6172034,-9.24782,0.14966954,1.6172034,-9.24782
157,1715728690010,0.26867946249999997,1.6174697,-9.2377,0.26867946249999997,1.6174697,-9.2377
158,1715728690020,0.5298355,1.6310518,-9.197753,0.5298355,1.6310518,-9.197753
159,1715728690030,0.6523408,1.6672708,-9.151014,0.6523408,1.6672708,-9.151014
160,1715728690040,0.6523408,1.6672708,-9.151014,0.6523408,1.6672708,-9.151014
161,1715728690050,1.4255891,1.8515612999999997,-8.8410225,1.4255891,1.8515612999999997,-8.8410225
162,1715728690060,1.53634988,1.8398434,-8.755188999999998,1.53634988,1.8398434,-8.755188999999998
163,1715728690070,1.979393,1.7929717999999997,-8.411855,1.979393,1.7929717999999997,-8.411855
164,1715728690080,2.13825025,1.6121766750000002,-8.048932,2.13825025,1.6121766750000002,-8.048932
165,1715728690090,2.29431145,1.127082275,-7.2321082500000005,2.29431145,1.127082275,-7.2321082500000005
166,1715728690100,2.2903168,0.685364,-6.600240000000001,2.2903168,0.685364,-6.600240000000001
167,1715728690110,2.271674675,0.5740772399999999,-6.424005575000001,2.271674675,0.5740772399999999,-6.424005575000001
168,1715728690120,2.057024,-0.28908592,-4.754671,2.057024,-0.28908592,-4.754671
169,1715728690130,2.039979766666667,-0.37182139999999997,-4.556221333333333,2.039979766666667,-0.37182139999999997,-4.556221333333333
170,1715728690140,2.0058913,-0.53729236,-4.159322,2.0058913,-0.53729236,-4.159322
171,1715728690150,1.8590182,-0.9291762,-2.5511732,1.8590182,-0.9291762,-2.5511732
172,1715728690160,1.68261052,-1.04614212,-2.12109968,1.68261052,-1.04614212,-2.12109968
173,1715728690170,1.373857175,-1.220226175,-1.41876473,1.373857175,-1.220226175,-1.41876473
174,1715728690180,0.53675972,-1.610012875,0.444680995,0.53675972,-1.610012875,0.444680995
175,1715728690190,-0.47337654,-1.7310535000000002,3.5055163,-0.47337654,-1.7310535000000002,3.5055163
176,1715728690200,-0.7448856,-1.4638054,4.9442883,-0.7448856,-1.4638054,4.9442883
177,1715728690210,-0.8663256666666667,-1.0377886933333333,6.080302766666667,-0.8663256666666667,-1.0377886933333333,6.080302766666667
178,1715728690220,-0.9973531,0.24341275,8.292678,-0.9973531,0.24341275,8.292678
179,1715728690230,-1.0024663600000001,0.36996606400000004,8.4531072,-1.0024663600000001,0.36996606400000004,8.4531072
180,1715728690240,-1.0265412999999999,0.6340981720000001,8.8812636,-1.0265412999999999,0.6340981720000001,8.8812636
181,1715728690250,-1.1092057,1.3531511,10.166078,-1.1092057,1.3531511,10.166078
182,1715728690260,-1.0906701399999998,1.17738266,10.146263600000001,-1.0906701399999998,1.17738266,10.146263600000001
183,1715728690270,-0.9905354199999999,0.5456813159999999,9.93875,-0.9905354199999999,0.5456813159999999,9.93875
184,1715728690280,-0.799214045,-0.5047352425,9.37575125,-0.799214045,-0.5047352425,9.37575125
185,1715728690290,-0.56332472,-1.057473915,8.9934215,-0.56332472,-1.057473915,8.9934215
186,1715728690300,-0.38389438,-1.3029506,8.782566,-0.38389438,-1.3029506,8.782566
187,1715728690310,-0.317421928,-1.26587944,8.803871599999999,-0.317421928,-1.26587944,8.803871599999999
188,1715728690320,0.08042741,-0.8333025,9.030772,0.08042741,-0.8333025,9.030772
189,1715728690330,0.18461018,-0.6703970399999999,9.1022782,0.18461018,-0.6703970399999999,9.1022782
190,1715728690340,0.6352966,0.30200225,9.548358,0.6352966,0.30200225,9.548358
191,1715728690350,0.65207452,0.46328982500000004,9.59229975,0.65207452,0.46328982500000004,9.59229975
192,1715728690360,0.555435135,0.40097190000000005,9.3609045,0.555435135,0.40097190000000005,9.3609045
193,1715728690370,0.24873906,0.05273055000000001,8.622777,0.24873906,0.05273055000000001,8.622777
194,1715728690380,0.2127864175,-0.2885200025,8.40746,0.2127864175,-0.2885200025,8.40746
195,1715728690390,0.20719377999999997,-0.9611341400000001,8.083886,0.20719377999999997,-0.9611341400000001,8.083886
196,1715728690400,0.6608629,-1.7225313,7.558844599999999,0.6608629,-1.7225313,7.558844599999999
197,1715728690410,0.7638384,-1.7997629666666668,7.428460766666666,0.7638384,-1.7997629666666668,7.428460766666666
198,1715728690420,0.7844335,-1.8152093,7.402384,0.7844335,-1.8152093,7.402384
199,1715728690430,1.01233335,-1.7502282,6.824078999999999,1.01233335,-1.7502282,6.824078999999999
200,1715728690440,1.2402332,-1.6852471000000002,6.245774,1.2402332,-1.6852471000000002,6.245774
201,1715728690450,0.9823062459999999,-1.200072772,4.16115948,0.9823062459999999,-1.200072772,4.16115948
202,1715728690460,0.782303,-0.8599341,2.6216137,0.782303,-0.8599341,2.6216137
203,1715728690470,0.12197269,-0.50107336,0.3328949,0.12197269,-0.50107336,0.3328949
204,1715728690480,-1.3306807025,0.80467356,-2.259624025,-1.3306807025,0.80467356,-2.259624025
205,1715728690490,-2.560760575,2.1812273,-4.439686075,-2.560760575,2.1812273,-4.439686075
206,1715728690500,-2.6662216,2.5726118,-4.8940873,-2.6662216,2.5726118,-4.8940873
207,1715728690510,-2.5634238,2.6076989,-4.978775649999999,-2.5634238,2.6076989,-4.978775649999999
208,1715728690520,-1.7034897,2.2178788,-5.106075,-1.7034897,2.2178788,-5.106075
209,1715728690530,-1.200525514,1.81257268,-5.1808565600000005,-1.200525514,1.81257268,-5.1808565600000005
210,1715728690540,-0.31678277,1.0506163,-5.4032836,-0.31678277,1.0506163,-5.4032836
211,1715728690550,0.16884428,0.669385,-5.728056,0.16884428,0.669385,-5.728056
212,1715728690560,0.28808723999999997,0.597479725,-5.885648249999999,0.28808723999999997,0.597479725,-5.885648249999999
213,1715728690570,0.521526464,0.593751338,-6.517815619999999,0.521526464,0.593751338,-6.517815619999999
214,1715728690580,0.5378249900000001,0.6736460799999999,-6.75949745,0.5378249900000001,0.6736460799999999,-6.75949745
215,1715728690590,0.272600968,1.334802,-7.631682039999999,0.272600968,1.334802,-7.631682039999999
216,1715728690600,0.13795164,1.5596792,-7.9017262,0.13795164,1.5596792,-7.9017262
217,1715728690610,0.08468846,1.6001592,-8.0044576,0.08468846,1.6001592,-8.0044576
218,1715728690620,-0.028229486000000005,1.5937675,-8.35433,-0.028229486000000005,1.5937675,-8.35433
219,1715728690630,-0.0127831635,1.5341793,-8.4326265,-0.0127831635,1.5341793,-8.4326265
220,1715728690640,0.19121483,1.243429,-8.72917,0.19121483,1.243429,-8.72917
221,1715728690650,0.19121483,1.243429,-8.72917,0.19121483,1.243429,-8.72917
222,1715728690660,0.23737624666666668,1.2123588333333333,-8.762902916666667,0.23737624666666668,1.2123588333333333,-8.762902916666667
223,1715728690670,1.0112015,1.1965574,-8.772845,1.0112015,1.1965574,-8.772845
224,1715728690680,1.21613158,1.25024668,-8.664002,1.21613158,1.25024668,-8.664002
225,1715728690690,1.7056203,1.3712606,-8.39481,1.7056203,1.3712606,-8.39481
226,1715728690700,2.168877,1.3584775,-8.001861,2.168877,1.3584775,-8.001861
227,1715728690710,2.21937046,1.32034106,-7.917066,2.21937046,1.32034106,-7.917066
228,1715728690720,2.581033925,0.748447575,-6.938927775,2.581033925,0.748447575,-6.938927775
229,1715728690730,2.656989433333333,0.49330583333333333,-6.568326966666667,2.656989433333333,0.49330583333333333,-6.568326966666667
230,1715728690740,2.8558387999999995,-0.7193193,-4.942024,2.8558387999999995,-0.7193193,-4.942024
231,1715728690750,2.832403,-1.3199948,-4.225368,2.832403,-1.3199948,-4.225368
232,1715728690760,2.832403,-1.3199948,-4.225368,2.832403,-1.3199948,-4.225368
233,1715728690770,2.687527,-1.5415696,-4.002728,2.687527,-1.5415696,-4.002728
234,1715728690780,1.8883928600000002,-1.49789382,-3.3846089200000002,1.8883928600000002,-1.49789382,-3.3846089200000002
235,1715728690790,0.3233075,-1.3146685,-1.9600852,0.3233075,-1.3146685,-1.9600852
236,1715728690800,-0.7267761,-1.2432958,-0.25073642,-0.7267761,-1.2432958,-0.25073642
237,1715728690810,-1.0654500599999999,-1.22731684,0.672607492,-1.0654500599999999,-1.22731684,0.672607492
238,1715728690820,-1.7301213,-1.0026793,4.1296277,-1.7301213,-1.0026793,4.1296277
239,1715728690830,-1.737045525,-0.9542098250000001,4.419579150000001,-1.737045525,-0.9542098250000001,4.419579150000001
240,1715728690840,-1.591637025,-0.269611565,7.503517875,-1.591637025,-0.269611565,7.503517875
241,1715728690850,-1.3104074,0.38722333,9.544096,-1.3104074,0.38722333,9.544096
242,1715728690860,-1.3104074,0.38722333000000003,9.544096,-1.3104074,0.38722333000000003,9.544096
243,1715728690870,-1.0127994,0.48892272,10.406993125,-1.0127994,0.48892272,10.406993125
244,1715728690880,-0.865127245,0.14030409666666666,10.304295083333333,-0.865127245,0.14030409666666666,10.304295083333333
245,1715728690890,-0.685896625,-0.578538025,9.819899750000001,-0.685896625,-0.578538025,9.819899750000001
246,1715728690900,-0.6267745,-0.98989624,9.471659,-0.6267745,-0.98989624,9.471659
247,1715728690910,-0.6033387,-1.05807312,9.3646,-0.6033387,-1.05807312,9.3646
248,1715728690920,-0.5204257,-1.088078,9.144800166666666,-0.5204257,-1.088078,9.144800166666666
249,1715728690930,-0.47097968749999997,-0.9861678125,9.15580775,-0.47097968749999997,-0.9861678125,9.15580775
250,1715728690940,-0.19960378,-0.374307,9.589903,-0.19960378,-0.374307,9.589903
251,1715728690950,-0.15606113,-0.29441223,9.631448,-0.15606113,-0.29441223,9.631448
252,1715728690960,-0.1504684925,-0.219344435,9.568064750000001,-0.1504684925,-0.219344435,9.568064750000001
253,1715728690970,-0.537532036,0.27515760599999994,9.078895800000002,-0.537532036,0.27515760599999994,9.078895800000002
254,1715728690980,-0.6384924,0.34248227,9.004141,-0.6384924,0.34248227,9.004141
255,1715728690990,-1.9543859920000002,0.638519024,7.877944100000001,-1.9543859920000002,0.638519024,7.877944100000001
256,1715728691000,-2.1965737,0.6821682,7.638738999999999,-2.1965737,0.6821682,7.638738999999999
257,1715728691010,-2.1965737,0.6821682,7.638739,-2.1965737,0.6821682,7.638739
258,1715728691020,-2.1965737,0.6821682,7.638738999999999,-2.1965737,0.6821682,7.638738999999999
259,1715728691030,-2.1965737,0.6821682,7.638739,-2.1965737,0.6821682,7.638739
260,1715728691040,-2.1965737,0.6821682,7.638738999999999,-2.1965737,0.6821682,7.638738999999999
261,1715728691050,-2.1965737,0.6821682,7.638739,-2.1965737,0.6821682,7.638739
262,1715728691060,-0.09494158033333333,-1.07613819,4.194564333333333,-0.09494158033333333,-1.07613819,4.194564333333333
263,1715728691070,2.0932431,-2.2784657,1.8100160000000003,2.0932431,-2.2784657,1.8100160000000003
264,1715728691080,2.08365564,-2.39415332,1.5256705400000001,2.08365564,-2.39415332,1.5256705400000001
265,1715728691090,1.4893718,-2.168877,0.37017912,1.4893718,-2.168877,0.37017912
266,1715728691100,1.3292626799999998,-2.02826204,0.18354492,1.3292626799999998,-2.02826204,0.18354492
267,1715728691110,1.2892354,-1.9931083,0.13688637,1.2892354,-1.9931083,0.13688637
268,1715728691120,-0.5671197,0.13156006,-2.032523,-0.5671197,0.13156006,-2.032523
269,1715728691130,-1.3639702,1.1473222299999999,-3.2452591249999996,-1.3639702,1.1473222299999999,-3.2452591249999996
270,1715728691140,-2.3668826,2.395778,-4.964395,-2.3668826,2.395778,-4.964395
271,1715728691150,-2.1550283,2.1571589,-5.2147317,-2.1550283,2.1571589,-5.2147317
272,1715728691160,-2.1550283,2.1571589,-5.2147317,-2.1550283,2.1571589,-5.2147317
273,1715728691170,-1.9177409,1.9615166,-5.30341515,-1.9177409,1.9615166,-5.30341515
274,1715728691180,-1.4348036199999998,1.7667664200000002,-5.4692767799999995,-1.4348036199999998,1.7667664200000002,-5.4692767799999995
275,1715728691190,-0.250603264,1.59888078,-6.2343755000000005,-0.250603264,1.59888078,-6.2343755000000005
276,1715728691200,-0.022903169,1.643835,-6.521410999999999,-0.022903169,1.643835,-6.521410999999999
277,1715728691210,-0.022903169,1.643835,-6.521410999999999,-0.022903169,1.643835,-6.521410999999999
278,1715728691220,0.17496955525000002,1.986816575,-7.335672000000001,0.17496955525000002,1.986816575,-7.335672000000001
279,1715728691230,0.22764684200000002,2.2238976399999997,-7.904469199999999,0.22764684200000002,2.2238976399999997,-7.904469199999999
280,1715728691240,0.2794541566666667,2.5209462833333336,-8.782965166666667,0.2794541566666667,2.5209462833333336,-8.782965166666667
281,1715728691250,0.31052434,2.5342622,-8.833566,0.31052434,2.5342622,-8.833566
282,1715728691260,0.5171189,2.5539696000000003,-8.93157,0.5171189,2.5539696000000003,-8.93157
283,1715728691270,0.9728519999999999,2.537458,-9.037031,0.9728519999999999,2.537458,-9.037031
284,1715728691280,1.1893135999999997,2.47098552,-9.0310654,1.1893135999999997,2.47098552,-9.0310654
285,1715728691290,1.8078855,2.1933777,-9.058336,1.8078855,2.1933777,-9.058336
286,1715728691300,1.9637335800000002,2.1142286599999998,-9.0481096,1.9637335800000002,2.1142286599999998,-9.0481096
287,1715728691310,2.0026956,2.0944414,-9.045553,2.0026956,2.0944414,-9.045553
288,1715728691320,2.0026956,2.0944414,-9.045553,2.0026956,2.0944414,-9.045553
289,1715728691330,3.053944425,0.9748161,-7.905954125,3.053944425,0.9748161,-7.905954125
290,1715728691340,3.4405353,-0.3039996,-6.8804045,3.4405353,-0.3039996,-6.8804045
291,1715728691350,3.504451,-0.7278414,-6.501170599999999,3.504451,-0.7278414,-6.501170599999999
292,1715728691360,3.5044510000000004,-0.7278414,-6.5011706,3.5044510000000004,-0.7278414,-6.5011706
293,1715728691370,3.53001735,-1.3146685,-5.8211996500000005,3.53001735,-1.3146685,-5.8211996500000005
294,1715728691380,3.5555837,-1.9014956,-5.1412287,3.5555837,-1.9014956,-5.1412287
295,1715728691390,2.489521,-1.4648706999999999,-4.4201784,2.489521,-1.4648706999999999,-4.4201784
296,1715728691400,2.2977736749999997,-1.4033517249999998,-4.3363888500000005,2.2977736749999997,-1.4033517249999998,-4.3363888500000005
297,1715728691410,2.2338579,-1.3828454,-4.308459,2.2338579,-1.3828454,-4.308459
298,1715728691420,-0.5761078900000001,-0.9534109625,-1.6362781750000002,-0.5761078900000001,-0.9534109625,-1.6362781750000002
299,1715728691430,-1.05567626,-0.98627437,-0.7527951560000001,-1.05567626,-0.98627437,-0.7527951560000001
300,1715728691440,-1.3988243,-1.0335721,0.026098959999999997,-1.3988243,-1.0335721,0.026098959999999997
301,1715728691450,-1.3988243,-1.0335721,0.026098959999999997,-1.3988243,-1.0335721,0.026098959999999997
302,1715728691460,-1.3988243,-1.0335721,0.02609896,-1.3988243,-1.0335721,0.02609896
303,1715728691470,-1.3988243,-1.0335721,0.026098959999999997,-1.3988243,-1.0335721,0.026098959999999997
304,1715728691480,-1.3988243,-1.0335721,0.02609896,-1.3988243,-1.0335721,0.02609896
305,1715728691490,-1.3988243,-1.0335721,0.02609896,-1.3988243,-1.0335721,0.02609896
306,1715728691500,-1.3988243,-1.0335721,0.02609896,-1.3988243,-1.0335721,0.02609896
307,1715728691510,-1.3988243,-1.0335721,0.026098959999999997,-1.3988243,-1.0335721,0.026098959999999997
308,1715728691520,-1.3988243,-1.0335721,0.02609896,-1.3988243,-1.0335721,0.02609896
309,1715728691530,-1.3988243,-1.0335721,0.02609896,-1.3988243,-1.0335721,0.02609896
310,1715728691540,-1.3988243,-1.0335721,0.02609896,-1.3988243,-1.0335721,0.02609896
311,1715728691550,-1.3988243,-1.0335721,0.026098959999999997,-1.3988243,-1.0335721,0.026098959999999997
312,1715728691560,-1.3988243,-1.0335721,0.02609896,-1.3988243,-1.0335721,0.02609896
313,1715728691570,-1.5901722666666667,-1.0293110333333333,0.8394277733333332,-1.5901722666666667,-1.0293110333333333,0.8394277733333332
314,1715728691580,-1.1943824733333332,0.05952160666666667,9.370413999999998,-1.1943824733333332,0.05952160666666667,9.370413999999998
315,1715728691590,0.8704535250000001,-0.1093226815,10.0856165,0.8704535250000001,-0.1093226815,10.0856165
316,1715728691600,0.8112781440000001,-0.147405854,9.6111814,0.8112781440000001,-0.147405854,9.6111814
317,1715728691610,0.73330086,-0.18575533999999996,9.016924,0.73330086,-0.18575533999999996,9.016924
318,1715728691620,0.486372752,-0.038216332199999994,8.01557642,0.486372752,-0.038216332199999994,8.01557642
319,1715728691630,0.04949037333333334,0.25868151466666667,7.1467649,0.04949037333333334,0.25868151466666667,7.1467649
320,1715728691640,-0.7725825,0.86006725,6.4183464,-0.7725825,0.86006725,6.4183464
321,1715728691650,-0.7725825,0.86006725,6.4183464,-0.7725825,0.86006725,6.4183464
322,1715728691660,-0.8829438199999998,0.92355699,6.39533664,-0.8829438199999998,0.92355699,6.39533664
323,1715728691670,-1.8237312999999997,0.87071985,5.7953005,-1.8237312999999997,0.87071985,5.7953005
324,1715728691680,-1.8237313,0.8707198500000001,5.7953005,-1.8237313,0.8707198500000001,5.7953005
325,1715728691690,-0.9042490320000001,-0.704219178,3.8054146799999997,-0.9042490320000001,-0.704219178,3.8054146799999997
326,1715728691700,-0.051425608,-1.4817019,2.44134458,-0.051425608,-1.4817019,2.44134458
327,1715728691710,1.0506163,-1.1570095,0.48842338,1.0506163,-1.1570095,0.48842338
328,1715728691720,1.07192155,-1.123220675,0.4170507175,1.07192155,-1.123220675,0.4170507175
329,1715728691730,1.1251847,-0.7658801999999999,-0.29015118,1.1251847,-0.7658801999999999,-0.29015118
330,1715728691740,0.6150566,0.18375798,-2.1145484,0.6150566,0.18375798,-2.1145484
331,1715728691750,0.43209754999999994,0.262853805,-2.30459795,0.43209754999999994,0.262853805,-2.30459795
332,1715728691760,-0.31145647,0.2998717,-2.9217517,-0.31145647,0.2998717,-2.9217517
333,1715728691770,-0.6225134,0.14753902,-3.2072425000000004,-0.6225134,0.14753902,-3.2072425000000004
334,1715728691780,-0.6718884,0.10876342079999998,-3.29922802,-0.6718884,0.10876342079999998,-3.29922802
335,1715728691790,-0.8290414,0.039947387,-3.8876796,-0.8290414,0.039947387,-3.8876796
336,1715728691800,-0.84288985,0.0921453,-4.086884,-0.84288985,0.0921453,-4.086884
337,1715728691810,-0.84629869,0.294971508,-4.613444,-0.84629869,0.294971508,-4.613444
338,1715728691820,-0.82243678,0.43516020399999994,-4.92820264,-0.82243678,0.43516020399999994,-4.92820264
339,1715728691830,-0.7774094125,0.5448490699999999,-5.114830100000001,-0.7774094125,0.5448490699999999,-5.114830100000001
340,1715728691840,-0.45526704,1.1347721,-6.1657457,-0.45526704,1.1347721,-6.1657457
341,1715728691850,-0.3415834375,1.2588753000000001,-6.492715225,-0.3415834375,1.2588753000000001,-6.492715225
342,1715728691860,-0.08788425,1.5097449,-7.2115684,-0.08788425,1.5097449,-7.2115684
343,1715728691870,0.11238532,1.5491596,-7.5970607,0.11238532,1.5491596,-7.5970607
344,1715728691880,0.1552621775,1.547295375,-7.660710275,0.1552621775,1.547295375,-7.660710275
345,1715728691890,0.6022734,1.493766,-8.188149,0.6022734,1.493766,-8.188149
346,1715728691900,0.65340608,1.4809828,-8.2316114,0.65340608,1.4809828,-8.2316114
347,1715728691910,0.66618925,1.477787,-8.242477,0.66618925,1.477787,-8.242477
348,1715728691920,0.9870998833333333,1.4436985333333334,-8.439196333333333,0.9870998833333333,1.4436985333333334,-8.439196333333333
349,1715728691930,1.25298968,1.43773304,-8.5622434,1.25298968,1.43773304,-8.5622434
350,1715728691940,2.0559587,1.5172018,-8.591884,2.0559587,1.5172018,-8.591884
351,1715728691950,2.1026172799999996,1.5210367,-8.562482800000002,2.1026172799999996,1.5210367,-8.562482800000002
352,1715728691960,2.133723,1.5235933,-8.542882,2.133723,1.5235933,-8.542882
353,1715728691970,2.6584542,1.1401871666666665,-7.6801958,2.6584542,1.1401871666666665,-7.6801958
354,1715728691980,2.9208198,0.9484841000000002,-7.248852699999999,2.9208198,0.9484841000000002,-7.248852699999999
355,1715728691990,2.9208198,0.9484841000000002,-7.248852699999999,2.9208198,0.9484841000000002,-7.248852699999999
356,1715728692000,2.9208198,0.9484841000000002,-7.248852699999999,2.9208198,0.9484841000000002,-7.248852699999999
357,1715728692010,2.9208198,0.9484841,-7.2488527,2.9208198,0.9484841,-7.2488527
358,1715728692020,2.9208198,0.9484841000000002,-7.248852699999999,2.9208198,0.9484841000000002,-7.248852699999999
359,1715728692030,2.9208198,0.9484841,-7.2488527,2.9208198,0.9484841,-7.2488527
360,1715728692040,2.9208198,0.9484841,-7.2488527,2.9208198,0.9484841,-7.2488527
361,1715728692050,2.9208198,0.9484841,-7.2488527,2.9208198,0.9484841,-7.2488527
362,1715728692060,2.9208198,0.9484841000000002,-7.248852699999999,2.9208198,0.9484841000000002,-7.248852699999999
363,1715728692070,2.9208198,0.9484841,-7.2488527,2.9208198,0.9484841,-7.2488527
364,1715728692080,1.8920413850000002,-1.5085465,-3.0730193000000003,1.8920413850000002,-1.5085465,-3.0730193000000003
365,1715728692090,-0.8311719499999999,-1.1034355866666667,1.6797876333333335,-0.8311719499999999,-1.1034355866666667,1.6797876333333335
366,1715728692100,-0.77985288,-1.058632386,1.7401880200000002,-0.77985288,-1.058632386,1.7401880200000002
367,1715728692110,0.24234747999999998,0.6033387,8.370442,0.24234747999999998,0.6033387,8.370442
368,1715728692120,0.33438625600000005,0.77378086,8.750422,0.33438625600000005,0.77378086,8.750422
369,1715728692130,0.3573959500000001,0.8163914,8.845417,0.3573959500000001,0.8163914,8.845417
370,1715728692140,0.73773949,1.8636343666666668,10.913626166666667,0.73773949,1.8636343666666668,10.913626166666667
371,1715728692150,0.5477585899999999,1.70735134,10.7157534,0.5477585899999999,1.70735134,10.7157534
372,1715728692160,0.02929475,1.0644647,9.862477,0.02929475,1.0644647,9.862477
373,1715728692170,-0.393148875,0.9065615333333333,9.418727833333334,-0.393148875,0.9065615333333333,9.418727833333334
374,1715728692180,-0.4776376,0.8749809,9.329978,-0.4776376,0.8749809,9.329978
375,1715728692190,-1.0686924875,1.17212285,9.482511,-1.0686924875,1.17212285,9.482511
376,1715728692200,-1.5444103666666666,1.5310057333333333,9.746718666666666,-1.5444103666666666,1.5310057333333333,9.746718666666666
377,1715728692210,-2.5064323,3.1264157,10.729336,-2.5064323,3.1264157,10.729336
378,1715728692220,-3.0540442166666666,4.1602762,10.9210835,-3.0540442166666666,4.1602762,10.9210835
379,1715728692230,-3.1635666,4.3670483,10.959433,-3.1635666,4.3670483,10.959433
380,1715728692240,-4.7482796,6.516217700000001,10.911495,-4.7482796,6.516217700000001,10.911495
381,1715728692250,-4.84628395,6.588123100000001,10.732065,-4.84628395,6.588123100000001,10.732065
382,1715728692260,-5.4150014,5.1882334,6.1307254,-5.4150014,5.1882334,6.1307254
383,1715728692270,-5.197687480000001,4.26720636,4.48127124,-5.197687480000001,4.26720636,4.48127124
384,1715728692280,-5.143359,4.0369496,4.0689077,-5.143359,4.0369496,4.0689077
385,1715728692290,-4.89848165,3.4115401000000003,3.1138323249999997,-4.89848165,3.4115401000000003,3.1138323249999997
386,1715728692300,-4.525939,2.491119,3.051048325,-4.525939,2.491119,3.051048325
387,1715728692310,-4.030425,1.4309154,3.608847,-4.030425,1.4309154,3.608847
388,1715728692320,-4.030425,1.4309154,3.608847,-4.030425,1.4309154,3.608847
389,1715728692330,-3.4844330000000006,0.6449283666666666,3.705386466666667,-3.4844330000000006,0.6449283666666666,3.705386466666667
390,1715728692340,-0.9845699,-2.728007,3.2935287999999994,-0.9845699,-2.728007,3.2935287999999994
391,1715728692350,0.20932434,-3.8842174999999997,2.5356381,0.20932434,-3.8842174999999997,2.5356381
392,1715728692360,1.8121467,-5.272256,1.4607427,1.8121467,-5.272256,1.4607427
393,1715728692370,2.2743378,-5.2626686,0.8515451,2.2743378,-5.2626686,0.8515451
394,1715728692380,2.270875725,-5.073883875,0.65743409625,2.270875725,-5.073883875,0.65743409625
395,1715728692390,1.4755234,-2.6395903,-0.9781783,1.4755234,-2.6395903,-0.9781783
396,1715728692400,1.29661232,-2.29279366,-1.1583676600000001,1.29661232,-2.29279366,-1.1583676600000001
397,1715728692410,-0.17936377,0.57031554,-2.7630277,-0.17936377,0.57031554,-2.7630277
398,1715728692420,-0.364293538,1.024437508,-3.0621535399999997,-0.364293538,1.024437508,-3.0621535399999997
399,1715728692430,-0.43076598400000005,1.2732298400000002,-3.283249,-0.43076598400000005,1.2732298400000002,-3.283249
400,1715728692440,-0.18469009,1.6747276,-4.353067,-0.18469009,1.6747276,-4.353067
401,1715728692450,0.263226644,1.3247885,-4.65877084,0.263226644,1.3247885,-4.65877084
402,1715728692460,1.2370374,0.5894903,-5.242429,1.2370374,0.5894903,-5.242429
403,1715728692470,1.2370374,0.5894903,-5.242429,1.2370374,0.5894903,-5.242429
404,1715728692480,1.2370374,0.5894903,-5.242429,1.2370374,0.5894903,-5.242429
405,1715728692490,1.2370374,0.5894903,-5.242429,1.2370374,0.5894903,-5.242429
406,1715728692500,1.2370374,0.5894903,-5.242429,1.2370374,0.5894903,-5.242429
407,1715728692510,1.2370374,0.5894903,-5.242429,1.2370374,0.5894903,-5.242429
408,1715728692520,1.2370374,0.5894903,-5.242429,1.2370374,0.5894903,-5.242429
409,1715728692530,1.2370374,0.5894903,-5.242429,1.2370374,0.5894903,-5.242429
410,1715728692540,1.2370374,0.5894903,-5.242429,1.2370374,0.5894903,-5.242429
411,1715728692550,1.2370374,0.5894903,-5.242429,1.2370374,0.5894903,-5.242429
412,1715728692560,1.2370374,0.5894903,-5.242429,1.2370374,0.5894903,-5.242429
413,1715728692570,1.2370374,0.5894903,-5.242429,1.2370374,0.5894903,-5.242429
414,1715728692580,1.2370374,0.5894903,-5.242429,1.2370374,0.5894903,-5.242429
415,1715728692590,1.2370374,0.5894903,-5.242429,1.2370374,0.5894903,-5.242429
416,1715728692600,1.9172082666666668,0.5263290333333334,-5.7372882333333335,1.9172082666666668,0.5263290333333334,-5.7372882333333335
417,1715728692610,2.60763225,1.11080365,-7.713707250000001,2.60763225,1.11080365,-7.713707250000001
418,1715728692620,4.10419464,0.7205177039999999,-7.8954943,4.10419464,0.7205177039999999,-7.8954943
419,1715728692630,4.3427605400000004,0.596734072,-7.5457418,4.3427605400000004,0.596734072,-7.5457418
420,1715728692640,4.00692255,-0.58067965,-5.848763466666667,4.00692255,-0.58067965,-5.848763466666667
421,1715728692650,3.9020163,-0.9312623566666667,-5.383354199999999,3.9020163,-0.9312623566666667,-5.383354199999999
422,1715728692660,3.8377454000000006,-1.2124032,-5.001679,3.8377454000000006,-1.2124032,-5.001679
423,1715728692670,3.8244295666666663,-1.23370845,-4.9555175,3.8244295666666663,-1.23370845,-4.9555175
424,1715728692680,3.71547972,-1.2245471799999998,-4.89986636,3.71547972,-1.2245471799999998,-4.89986636
425,1715728692690,2.606123166666667,-1.17973515,-4.505577083333334,2.606123166666667,-1.17973515,-4.505577083333334
426,1715728692700,2.4692812,-1.1815106,-4.4638543,2.4692812,-1.1815106,-4.4638543
427,1715728692710,0.753141418,-1.2492613399999999,-3.0267336800000004,0.753141418,-1.2492613399999999,-3.0267336800000004
428,1715728692720,-0.4968123400000001,-1.3306475,-1.7885777,-0.4968123400000001,-1.3306475,-1.7885777
429,1715728692730,-0.7084003333333334,-1.3295822166666666,-1.2764965833333333,-0.7084003333333334,-1.3295822166666666,-1.2764965833333333
430,1715728692740,-1.895104,-0.9643298999999999,3.2274826000000005,-1.895104,-0.9643298999999999,3.2274826000000005
431,1715728692750,-1.82290578,-0.70105,4.179189060000001,-1.82290578,-0.70105,4.179189060000001
432,1715728692760,-1.5639402,0.0921453,6.987996,-1.5639402,0.0921453,6.987996
433,1715728692770,-1.44889164,0.265144132,7.59636816,-1.44889164,0.265144132,7.59636816
434,1715728692780,-1.2893684200000002,0.408049252,8.352945120000001,-1.2893684200000002,0.408049252,8.352945120000001
435,1715728692790,-0.9824394,0.36930028200000004,9.4914726,-0.9824394,0.36930028200000004,9.4914726
436,1715728692800,-0.8827307120000001,-0.08825709720000001,9.3641202,-0.8827307120000001,-0.08825709720000001,9.3641202
437,1715728692810,-0.8024097999999998,-0.59055555,9.102145,-0.8024097999999998,-0.59055555,9.102145
438,1715728692820,-0.797296558,-0.72405972,8.9762308,-0.797296558,-0.72405972,8.9762308
439,1715728692830,-0.79388773,-0.8130625,8.892288,-0.79388773,-0.8130625,8.892288
440,1715728692840,-0.771517185,-0.90147937,8.750075,-0.771517185,-0.90147937,8.750075
441,1715728692850,-0.74914664,-0.98989624,8.607862,-0.74914664,-0.98989624,8.607862
442,1715728692860,-0.51132656,-0.5929523633333333,9.0619755,-0.51132656,-0.5929523633333333,9.0619755
443,1715728692870,-0.24754064000000003,-0.07496793,9.576055,-0.24754064000000003,-0.07496793,9.576055
444,1715728692880,-0.207939464,0.059415081999999994,9.4933904,-0.207939464,0.059415081999999994,9.4933904
445,1715728692890,-0.047137916,0.6856303025,8.502201750000001,-0.047137916,0.6856303025,8.502201750000001
446,1715728692900,-0.070307399,0.66831976,8.0349505,-0.070307399,0.66831976,8.0349505
447,1715728692910,-0.41265651999999997,0.4085286,6.4309964,-0.41265651999999997,0.4085286,6.4309964
448,1715728692920,-0.49105992,0.42045956,6.22486808,-0.49105992,0.42045956,6.22486808
449,1715728692930,-0.51066077,0.4234423,6.173336,-0.51066077,0.4234423,6.173336
450,1715728692940,-1.2866166333333333,0.4795018,4.5928398,-1.2866166333333333,0.4795018,4.5928398
451,1715728692950,-1.1530481,0.268213415,4.281361125,-1.1530481,0.268213415,4.281361125
452,1715728692960,0.41904807,-0.5404881,2.937864,0.41904807,-0.5404881,2.937864
453,1715728692970,0.64168817,-0.5671197,2.7588997,0.64168817,-0.5671197,2.7588997
454,1715728692980,0.64168817,-0.5671197,2.7588997,0.64168817,-0.5671197,2.7588997
455,1715728692990,1.1195477233333333,-0.3334719,1.0421385533333334,1.1195477233333333,-0.3334719,1.0421385533333334
456,1715728693000,0.8486600566666667,-0.09063618266666668,-0.5035146066666667,0.8486600566666667,-0.09063618266666668,-0.5035146066666667
457,1715728693010,0.17523587,0.025033696,-1.2699274,0.17523587,0.025033696,-1.2699274
458,1715728693020,-0.012250531,0.033555806,-1.4190642999999998,-0.012250531,0.033555806,-1.4190642999999998
459,1715728693030,-0.012250531,0.033555806,-1.4190643,-0.012250531,0.033555806,-1.4190643
460,1715728693040,-0.012250531,0.033555806,-1.4190643,-0.012250531,0.033555806,-1.4190643
461,1715728693050,-0.012250531,0.033555806,-1.4190643,-0.012250531,0.033555806,-1.4190643
462,1715728693060,-0.012250531,0.033555806,-1.4190643,-0.012250531,0.033555806,-1.4190643
463,1715728693070,-0.012250531,0.033555806,-1.4190643,-0.012250531,0.033555806,-1.4190643
464,1715728693080,-0.012250531,0.033555806,-1.4190642999999998,-0.012250531,0.033555806,-1.4190642999999998
465,1715728693090,-0.012250531,0.033555806,-1.4190643,-0.012250531,0.033555806,-1.4190643
466,1715728693100,-0.6512090155,0.038349493,-2.09264385,-0.6512090155,0.038349493,-2.09264385
467,1715728693110,-0.503736545,0.22130851975,-5.51956375,-0.503736545,0.22130851975,-5.51956375
468,1715728693120,-0.533457396,0.354200164,-5.88187972,-0.533457396,0.354200164,-5.88187972
469,1715728693130,-0.6523408,0.57031554,-6.6236763,-0.6523408,0.57031554,-6.6236763
470,1715728693140,-0.7150582,0.7609977,-7.044322,-0.7150582,0.7609977,-7.044322
471,1715728693150,-0.7225150499999999,0.883203425,-7.29196265,-0.7225150499999999,0.883203425,-7.29196265
472,1715728693160,-0.718254,1.0985532,-7.730219000000001,-0.718254,1.0985532,-7.730219000000001
473,1715728693170,-0.68110293,1.1699258,-7.818635500000001,-0.68110293,1.1699258,-7.818635500000001
474,1715728693180,-0.68110293,1.1699258,-7.818635500000001,-0.68110293,1.1699258,-7.818635500000001
475,1715728693190,-0.438222825,1.4079456499999998,-7.74140405,-0.438222825,1.4079456499999998,-7.74140405
476,1715728693200,-0.1642170475,1.6608792,-7.6567156999999995,-0.1642170475,1.6608792,-7.6567156999999995
477,1715728693210,0.27430537,1.8227992,-7.598126,0.27430537,1.8227992,-7.598126
478,1715728693220,0.366264268,1.84261312,-7.5789513799999995,0.366264268,1.84261312,-7.5789513799999995
479,1715728693230,0.8059518560000001,1.9009895999999997,-7.3949803,0.8059518560000001,1.9009895999999997,-7.3949803
480,1715728693240,1.0484858,1.8920413,-7.2275476,1.0484858,1.8920413,-7.2275476
481,1715728693250,1.0484858,1.8920413,-7.227547599999999,1.0484858,1.8920413,-7.227547599999999
482,1715728693260,1.5924692999999999,1.2071767,-6.1755665749999995,1.5924692999999999,1.2071767,-6.1755665749999995
483,1715728693270,1.7322519,0.73756194,-5.58318,1.7322519,0.73756194,-5.58318
484,1715728693280,2.0016303,-0.24008379999999999,-4.4382877,2.0016303,-0.24008379999999999,-4.4382877
485,1715728693290,2.2093568,-0.63835925,-3.9643786,2.2093568,-0.63835925,-3.9643786
486,1715728693300,2.3494389,-0.802942475,-3.6959988,2.3494389,-0.802942475,-3.6959988
487,1715728693310,2.694984,-1.0122668,-3.0889983,2.694984,-1.0122668,-3.0889983
488,1715728693320,2.679804,-0.8860330249999999,-2.975547675,2.679804,-0.8860330249999999,-2.975547675
489,1715728693330,1.894172,-0.33595753,-2.5149543,1.894172,-0.33595753,-2.5149543
490,1715728693340,1.1635342,-0.22943115,-1.9675418999999998,1.1635342,-0.22943115,-1.9675418999999998
491,1715728693350,1.1635342,-0.22943115,-1.9675418999999998,1.1635342,-0.22943115,-1.9675418999999998
492,1715728693360,-1.3966938000000002,-0.698014,1.1592731,-1.3966938000000002,-0.698014,1.1592731
493,1715728693370,-1.8066871,-0.81625825,2.0209384,-1.8066871,-0.81625825,2.0209384
494,1715728693380,-2.4403858,-0.76938665,4.83137,-2.4403858,-0.76938665,4.83137
495,1715728693390,-2.3935142,-0.48083338,6.601439000000001,-2.3935142,-0.48083338,6.601439000000001
496,1715728693400,-2.3935142,-0.48083338,6.601439000000001,-2.3935142,-0.48083338,6.601439000000001
497,1715728693410,-1.9473685,0.01870869,8.4593252,-1.9473685,0.01870869,8.4593252
498,1715728693420,-1.56873385,0.29933909000000003,9.4881705,-1.56873385,0.29933909000000003,9.4881705
499,1715728693430,-1.1177279,0.27324012,10.061682,-1.1177279,0.27324012,10.061682
500,1715728693440,-0.90147936,-0.12610058,9.943438,-0.90147936,-0.12610058,9.943438
501,1715728693450,-0.8550338719999999,-0.359126988,9.781144399999999,-0.8550338719999999,-0.359126988,9.781144399999999
502,1715728693460,-0.78483297,-1.0681265,9.22192025,-0.78483297,-1.0681265,9.22192025
503,1715728693470,-0.7839452333333332,-1.4609646666666667,8.867432,-0.7839452333333332,-1.4609646666666667,8.867432
504,1715728693480,-0.628905,-1.7576851,8.690953,-0.628905,-1.7576851,8.690953
505,1715728693490,-0.628905,-1.7576851000000002,8.690953,-0.628905,-1.7576851000000002,8.690953
506,1715728693500,-0.628905,-1.7576851,8.690953,-0.628905,-1.7576851,8.690953
507,1715728693510,-0.628905,-1.7576851,8.690953,-0.628905,-1.7576851,8.690953
508,1715728693520,-0.628905,-1.7576851000000002,8.690953,-0.628905,-1.7576851000000002,8.690953
509,1715728693530,-0.628905,-1.7576851,8.690953,-0.628905,-1.7576851,8.690953
510,1715728693540,-0.628905,-1.7576851,8.690953,-0.628905,-1.7576851,8.690953
511,1715728693550,-0.628905,-1.7576851000000002,8.690953,-0.628905,-1.7576851000000002,8.690953
512,1715728693560,-0.628905,-1.7576851,8.690953,-0.628905,-1.7576851,8.690953
513,1715728693570,-0.628905,-1.7576851000000002,8.690953,-0.628905,-1.7576851000000002,8.690953
514,1715728693580,-0.628905,-1.7576851,8.690953,-0.628905,-1.7576851,8.690953
515,1715728693590,-0.628905,-1.7576851,8.690953,-0.628905,-1.7576851,8.690953
516,1715728693600,-0.628905,-1.7576851,8.690953,-0.628905,-1.7576851,8.690953
517,1715728693610,-0.628905,-1.7576851000000002,8.690953,-0.628905,-1.7576851000000002,8.690953
518,1715728693620,-0.54758988,-1.7193799666666667,8.951188333333334,-0.54758988,-1.7193799666666667,8.951188333333334
519,1715728693630,0.9008579813333334,-1.09389259,9.393184,0.9008579813333334,-1.09389259,9.393184
520,1715728693640,-0.1490703,0.876512235,3.13753435,-0.1490703,0.876512235,3.13753435
521,1715728693650,-0.541486815,0.05918870999999999,-0.57291209,-0.541486815,0.05918870999999999,-0.57291209
522,1715728693660,0.15075700333333333,-0.46130355333333334,-1.6393075899999998,0.15075700333333333,-0.46130355333333334,-1.6393075899999998
523,1715728693670,0.3328505,-0.5748872866666667,-2.1773545,0.3328505,-0.5748872866666667,-2.1773545
524,1715728693680,0.383561485,-0.6314350000000001,-2.77290345,0.383561485,-0.6314350000000001,-2.77290345
525,1715728693690,0.27537066,-0.6767087000000002,-3.2583752,0.27537066,-0.6767087000000002,-3.2583752
526,1715728693700,0.27537066,-0.6767087000000002,-3.2583752,0.27537066,-0.6767087000000002,-3.2583752
527,1715728693710,0.17736639,-0.7512772,-3.6289536999999994,0.17736639,-0.7512772,-3.6289536999999994
528,1715728693720,0.0537958132,-0.7572426800000001,-4.34118914,0.0537958132,-0.7572426800000001,-4.34118914
529,1715728693730,-0.146021012,-0.3334275146,-5.21172258,-0.146021012,-0.3334275146,-5.21172258
530,1715728693740,-0.30613014,0.034621067,-5.5490913,-0.30613014,0.034621067,-5.5490913
531,1715728693750,-0.30613014,0.034621067,-5.5490913,-0.30613014,0.034621067,-5.5490913
532,1715728693760,-0.66848623,0.8219840549999999,-6.262951325,-0.66848623,0.8219840549999999,-6.262951325
533,1715728693770,-0.7534077119999999,1.0510955960000001,-6.51805538,-0.7534077119999999,1.0510955960000001,-6.51805538
534,1715728693780,-0.8034751,1.3148017,-7.091193700000001,-0.8034751,1.3148017,-7.091193700000001
535,1715728693790,-0.8009184819999999,1.32566734,-7.15255288,-0.8009184819999999,1.32566734,-7.15255288
536,1715728693800,-0.79921407,1.3329111,-7.193459,-0.79921407,1.3329111,-7.193459
537,1715728693810,-0.60312564,1.48375252,-8.0365884,-0.60312564,1.48375252,-8.0365884
538,1715728693820,-0.5024937466666667,1.6012687666666665,-8.158366,-0.5024937466666667,1.6012687666666665,-8.158366
539,1715728693830,-0.16421704650000002,1.910150875,-8.2233025,-0.16421704650000002,1.910150875,-8.2233025
540,1715728693840,0.018642114,2.0347867,-8.168974,0.018642114,2.0347867,-8.168974
541,1715728693850,0.018642114,2.0347867,-8.168974,0.018642114,2.0347867,-8.168974
542,1715728693860,0.0772316172,2.06416136,-8.1413038,0.0772316172,2.06416136,-8.1413038
543,1715728693870,0.8668583,2.3382537599999997,-7.620097060000001,0.8668583,2.3382537599999997,-7.620097060000001
544,1715728693880,1.34098048,2.3763902999999997,-7.03774408,1.34098048,2.3763902999999997,-7.03774408
545,1715728693890,1.5735276,2.3329275,-6.564021600000001,1.5735276,2.3329275,-6.564021600000001
546,1715728693900,1.61230318,2.2622206,-6.377866760000001,1.61230318,2.2622206,-6.377866760000001
547,1715728693910,1.8125727,1.5440198,-4.66790548,1.8125727,1.5440198,-4.66790548
548,1715728693920,1.829457125,1.3723259250000002,-4.2647165,1.829457125,1.3723259250000002,-4.2647165
549,1715728693930,1.9580877,0.604404,-1.9760641,1.9580877,0.604404,-1.9760641
550,1715728693940,2.125201,0.2593917,-1.2177294,2.125201,0.2593917,-1.2177294
551,1715728693950,2.125201,0.2593917,-1.2177294,2.125201,0.2593917,-1.2177294
552,1715728693960,2.3808643,-0.004261054,-1.14269495,2.3808643,-0.004261054,-1.14269495
553,1715728693970,2.4109046,-0.0846351976,-1.2961328600000002,2.4109046,-0.0846351976,-1.2961328600000002
554,1715728693980,1.7013592,-0.5713808,-1.163401,1.7013592,-0.5713808,-1.163401
555,1715728693990,0.9068056999999999,-0.98137414,-0.3071954,0.9068056999999999,-0.98137414,-0.3071954
556,1715728694000,0.9068057,-0.9813741400000001,-0.3071954,0.9068057,-0.9813741400000001,-0.3071954
557,1715728694010,0.11664637,-1.4211949,1.1113364,0.11664637,-1.4211949,1.1113364
558,1715728694020,-0.05828989749999999,-1.5087795499999999,1.79959655,-0.05828989749999999,-1.5087795499999999,1.79959655
559,1715728694030,-0.48189864,-1.465936,6.592916499999999,-0.48189864,-1.465936,6.592916499999999
560,1715728694040,-0.42224388799999996,-1.38668032,6.907275780000001,-0.42224388799999996,-1.38668032,6.907275780000001
561,1715728694050,-0.224584216,-1.0707763719999999,7.72329416,-0.224584216,-1.0707763719999999,7.72329416
562,1715728694060,0.22956431,-0.1431448,9.676056,0.22956431,-0.1431448,9.676056
563,1715728694070,0.2284990475,-0.11308439225,9.71174225,0.2284990475,-0.11308439225,9.71174225
564,1715728694080,0.08042741,0.042077914,9.811344,0.08042741,0.042077914,9.811344
565,1715728694090,0.012516849500000002,0.0205063255,9.74343375,0.012516849500000002,0.0205063255,9.74343375
566,1715728694100,-0.010120004,0.013315796,9.720797,-0.010120004,0.013315796,9.720797
567,1715728694110,-0.52749194,0.169270392,9.211094800000001,-0.52749194,0.169270392,9.211094800000001
568,1715728694120,-0.6058243133333333,0.2835376766666667,9.209248666666667,-0.6058243133333333,0.2835376766666667,9.209248666666667
569,1715728694130,-0.5596629,0.37230965,9.837976,-0.5596629,0.37230965,9.837976
570,1715728694140,-0.52770495,0.33928648,9.900826,-0.52770495,0.33928648,9.900826
571,1715728694150,-0.36741606749999994,0.33076437000000003,9.769033,-0.36741606749999994,0.33076437000000003,9.769033
572,1715728694160,0.5958818,0.41918126,8.971118,0.5958818,0.41918126,8.971118
573,1715728694170,0.71039768,0.41811599,8.6675845,0.71039768,0.41811599,8.6675845
574,1715728694180,0.7024082,0.35206965,6.7910557,0.7024082,0.35206965,6.7910557
575,1715728694190,0.2476738,0.7854988,5.6163363,0.2476738,0.7854988,5.6163363
576,1715728694200,0.2476738,0.7854988,5.6163363,0.2476738,0.7854988,5.6163363
577,1715728694210,-0.60060895,1.29243115,3.9714361,-0.60060895,1.29243115,3.9714361
578,1715728694220,-0.8617094999999999,1.2178627000000002,3.2914428,-0.8617094999999999,1.2178627000000002,3.2914428
579,1715728694230,-0.39348176,0.34674332,1.9271951,-0.39348176,0.34674332,1.9271951
580,1715728694240,-0.31305435000000004,0.28016434,1.8201361,-0.31305435000000004,0.28016434,1.8201361
581,1715728694250,-0.23262694,0.21358536,1.7130771,-0.23262694,0.21358536,1.7130771
582,1715728694260,1.324389,-0.21984379,-0.99522257,1.324389,-0.21984379,-0.99522257
583,1715728694270,1.3355743,-0.18202693,-1.236438235,1.3355743,-0.18202693,-1.236438235
584,1715728694280,0.8259788,0.08149267,-2.7226808,0.8259788,0.08149267,-2.7226808
585,1715728694290,0.67790717,0.09640635999999998,-2.8908591,0.67790717,0.09640635999999998,-2.8908591
586,1715728694300,0.67790717,0.09640636,-2.8908591,0.67790717,0.09640636,-2.8908591
587,1715728694310,-0.4637891666666667,0.02006246466666667,-3.9757415333333337,-0.4637891666666667,0.02006246466666667,-3.9757415333333337
588,1715728694320,-0.5040294980000001,-0.078030564,-4.19034766,-0.5040294980000001,-0.078030564,-4.19034766
589,1715728694330,-0.6534061,-0.38709018,-4.8940873,-0.6534061,-0.38709018,-4.8940873
590,1715728694340,-0.632953012,-0.419474196,-4.96055986,-0.632953012,-0.419474196,-4.96055986
591,1715728694350,-0.62783974,-0.42757020000000007,-4.977178,-0.62783974,-0.42757020000000007,-4.977178
592,1715728694360,-0.4595281,-0.6330329,-5.7195334,-0.4595281,-0.6330329,-5.7195334
593,1715728694370,-0.4701807333333334,-0.6436855466666667,-5.7681805,-0.4701807333333334,-0.6436855466666667,-5.7681805
594,1715728694380,-0.5980124,-0.6799045,-6.201965,-0.5980124,-0.6799045,-6.201965
595,1715728694390,-0.649943975,-0.6583329250000001,-6.325801775,-0.649943975,-0.6583329250000001,-6.325801775
596,1715728694400,-0.96816488,-0.39603838,-6.987756640000001,-0.96816488,-0.39603838,-6.987756640000001
597,1715728694410,-1.0985532,-0.20173429999999998,-7.293594000000001,-1.0985532,-0.20173429999999998,-7.293594000000001
598,1715728694420,-1.1241195,-0.150901251125,-7.356710875,-1.1241195,-0.150901251125,-7.356710875
599,1715728694430,-1.254248025,0.302801198875,-7.802423875,-1.254248025,0.302801198875,-7.802423875
600,1715728694440,-1.2169638,0.591387775,-7.9980994,-1.2169638,0.591387775,-7.9980994
601,1715728694450,-1.0548773,1.0676605,-8.27337,-1.0548773,1.0676605,-8.27337
602,1715728694460,-0.7885614,1.3062795,-8.368178,-0.7885614,1.3062795,-8.368178
603,1715728694470,-0.7885614,1.3062795,-8.368178,-0.7885614,1.3062795,-8.368178
604,1715728694480,-0.202100485,1.699794575,-8.208388500000002,-0.202100485,1.699794575,-8.208388500000002
605,1715728694490,0.1760348275,1.92506455,-7.93152025,0.1760348275,1.92506455,-7.93152025
606,1715728694500,0.26471803,1.9761972,-7.85592,0.26471803,1.9761972,-7.85592
607,1715728694510,0.8668915749999999,1.935983475,-6.9884955,0.8668915749999999,1.935983475,-6.9884955
608,1715728694520,1.14219565,1.632716225,-6.338052175,1.14219565,1.632716225,-6.338052175
609,1715728694530,1.7461002999999997,0.8163914,-4.7781067,1.7461002999999997,0.8163914,-4.7781067
610,1715728694540,1.929758425,0.47374272500000003,-4.326002425,1.929758425,0.47374272500000003,-4.326002425
611,1715728694550,2.3819294,-0.22303957,-3.4265537,2.3819294,-0.22303957,-3.4265537
612,1715728694560,2.4290673500000004,-0.291749065,-3.34346315,2.4290673500000004,-0.291749065,-3.34346315
613,1715728694570,2.51716468,-0.40711711799999994,-3.18543126,2.51716468,-0.40711711799999994,-3.18543126
614,1715728694580,2.2402494,-0.45526704,-3.1017814,2.2402494,-0.45526704,-3.1017814
615,1715728694590,2.0921779,-0.4350270299999999,-3.1380005,2.0921779,-0.4350270299999999,-3.1380005
616,1715728694600,0.47870284,-0.6340982,-2.7194848,0.47870284,-0.6340982,-2.7194848
617,1715728694610,-0.49894285,-0.96326464,-1.7992303,-0.49894285,-0.96326464,-1.7992303
618,1715728694620,-0.6387254375,-1.03913138,-1.54097045,-0.6387254375,-1.03913138,-1.54097045
619,1715728694630,-1.4456959,-1.6672708,1.4639386,-1.4456959,-1.6672708,1.4639386
620,1715728694640,-1.44036965,-1.71687205,1.88726985,-1.44036965,-1.71687205,1.88726985
621,1715728694650,-1.4393044,-1.7267923,1.9719361,-1.4393044,-1.7267923,1.9719361
622,1715728694660,-0.3008038,-1.1868368,7.7889414,-0.3008038,-1.1868368,7.7889414
623,1715728694670,-0.2387854875,-1.1088395425,8.005123300000001,-0.2387854875,-1.1088395425,8.005123300000001
624,1715728694680,0.35420015,-0.028229486,10.437587,0.35420015,-0.028229486,10.437587
625,1715728694690,0.40595421,0.14931445133333332,10.806789,0.40595421,0.14931445133333332,10.806789
626,1715728694700,0.43183124,0.23808642,10.99139,0.43183124,0.23808642,10.99139
627,1715728694710,0.232094312,0.606747512,11.854840000000001,0.232094312,0.606747512,11.854840000000001
628,1715728694720,0.14168006,0.4832634775,11.746163000000001,0.14168006,0.4832634775,11.746163000000001
629,1715728694730,-0.43502703,-0.44567966,10.650639,-0.43502703,-0.44567966,10.650639
630,1715728694740,-0.6387254075,-0.574210365,10.21581175,-0.6387254075,-0.574210365,10.21581175
631,1715728694750,-0.9153278,-0.621315,9.631448,-0.9153278,-0.621315,9.631448
632,1715728694760,-0.932105675,-0.5854622249999999,9.6098765,-0.932105675,-0.5854622249999999,9.6098765
633,1715728694770,-0.9408941,-0.42733715799999994,9.657247250000001,-0.9408941,-0.42733715799999994,9.657247250000001
634,1715728694780,-0.8183888,1.2381027,10.3523655,-0.8183888,1.2381027,10.3523655
635,1715728694790,-0.796817195,1.5647723999999998,10.438651875,-0.796817195,1.5647723999999998,10.438651875
636,1715728694800,-0.7779088,1.9602183,9.571794,-0.7779088,1.9602183,9.571794
637,1715728694810,-0.774713,1.8174728999999998,9.276715,-0.774713,1.8174728999999998,9.276715
638,1715728694820,-0.6410557,1.18966644,8.204527174999999,-0.6410557,1.18966644,8.204527174999999
639,1715728694830,-0.2400838,-0.69375294,4.9879637,-0.2400838,-0.69375294,4.9879637
640,1715728694840,-0.0976314154,-0.940467996,4.61094038,-0.0976314154,-0.940467996,4.61094038
641,1715728694850,0.9249151300000001,-1.546896,3.3702278,0.9249151300000001,-1.546896,3.3702278
642,1715728694860,1.4691317,-1.0974878,3.0848703,1.4691317,-1.0974878,3.0848703
643,1715728694870,1.54156965,-0.8373304614999999,2.838062025,1.54156965,-0.8373304614999999,2.838062025
644,1715728694880,1.7588835,-0.05685844599999999,2.0976372,1.7588835,-0.05685844599999999,2.0976372
645,1715728694890,1.6749939,-0.02739724975,1.80841815,1.6749939,-0.02739724975,1.80841815
646,1715728694900,1.0080057,-0.29973856,0.4202465,1.0080057,-0.29973856,0.4202465
647,1715728694910,0.40519965,-0.49468180000000006,-0.42543966,0.40519965,-0.49468180000000006,-0.42543966
648,1715728694920,0.292581311,-0.5013396925,-0.58679382,0.292581311,-0.5013396925,-0.58679382
649,1715728694930,-0.3903392224,-0.418408918,-1.6574437199999998,-0.3903392224,-0.418408918,-1.6574437199999998
650,1715728694940,-0.6746669666666666,-0.3160726,-2.1567594333333333,-0.6746669666666666,-0.3160726,-2.1567594333333333
651,1715728694950,-1.0868353,0.056991603,-3.0794108,-1.0868353,0.056991603,-3.0794108
652,1715728694960,-1.1243325,0.1013065766,-3.2412243199999997,-1.1243325,0.1013065766,-3.2412243199999997
653,1715728694970,-1.1337068,0.10066741866666666,-3.4687647,-1.1337068,0.10066741866666666,-3.4687647
654,1715728694980,-1.0442247,-0.022903169,-4.3488054,-1.0442247,-0.022903169,-4.3488054
655,1715728694990,-1.0442247,-0.022903169,-4.3488054,-1.0442247,-0.022903169,-4.3488054
656,1715728695000,-1.0442247,-0.022903169,-4.3488054,-1.0442247,-0.022903169,-4.3488054
657,1715728695010,-1.0442247,-0.022903169,-4.3488054,-1.0442247,-0.022903169,-4.3488054
658,1715728695020,-1.0442247,-0.022903169,-4.3488054,-1.0442247,-0.022903169,-4.3488054
659,1715728695030,-1.0442247,-0.022903169,-4.3488054,-1.0442247,-0.022903169,-4.3488054
660,1715728695040,-1.0442247,-0.022903169,-4.3488054,-1.0442247,-0.022903169,-4.3488054
661,1715728695050,-0.89615303,0.8653936,-7.124217,-0.89615303,0.8653936,-7.124217
662,1715728695060,-0.74365386,1.503087,-8.61735,-0.74365386,1.503087,-8.61735
663,1715728695070,-0.6328997375000001,1.57678995,-9.011431250000001,-0.6328997375000001,1.57678995,-9.011431250000001
664,1715728695080,-0.47550705,1.6363782,-9.519463,-0.47550705,1.6363782,-9.519463
665,1715728695090,-0.360485222,1.6583226,-9.7033,-0.360485222,1.6583226,-9.7033
666,1715728695100,-0.12729901,1.704555,-9.927325,-0.12729901,1.704555,-9.927325
667,1715728695110,-0.07850993399999999,1.72181226,-9.919655,-0.07850993399999999,1.72181226,-9.919655
668,1715728695120,0.270869908,1.86540974,-9.7654314,0.270869908,1.86540974,-9.7654314
669,1715728695130,0.669385,2.064614,-9.410806,0.669385,2.064614,-9.410806
670,1715728695140,0.818988,2.13006125,-9.255343499999999,0.818988,2.13006125,-9.255343499999999
671,1715728695150,1.5884413000000002,2.2860558,-8.445943,1.5884413000000002,2.2860558,-8.445943
672,1715728695160,1.9708709,2.1742032,-7.9432716,1.9708709,2.1742032,-7.9432716
673,1715728695170,2.0507212666666668,2.0730475,-7.768967733333334,2.0507212666666668,2.0730475,-7.768967733333334
674,1715728695180,2.3723421599999996,1.3484373,-6.706314000000001,2.3723421599999996,1.3484373,-6.706314000000001
675,1715728695190,2.4453126999999997,0.7072018725,-6.008886,2.4453126999999997,0.7072018725,-6.008886
676,1715728695200,2.492717,-0.44035336,-4.9100666,2.492717,-0.44035336,-4.9100666
677,1715728695210,2.5023043,-0.8950878,-4.706734,2.5023043,-0.8950878,-4.706734
678,1715728695220,2.487390625,-0.9957218999999999,-4.673710925,2.487390625,-0.9957218999999999,-4.673710925
679,1715728695230,2.0868514,-1.4957633,-4.103928,2.0868514,-1.4957633,-4.103928
680,1715728695240,1.8004287,-1.5660707,-3.7013917,1.8004287,-1.5660707,-3.7013917
681,1715728695250,0.7929556400000001,-1.7992303000000003,-1.8855166,0.7929556400000001,-1.7992303000000003,-1.8855166
682,1715728695260,0.38176385,-1.8812556,-0.9036099,0.38176385,-1.8812556,-0.9036099
683,1715728695270,0.179164025,-1.852493475,-0.02203767499999998,0.179164025,-1.852493475,-0.02203767499999998
684,1715728695280,-0.66299343,-1.2454263,5.2063427,-0.66299343,-1.2454263,5.2063427
685,1715728695290,-0.70613668,-0.531247006,7.5230782000000005,-0.70613668,-0.531247006,7.5230782000000005
686,1715728695300,-0.6619282,0.18695377,9.471659,-0.6619282,0.18695377,9.471659
687,1715728695310,-0.61718714,0.49042075999999996,10.216011,-0.61718714,0.49042075999999996,10.216011
688,1715728695320,-0.59348503,0.60706712,10.56109,-0.59348503,0.60706712,10.56109
689,1715728695330,-0.50746495,0.7759114,11.807116,-0.50746495,0.7759114,11.807116
690,1715728695340,-0.51225865,0.66778715,11.743267,-0.51225865,0.66778715,11.743267
691,1715728695350,-0.5637464099999999,-0.3338269916666667,10.924301,-0.5637464099999999,-0.3338269916666667,10.924301
692,1715728695360,-0.58416396,-0.5735113,10.620811,-0.58416396,-0.5735113,10.620811
693,1715728695370,-0.605043136,-0.606268156,10.459743399999999,-0.605043136,-0.606268156,10.459743399999999
694,1715728695380,-0.6821682,-0.44035336,9.982852,-0.6821682,-0.44035336,9.982852
695,1715728695390,-0.596947132,-0.214144626,10.2197132,-0.596947132,-0.214144626,10.2197132
696,1715728695400,-0.433109578,0.12431627199999999,10.6593478,-0.433109578,0.12431627199999999,10.6593478
697,1715728695410,-0.24647537000000003,0.4063981,11.069155,-0.24647537000000003,0.4063981,11.069155
698,1715728695420,-0.14354427233333333,0.5430625333333333,11.138352666666668,-0.14354427233333333,0.5430625333333333,11.138352666666668
699,1715728695430,0.1658615532,1.06046996,10.97898,0.1658615532,1.06046996,10.97898
700,1715728695440,0.23489064,1.223189,10.780468,0.23489064,1.223189,10.780468
701,1715728695450,0.23489064,1.223189,10.780468,0.23489064,1.223189,10.780468
702,1715728695460,0.23489064,1.223189,10.780468,0.23489064,1.223189,10.780468
703,1715728695470,0.23489064,1.223189,10.780468,0.23489064,1.223189,10.780468
704,1715728695480,0.23489064,1.223189,10.780468,0.23489064,1.223189,10.780468
705,1715728695490,0.23489064,1.223189,10.780468,0.23489064,1.223189,10.780468
706,1715728695500,0.23489064,1.223189,10.780468,0.23489064,1.223189,10.780468
707,1715728695510,0.23489064,1.223189,10.780468,0.23489064,1.223189,10.780468
708,1715728695520,0.23489064,1.223189,10.780468,0.23489064,1.223189,10.780468
709,1715728695530,0.23489064,1.223189,10.780468,0.23489064,1.223189,10.780468
710,1715728695540,0.23489064,1.223189,10.780468,0.23489064,1.223189,10.780468
711,1715728695550,0.23489064,1.223189,10.780468,0.23489064,1.223189,10.780468
712,1715728695560,0.23489064,1.223189,10.780468,0.23489064,1.223189,10.780468
713,1715728695570,0.22796642,1.2716585,10.306026500000002,0.22796642,1.2716585,10.306026500000002
714,1715728695580,-0.153331382,0.03728422500000003,6.20476135,-0.153331382,0.03728422500000003,6.20476135
715,1715728695590,0.02929475,-0.37004596,3.7068512,0.02929475,-0.37004596,3.7068512
716,1715728695600,1.6065507,-0.754473,0.5202481,1.6065507,-0.754473,0.5202481
717,1715728695610,-1.2615828833333333,0.33396015333333334,-4.6003853333333335,-1.2615828833333333,0.33396015333333334,-4.6003853333333335
718,1715728695620,-1.19155067,0.22831263200000002,-4.7418613,-1.19155067,0.22831263200000002,-4.7418613
719,1715728695630,-0.6970819,-0.3071954,-5.627921,-0.6970819,-0.3071954,-5.627921
720,1715728695640,-0.526213626,-0.363654374,-6.0249181,-0.526213626,-0.363654374,-6.0249181
721,1715728695650,-0.34128383,-0.34341437,-6.587457,-0.34128383,-0.34341437,-6.587457
722,1715728695660,-0.31060424600000003,-0.274385274,-6.792840199999999,-0.31060424600000003,-0.274385274,-6.792840199999999
723,1715728695670,-0.30293435,-0.257128,-6.844185999999999,-0.30293435,-0.257128,-6.844185999999999
724,1715728695680,-0.47550704999999993,0.31798118,-7.966707000000001,-0.47550704999999993,0.31798118,-7.966707000000001
725,1715728695690,-0.5530049850000001,0.421844405,-8.1935085,-0.5530049850000001,0.421844405,-8.1935085
726,1715728695700,-0.685364,0.5426187,-8.7739105,-0.685364,0.5426187,-8.7739105
727,1715728695710,-0.6736461,0.56605446,-9.047684,-0.6736461,0.56605446,-9.047684
728,1715728695720,-0.5841639375000001,0.5892239625,-9.256908500000002,-0.5841639375000001,0.5892239625,-9.256908500000002
729,1715728695730,-0.3892206999999999,0.5873597,-9.37139,-0.3892206999999999,0.5873597,-9.37139
730,1715728695740,-0.27914346,0.6065345,-9.360738,-0.27914346,0.6065345,-9.360738
731,1715728695750,0.10066742,0.73330086,-9.246755,0.10066742,0.73330086,-9.246755
732,1715728695760,0.2327601,0.81319565,-9.161667,0.2327601,0.81319565,-9.161667
733,1715728695770,0.65447134,1.0847048,-8.755801,0.65447134,1.0847048,-8.755801
734,1715728695780,0.9909615,1.2476901,-8.370309,0.9909615,1.2476901,-8.370309
735,1715728695790,1.1922963750000002,1.27645215,-8.0811897,1.1922963750000002,1.27645215,-8.0811897
736,1715728695800,1.6246603,1.069791,-7.1029115,1.6246603,1.069791,-7.1029115
737,1715728695810,1.8167627666666668,0.6619725666666667,-6.2811052,1.8167627666666668,0.6619725666666667,-6.2811052
738,1715728695820,1.9979020200000002,0.12285152399999999,-5.31649132,1.9979020200000002,0.12285152399999999,-5.31649132
739,1715728695830,2.0975041,-0.2017343,-4.7525406,2.0975041,-0.2017343,-4.7525406
740,1715728695840,2.1894718666666666,-0.36680578999999996,-4.425238299999999,2.1894718666666666,-0.36680578999999996,-4.425238299999999
741,1715728695850,2.3734074,-0.69694877,-3.7706337,2.3734074,-0.69694877,-3.7706337
742,1715728695860,2.3936474,-0.7150582,-3.7163053000000006,2.3936474,-0.7150582,-3.7163053000000006
743,1715728695870,2.3936474,-0.7150582,-3.7163053000000006,2.3936474,-0.7150582,-3.7163053000000006
744,1715728695880,1.9193720749999998,-0.79948035,-3.0096694,1.9193720749999998,-0.79948035,-3.0096694
745,1715728695890,1.311126514,-0.94491546,-2.198224794,1.311126514,-0.94491546,-2.198224794
746,1715728695900,-0.47657233,-1.3764538,0.31158963,-0.47657233,-1.3764538,0.31158963
747,1715728695910,-0.6243776575,-1.400422225,0.6582330825,-0.6243776575,-1.400422225,0.6582330825
748,1715728695920,-1.4169338,-1.1796197,4.4080078,-1.4169338,-1.1796197,4.4080078
749,1715728695930,-1.4893718,-0.8737825000000001,5.7984962,-1.4893718,-0.8737825000000001,5.7984962
750,1715728695940,-1.4648707,-0.5249752400000001,6.8320684,-1.4648707,-0.5249752400000001,6.8320684
751,1715728695950,-1.2752538,0.84515357,9.857151,-1.2752538,0.84515357,9.857151
752,1715728695960,-1.20717675,1.2207921425,10.6090605,-1.20717675,1.2207921425,10.6090605
753,1715728695970,-1.12625,1.6725970000000001,11.635741,-1.12625,1.6725970000000001,11.635741
754,1715728695980,-1.1209236,1.5618097,11.811377,-1.1209236,1.5618097,11.811377
755,1715728695990,-1.11708868,1.48598956,11.7677278,-1.11708868,1.48598956,11.7677278
756,1715728696000,-1.03527652,0.369912808,10.872373399999999,-1.03527652,0.369912808,10.872373399999999
757,1715728696010,-0.977912025,-0.10323071,10.367012500000001,-0.977912025,-0.10323071,10.367012500000001
758,1715728696020,-0.7352982,-0.6660561,9.307608,-0.7352982,-0.6660561,9.307608
759,1715728696030,-0.5021387,-0.62877184,9.0360985,-0.5021387,-0.62877184,9.0360985
760,1715728696040,-0.44061971250000004,-0.586460905,9.058169625,-0.44061971250000004,-0.586460905,9.058169625
761,1715728696050,0.24021696,0.03888212,9.644231,0.24021696,0.03888212,9.644231
762,1715728696060,0.41988033750000003,0.250603265,9.83268275,0.41988033750000003,0.250603265,9.83268275
763,1715728696070,0.9790105575,0.901013245,10.22376825,0.9790105575,0.901013245,10.22376825
764,1715728696080,1.2295805,1.1315763,10.295906,1.2295805,1.1315763,10.295906
765,1715728696090,1.284142,1.0908632575000001,10.08984425,1.284142,1.0908632575000001,10.08984425
766,1715728696100,1.2306458,0.3968107,8.381095,1.2306458,0.3968107,8.381095
767,1715728696110,1.017193612,-0.006444845999999993,7.81666506,1.017193612,-0.006444845999999993,7.81666506
768,1715728696120,0.61079556,-0.7246456,6.8943863,0.61079556,-0.7246456,6.8943863
769,1715728696130,0.3328949,-0.73849404,6.405563400000001,0.3328949,-0.73849404,6.405563400000001
770,1715728696140,0.239684325,-0.5910215999999999,6.1765317,0.239684325,-0.5910215999999999,6.1765317
771,1715728696150,-0.022903169,-0.13249217,5.1488185,-0.022903169,-0.13249217,5.1488185
772,1715728696160,-0.020772642,-0.17297219,4.688758,-0.020772642,-0.17297219,4.688758
773,1715728696170,0.43715756999999994,-0.9376983,2.7354639000000005,0.43715756999999994,-0.9376983,2.7354639000000005
774,1715728696180,0.5937513,-1.1697927,1.7130771,0.5937513,-1.1697927,1.7130771
775,1715728696190,0.552206025,-1.1602386,1.339535745,0.552206025,-1.1602386,1.339535745
776,1715728696200,-0.20812588999999998,-0.60959715,-1.3455611,-0.20812588999999998,-0.60959715,-1.3455611
777,1715728696210,-1.0330727,0.2290650025,-2.55090695,-1.0330727,0.2290650025,-2.55090695
778,1715728696220,-2.1305273,1.4479597,-3.8887448,-2.1305273,1.4479597,-3.8887448
779,1715728696230,-2.7983143,2.158224,-4.5330963,-2.7983143,2.158224,-4.5330963
780,1715728696240,-2.89305625,2.24237985,-4.68223315,-2.89305625,2.24237985,-4.68223315
781,1715728696250,-2.7620955,2.0028288,-4.964395,-2.7620955,2.0028288,-4.964395
782,1715728696260,-2.59911015,1.78391715,-5.005141375,-2.59911015,1.78391715,-5.005141375
783,1715728696270,-1.7386434,0.71519136,-5.2988877,-1.7386434,0.71519136,-5.2988877
784,1715728696280,-1.2061448,0.18269272,-5.6098113,-1.2061448,0.18269272,-5.6098113
785,1715728696290,-1.2061448,0.18269272,-5.6098113,-1.2061448,0.18269272,-5.6098113
786,1715728696300,-0.5351618,-0.13568796,-6.4022346,-0.5351618,-0.13568796,-6.4022346
787,1715728696310,-0.49105989800000005,-0.0756869838,-6.53382144,-0.49105989800000005,-0.0756869838,-6.53382144
788,1715728696320,-0.4486091525,0.09584044025,-6.7687852500000005,-0.4486091525,0.09584044025,-6.7687852500000005
789,1715728696330,-0.45739758,0.83343565,-7.507712,-0.45739758,0.83343565,-7.507712
790,1715728696340,-0.469115485,0.8781767125,-7.566001849999999,-0.469115485,0.8781767125,-7.566001849999999
791,1715728696350,-0.5443230800000001,1.11796758,-8.024657479999998,-0.5443230800000001,1.11796758,-8.024657479999998
792,1715728696360,-0.5583313125,1.13237525,-8.20016675,-0.5583313125,1.13237525,-8.20016675
793,1715728696370,-0.48083338,1.0166609,-8.614254,-0.48083338,1.0166609,-8.614254
794,1715728696380,-0.3487407,0.98683363,-8.739822,-0.3487407,0.98683363,-8.739822
795,1715728696390,-0.3487407,0.98683363,-8.739822,-0.3487407,0.98683363,-8.739822
796,1715728696400,0.13475585,1.06553,-8.863393,0.13475585,1.06553,-8.863393
797,1715728696410,0.438056375,1.186703675,-8.875376750000001,0.438056375,1.186703675,-8.875376750000001
798,1715728696420,0.8526104,1.380848,-8.866589,0.8526104,1.380848,-8.866589
799,1715728696430,1.2892354,1.5820496000000002,-8.722778,1.2892354,1.5820496000000002,-8.722778
800,1715728696440,1.4447106,1.61230312,-8.6427236,1.4447106,1.61230312,-8.6427236
801,1715728696450,2.3371885,1.3542165,-7.882551699999999,2.3371885,1.3542165,-7.882551699999999
802,1715728696460,2.712527375,0.75377392,-7.097951224999999,2.712527375,0.75377392,-7.097951224999999
803,1715728696470,3.1198910000000004,-0.17190692,-5.932586,3.1198910000000004,-0.17190692,-5.932586
804,1715728696480,3.4426657999999994,-1.0783131,-4.7930207,3.4426657999999994,-1.0783131,-4.7930207
805,1715728696490,3.5267772666666666,-1.2866609,-4.506509133333333,3.5267772666666666,-1.2866609,-4.506509133333333
806,1715728696500,3.9794254,-2.432929,-2.6630259,3.9794254,-2.432929,-2.6630259
807,1715728696510,3.8803891999999998,-2.4901869,-2.122770825,3.8803891999999998,-2.4901869,-2.122770825
808,1715728696520,3.5651710000000003,-2.513889,-0.9739172999999999,3.5651710000000003,-2.513889,-0.9739172999999999
809,1715728696530,2.2860558,-2.0261314,0.42770335,2.2860558,-2.0261314,0.42770335
810,1715728696540,1.7413066000000001,-1.80142735,0.920787275,1.7413066000000001,-1.80142735,0.920787275
811,1715728696550,-0.26884592,-0.6926877,2.8814049,-0.26884592,-0.6926877,2.8814049
812,1715728696560,-0.73323431,-0.28482487500000003,3.45544895,-0.73323431,-0.28482487500000003,3.45544895
813,1715728696570,-2.351969,1.4596775,5.8474984,-2.351969,1.4596775,5.8474984
814,1715728696580,-2.9473180000000005,2.387256,7.1339374,-2.9473180000000005,2.387256,7.1339374
815,1715728696590,-2.9473180000000005,2.387256,7.1339374,-2.9473180000000005,2.387256,7.1339374
816,1715728696600,-3.4904695,3.3190951,9.119057,-3.4904695,3.3190951,9.119057
817,1715728696610,-3.48279962,3.2117698599999995,9.699731400000001,-3.48279962,3.2117698599999995,9.699731400000001
818,1715728696620,-3.39568772,2.9272379600000002,10.2473298,-3.39568772,2.9272379600000002,10.2473298
819,1715728696630,-3.2466574,2.5268054,10.406693,-3.2466574,2.5268054,10.406693
820,1715728696640,-3.2466574,2.5268054,10.406693,-3.2466574,2.5268054,10.406693
821,1715728696650,-2.883202625,1.469764225,10.2152785,-2.883202625,1.469764225,10.2152785
822,1715728696660,-2.5378907,0.6321341,9.9511595,-2.5378907,0.6321341,9.9511595
823,1715728696670,-1.3785843,-0.8844351,9.120122,-1.3785843,-0.8844351,9.120122
824,1715728696680,-0.7378726333333333,-1.4569034333333333,8.716320333333334,-0.7378726333333333,-1.4569034333333333,8.716320333333334
825,1715728696690,-0.49364318999999995,-1.6303860799999998,8.5867974,-0.49364318999999995,-1.6303860799999998,8.5867974
826,1715728696700,0.89735144,-2.0335884,8.407726,0.89735144,-2.0335884,8.407726
827,1715728696710,1.176770128,-2.06341568,8.520218,1.176770128,-2.06341568,8.520218
828,1715728696720,2.1624851,-2.1220052,9.225583,2.1624851,-2.1220052,9.225583
829,1715728696730,2.635329,-1.8737987,9.576055,2.635329,-1.8737987,9.576055
830,1715728696740,2.635329,-1.8737987,9.576055,2.635329,-1.8737987,9.576055
831,1715728696750,3.028844125,-1.95768825,9.02701075,3.028844125,-1.95768825,9.02701075
832,1715728696760,3.0772803,-2.012283,8.859265,3.0772803,-2.012283,8.859265
833,1715728696770,3.1292652199999997,-1.92429226,6.9260514,3.1292652199999997,-1.92429226,6.9260514
834,1715728696780,2.9779667,-1.800650616666667,5.835203583333334,2.9779667,-1.800650616666667,5.835203583333334
835,1715728696790,2.4940929,-1.6061068666666667,4.6965255,2.4940929,-1.6061068666666667,4.6965255
836,1715728696800,-0.11025479,-0.31252173,0.6672545,-0.11025479,-0.31252173,0.6672545
837,1715728696810,-0.6501437225,0.03172488000000001,0.143244665,-0.6501437225,0.03172488000000001,0.143244665
838,1715728696820,-2.4552996,1.2093406,-1.5607444,-2.4552996,1.2093406,-1.5607444
839,1715728696830,-2.841091425,1.477687075,-1.9896794500000001,-2.841091425,1.477687075,-1.9896794500000001
840,1715728696840,-3.1317952,1.7151809400000002,-2.4427826599999998,-3.1317952,1.7151809400000002,-2.4427826599999998
841,1715728696850,-3.6428021999999998,2.4351926,-4.395677,-3.6428021999999998,2.4351926,-4.395677
842,1715728696860,-3.4580456,2.3750052999999998,-4.5416183,-3.4580456,2.3750052999999998,-4.5416183
843,1715728696870,-2.1506875,1.549079728,-5.0027443,-2.1506875,1.549079728,-5.0027443
844,1715728696880,-1.3711275,0.89735144,-5.2328415,-1.3711275,0.89735144,-5.2328415
845,1715728696890,-1.2579765125,0.779673105,-5.302316625,-1.2579765125,0.779673105,-5.302316625
846,1715728696900,-0.5468797,-0.03142528,-5.955889,-0.5468797,-0.03142528,-5.955889
847,1715728696910,-0.48775757499999994,-0.137885065,-6.1529628,-0.48775757499999994,-0.137885065,-6.1529628
848,1715728696920,-0.47018075,-0.33595753,-7.019954000000001,-0.47018075,-0.33595753,-7.019954000000001
849,1715728696930,-0.53729236,-0.29973856,-7.2744193,-0.53729236,-0.29973856,-7.2744193
850,1715728696940,-0.65067633,-0.1453419095,-7.6216285,-0.65067633,-0.1453419095,-7.6216285
851,1715728696950,-0.8652604,0.25513065,-8.347939,-0.8652604,0.25513065,-8.347939
852,1715728696960,-0.8548740825000001,0.385592155,-8.58119825,-0.8548740825000001,0.385592155,-8.58119825
853,1715728696970,-0.8034751,0.6097303,-9.013596,-0.8034751,0.6097303,-9.013596
854,1715728696980,-0.73423296,0.6512756,-9.166993,-0.73423296,0.6512756,-9.166993
855,1715728696990,-0.6682199075,0.6534061175,-9.264431375,-0.6682199075,0.6534061175,-9.264431375
856,1715728697000,-0.24754064000000003,0.6789724,-9.765405,-0.24754064000000003,0.6789724,-9.765405
857,1715728697010,-0.16951008,0.7031183733333334,-9.820798666666667,-0.16951008,0.7031183733333334,-9.820798666666667
858,1715728697020,0.24341274999999998,0.903743,-9.86554,0.24341274999999998,0.903743,-9.86554
859,1715728697030,0.32770172799999997,0.9484840999999999,-9.8227165,0.32770172799999997,0.9484840999999999,-9.8227165
860,1715728697040,0.38389438,0.9783115,-9.7941675,0.38389438,0.9783115,-9.7941675
861,1715728697050,1.27211122,1.25344246,-9.0261116,1.27211122,1.25344246,-9.0261116
862,1715728697060,1.52324714,1.180178948,-8.6831766,1.52324714,1.180178948,-8.6831766
863,1715728697070,2.158224,0.14327796,-6.8303375,2.158224,0.14327796,-6.8303375
864,1715728697080,2.3094916,-0.22090904,-6.255228,2.3094916,-0.22090904,-6.255228
865,1715728697090,2.462856275,-0.484228905,-5.84626675,2.462856275,-0.484228905,-5.84626675
866,1715728697100,3.3734236,-1.7385103,-4.094341,3.3734236,-1.7385103,-4.094341
867,1715728697110,3.5293781600000003,-1.87742062,-3.909411,3.5293781600000003,-1.87742062,-3.909411
868,1715728697120,3.6832821000000004,-2.25503,-3.1230867,3.6832821000000004,-2.25503,-3.1230867
869,1715728697130,3.50019,-2.3679478,-2.7268085,3.50019,-2.3679478,-2.7268085
870,1715728697140,3.009423,-2.44294236,-2.1052804600000004,3.009423,-2.44294236,-2.1052804600000004
871,1715728697150,1.1209236,-2.4819312,0.2530001,1.1209236,-2.4819312,0.2530001
872,1715728697160,0.9044753625,-2.42121115,0.57171365,0.9044753625,-2.42121115,0.57171365
873,1715728697170,-0.89828354,-1.2582095,3.9421413,-0.89828354,-1.2582095,3.9421413
874,1715728697180,-1.153946788,-0.81516638,4.72937106,-1.153946788,-0.81516638,4.72937106
875,1715728697190,-1.2178626,-0.7044056,4.9261785,-1.2178626,-0.7044056,4.9261785
876,1715728697200,-1.843238925,1.51127635,8.216245125,-1.843238925,1.51127635,8.216245125
877,1715728697210,-2.150234625,2.693952,10.193974,-2.150234625,2.693952,10.193974
878,1715728697220,-2.3137527,3.4202952,11.776356999999999,-2.3137527,3.4202952,11.776356999999999
879,1715728697230,-2.3366557400000003,3.5140383999999996,12.114577800000001,-2.3366557400000003,3.5140383999999996,12.114577800000001
880,1715728697240,-2.40523212,3.46442372,12.426407000000001,-2.40523212,3.46442372,12.426407000000001
881,1715728697250,-2.5469122,3.124285,12.678368999999998,-2.5469122,3.124285,12.678368999999998
882,1715728697260,-2.54158595,2.83033885,12.420109,-2.54158595,2.83033885,12.420109
883,1715728697270,-2.2636852,1.529985,10.7825985,-2.2636852,1.529985,10.7825985
884,1715728697280,-2.1962184666666666,1.404994,10.592360166666667,-2.1962184666666666,1.404994,10.592360166666667
885,1715728697290,-2.1624851,1.3424985,10.497241,-2.1624851,1.3424985,10.497241
886,1715728697300,-0.93426284,-0.07776425000000001,9.0315983,-0.93426284,-0.07776425000000001,9.0315983
887,1715728697310,-0.8176231125,-0.156194285,8.926110625,-0.8176231125,-0.156194285,8.926110625
888,1715728697320,-0.6534061,-0.16551533,8.634495,-0.6534061,-0.16551533,8.634495
889,1715728697330,-0.624644,-0.25073642,8.631299,-0.624644,-0.25073642,8.631299
890,1715728697340,-0.18079524999999996,-0.7387936399999999,8.45959175,-0.18079524999999996,-0.7387936399999999,8.45959175
891,1715728697350,1.150751,-2.2029653,7.94447,1.150751,-2.2029653,7.94447
892,1715728697360,1.466535125,-2.234090975,7.48970225,1.466535125,-2.234090975,7.48970225
893,1715728697370,2.4138875,-2.327468,6.125399,2.4138875,-2.327468,6.125399
894,1715728697380,2.496978,-2.2901838,5.862412,2.496978,-2.2901838,5.862412
895,1715728697390,2.578370775,-1.874031825,4.42939945,2.578370775,-1.874031825,4.42939945
896,1715728697400,2.190182,-1.3104074,2.8121629,2.190182,-1.3104074,2.8121629
897,1715728697410,2.1033963250000003,-1.25957435,2.662526625,2.1033963250000003,-1.25957435,2.662526625
898,1715728697420,0.5202481,-0.50107336,0.30413276,0.5202481,-0.50107336,0.30413276
899,1715728697430,-0.03919283999999997,-0.2585927433333333,-0.49250688766666667,-0.03919283999999997,-0.2585927433333333,-0.49250688766666667
900,1715728697440,-0.92598045,0.13156006,-1.7662070999999997,-0.92598045,0.13156006,-1.7662070999999997
901,1715728697450,-1.454218,0.48203179999999995,-2.7310696,-1.454218,0.48203179999999995,-2.7310696
902,1715728697460,-1.454218,0.4820318,-2.7310696,-1.454218,0.4820318,-2.7310696
903,1715728697470,-1.7019806,0.7560708666666667,-3.568189333333333,-1.7019806,0.7560708666666667,-3.568189333333333
904,1715728697480,-1.6941687,0.76236258,-4.261553875,-1.6941687,0.76236258,-4.261553875
905,1715728697490,-1.4233254,0.44048652,-4.584229,-1.4233254,0.44048652,-4.584229
906,1715728697500,-1.1166626,0.025033696000000005,-4.897283,-1.1166626,0.025033696000000005,-4.897283
907,1715728697510,-0.9895411666666666,-0.13395690133333335,-5.0691456666666665,-0.9895411666666666,-0.13395690133333335,-5.0691456666666665
908,1715728697520,-0.74914664,-0.31465223,-5.578919,-0.74914664,-0.31465223,-5.578919
909,1715728697530,-0.7267761,-0.257128,-5.7674704,-0.7267761,-0.257128,-5.7674704
910,1715728697540,-0.8205193,0.11771163,-6.411822,-0.8205193,0.11771163,-6.411822
911,1715728697550,-0.91639304,0.50533444,-6.866556,-0.91639304,0.50533444,-6.866556
912,1715728697560,-0.9376983050000001,0.6619282200000001,-7.0342685,-0.9376983050000001,0.6619282200000001,-7.0342685
913,1715728697570,-0.93663305,1.3393027,-7.703587000000001,-0.93663305,1.3393027,-7.703587000000001
914,1715728697580,-0.9046751375000001,1.4807164,-7.842604,-0.9046751375000001,1.4807164,-7.842604
915,1715728697590,-0.6523408,1.9708709,-8.449139,-0.6523408,1.9708709,-8.449139
916,1715728697600,-0.42650494,2.1358535,-8.800543,-0.42650494,2.1358535,-8.800543
917,1715728697610,-0.25078082,2.2040304,-8.908844666666667,-0.25078082,2.2040304,-8.908844666666667
918,1715728697620,0.10066742,2.3403842,-9.125448,0.10066742,2.3403842,-9.125448
919,1715728697630,0.19441061333333334,2.3574284666666667,-9.131839666666666,0.19441061333333334,2.3574284666666667,-9.131839666666666
920,1715728697640,0.66831976,2.3776684,-9.091359,0.66831976,2.3776684,-9.091359
921,1715728697650,1.04529,2.3936474,-9.042357,1.04529,2.3936474,-9.042357
922,1715728697660,1.22425425,2.42081165,-9.0029425,1.22425425,2.42081165,-9.0029425
923,1715728697670,2.1038957,2.5353274,-8.615319,2.1038957,2.5353274,-8.615319
924,1715728697680,2.6776289999999996,2.2477507,-8.009983100000001,2.6776289999999996,2.2477507,-8.009983100000001
925,1715728697690,3.2519836,1.7897761000000003,-7.259505299999999,3.2519836,1.7897761000000003,-7.259505299999999
926,1715728697700,3.6832821000000004,0.98044205,-6.399039,3.6832821000000004,0.98044205,-6.399039
927,1715728697710,3.7688583333333336,0.77844142,-6.2421343333333335,3.7688583333333336,0.77844142,-6.2421343333333335
928,1715728697720,4.2466736,-0.3242396,-5.4564137,4.2466736,-0.3242396,-5.4564137
929,1715728697730,4.4512043,-0.7363635,-5.053877,4.4512043,-0.7363635,-5.053877
930,1715728697740,4.51512,-1.2219906,-3.9910101999999994,4.51512,-1.2219906,-3.9910101999999994
931,1715728697750,4.1369514,-1.4829801,-2.7800717,4.1369514,-1.4829801,-2.7800717
932,1715728697760,3.9479337,-1.550058425,-2.387355625,3.9479337,-1.550058425,-2.387355625
933,1715728697770,2.3989737,-2.1124177,0.7482145399999999,2.3989737,-2.1124177,0.7482145399999999
934,1715728697780,2.0723816333333334,-2.187607633333333,1.4752570466666668,2.0723816333333334,-2.187607633333333,1.4752570466666668
935,1715728697790,0.68642926,-1.8333187000000002,5.238301,0.68642926,-1.8333187000000002,5.238301
936,1715728697800,0.52557445,-1.6713986000000003,5.7665386,0.52557445,-1.6713986000000003,5.7665386
937,1715728697810,0.28755460250000003,-1.26007369,6.53892145,0.28755460250000003,-1.26007369,6.53892145
938,1715728697820,-0.768134988,0.654711056,9.898962800000001,-0.768134988,0.654711056,9.898962800000001
939,1715728697830,-1.0710893499999998,1.295859875,10.9424545,-1.0710893499999998,1.295859875,10.9424545
940,1715728697840,-1.2731233,1.6608791,11.706049,-1.2731233,1.6608791,11.706049
941,1715728697850,-1.2635359,1.4479597,11.766769000000002,-1.2635359,1.4479597,11.766769000000002
942,1715728697860,-1.24076586,1.3525386879999999,11.6932658,-1.24076586,1.3525386879999999,11.6932658
943,1715728697870,-1.0303763,0.6182524,10.845449,-1.0303763,0.6182524,10.845449
944,1715728697880,-0.951120628,0.642114308,10.6310384,-0.951120628,0.642114308,10.6310384
945,1715728697890,-0.8514119399999999,0.8739157,10.667684,-0.8514119399999999,0.8739157,10.667684
946,1715728697900,-0.8202529875,0.770052475,10.6293335,-0.8202529875,0.770052475,10.6293335
947,1715728697910,-0.80986667,0.7354314,10.61655,-0.80986667,0.7354314,10.61655
948,1715728697920,-0.5735113,-0.27417222,8.840091,-0.5735113,-0.27417222,8.840091
949,1715728697930,-0.37856805,-0.6394245,8.214913,-0.37856805,-0.6394245,8.214913
950,1715728697940,0.73117036,-1.4840454,6.0572224,0.73117036,-1.4840454,6.0572224
951,1715728697950,1.5767233,-1.7235965999999998,4.8217826,1.5767233,-1.7235965999999998,4.8217826
952,1715728697960,1.8227326499999998,-1.7624787,4.582165,1.8227326499999998,-1.7624787,4.582165
953,1715728697970,2.626807,-1.668336,4.484227,2.626807,-1.668336,4.484227
954,1715728697980,2.7812703,-1.5319823,4.7558694,2.7812703,-1.5319823,4.7558694
955,1715728697990,3.0326724,-0.8503467,5.623793,3.0326724,-0.8503467,5.623793
956,1715728698000,3.0124323,-0.62024975,5.693034999999999,3.0124323,-0.62024975,5.693034999999999
957,1715728698010,3.0124323,-0.62024975,5.693034999999999,3.0124323,-0.62024975,5.693034999999999
958,1715728698020,2.4863253,0.07829688,4.0752993,2.4863253,0.07829688,4.0752993
959,1715728698030,2.3228074249999997,-0.211321675,3.2041133,2.3228074249999997,-0.211321675,3.2041133
960,1715728698040,2.028262,-0.8034751,1.7301213,2.028262,-0.8034751,1.7301213
961,1715728698050,1.8313213999999998,-1.0143973,1.2104058,1.8313213999999998,-1.0143973,1.2104058
962,1715728698060,1.41916423,-0.968058325,0.694418725,1.41916423,-0.968058325,0.694418725
963,1715728698070,0.18269272,-0.8290414,-0.8535425,0.18269272,-0.8290414,-0.8535425
964,1715728698080,-0.10037446399999998,-0.6859498900000001,-1.06758062,-0.10037446399999998,-0.6859498900000001,-1.06758062
965,1715728698090,-1.7907082,0.23915169,-2.29551,-1.7907082,0.23915169,-2.29551
966,1715728698100,-2.0208051,0.3648528,-2.4659522,-2.0208051,0.3648528,-2.4659522
967,1715728698110,-2.45660442,0.563790784,-2.77866036,-2.45660442,0.563790784,-2.77866036
968,1715728698120,-3.569299,1.0113347,-3.6918044,-3.569299,1.0113347,-3.6918044
969,1715728698130,-3.5890063000000003,1.0208554749999998,-3.895735675,-3.5890063000000003,1.0208554749999998,-3.895735675
970,1715728698140,-3.5820820000000007,1.0261152,-4.3361554,-3.5820820000000007,1.0261152,-4.3361554
971,1715728698150,-3.501122,1.0207889,-4.5288353,-3.501122,1.0207889,-4.5288353
972,1715728698160,-3.4310543000000004,1.0303762600000002,-4.65664024,-3.4310543000000004,1.0303762600000002,-4.65664024
973,1715728698170,-2.943057,1.1645994,-5.490502,-2.943057,1.1645994,-5.490502
974,1715728698180,-2.81274876,1.24385502,-5.66882722,-2.81274876,1.24385502,-5.66882722
975,1715728698190,-2.40214284,1.5880417000000002,-6.23245814,-2.40214284,1.5880417000000002,-6.23245814
976,1715728698200,-2.2706094833333332,1.7141423500000001,-6.417325583333334,-2.2706094833333332,1.7141423500000001,-6.417325583333334
977,1715728698210,-2.2604895,1.724795,-6.432061700000001,-2.2604895,1.724795,-6.432061700000001
978,1715728698220,-1.7126776999999997,2.1444200666666666,-7.1626107333333335,-1.7126776999999997,2.1444200666666666,-7.1626107333333335
979,1715728698230,-1.5615966000000001,2.20062158,-7.334499920000001,-1.5615966000000001,2.20062158,-7.334499920000001
980,1715728698240,-1.1645994,2.2359884,-7.67376,-1.1645994,2.2359884,-7.67376
981,1715728698250,-0.76299506,2.1965737,-7.902791500000001,-0.76299506,2.1965737,-7.902791500000001
982,1715728698260,-0.6695514699999999,2.183790525,-7.936613625000001,-0.6695514699999999,2.183790525,-7.936613625000001
983,1715728698270,-0.07936214,2.1124177,-8.089212,-0.07936214,2.1124177,-8.089212
984,1715728698280,0.20799272800000002,2.09457456,-8.028492199999999,0.20799272800000002,2.09457456,-8.028492199999999
985,1715728698290,1.0207889,2.0422435,-7.807983,1.0207889,2.0422435,-7.807983
986,1715728698300,1.5713970999999998,1.882454,-7.4629707,1.5713970999999998,1.882454,-7.4629707
987,1715728698310,1.6565915400000002,1.8351563,-7.38264988,1.6565915400000002,1.8351563,-7.38264988
988,1715728698320,2.6981797,1.101749,-6.1273966,2.6981797,1.101749,-6.1273966
989,1715728698330,3.24832185,0.651042535,-5.4695295999999995,3.24832185,0.651042535,-5.4695295999999995
990,1715728698340,4.0071225,0.05592634,-4.6907554,4.0071225,0.05592634,-4.6907554
991,1715728698350,4.0071225,0.05592634,-4.6907554,4.0071225,0.05592634,-4.6907554
992,1715728698360,4.56492074,-0.36746268400000004,-4.3081394799999995,4.56492074,-0.36746268400000004,-4.3081394799999995
993,1715728698370,5.32317556,-1.134292692,-3.8271993200000005,5.32317556,-1.134292692,-3.8271993200000005
994,1715728698380,5.4336435000000005,-2.0755995499999997,-3.4292167,5.4336435000000005,-2.0755995499999997,-3.4292167
995,1715728698390,4.439486,-2.849314,-2.6502428,4.439486,-2.849314,-2.6502428
996,1715728698400,3.6479951999999995,-2.82505242,-1.8332920560000001,3.6479951999999995,-2.82505242,-1.8332920560000001
997,1715728698410,2.42454,-2.5447817,-0.26138908,2.42454,-2.5447817,-0.26138908
998,1715728698420,1.5170686,-1.8492976,1.7237297,1.5170686,-1.8492976,1.7237297
999,1715728698430,1.3321122,-1.5369090566666668,2.3080712,1.3321122,-1.5369090566666668,2.3080712
1000,1715728698440,0.17843166,1.1219889,6.529000800000001,0.17843166,1.1219889,6.529000800000001
1001,1715728698450,-0.033200719999999996,1.7085053666666665,7.3135676,-0.033200719999999996,1.7085053666666665,7.3135676
1002,1715728698460,-0.13901691,2.0017636,7.705851,-0.13901691,2.0017636,7.705851
1003,1715728698470,-1.79118754,4.93667142,11.752015,-1.79118754,4.93667142,11.752015
1004,1715728698480,-2.2465744,5.3218574499999995,12.3519315,-2.2465744,5.3218574499999995,12.3519315
1005,1715728698490,-3.517101,5.5247235,12.916854,-3.517101,5.5247235,12.916854
1006,1715728698500,-3.6832821000000004,5.3787823,12.808331,-3.6832821000000004,5.3787823,12.808331
1007,1715728698510,-3.8060204,4.912862675,12.38578725,-3.8060204,4.912862675,12.38578725
1008,1715728698520,-3.8633118,2.496978,10.214946,-3.8633118,2.496978,10.214946
1009,1715728698530,-3.8633117999999995,2.496978,10.214946,-3.8633117999999995,2.496978,10.214946
1010,1715728698540,-1.9526283,0.07829688,8.72078,-1.9526283,0.07829688,8.72078
1011,1715728698550,-1.5863107,-0.17616798,8.6121235,-1.5863107,-0.17616798,8.6121235
1012,1715728698560,-1.5863107,-0.17616798,8.6121235,-1.5863107,-0.17616798,8.6121235
1013,1715728698570,2.194443,-1.2166642,7.861379,2.194443,-1.2166642,7.861379
1014,1715728698580,2.34251465,-1.296559,7.48753825,2.34251465,-1.296559,7.48753825
1015,1715728698590,2.5150874,-1.5447654999999998,5.8261933,2.5150874,-1.5447654999999998,5.8261933
1016,1715728698600,2.492717,-1.6289213,5.2894335,2.492717,-1.6289213,5.2894335
1017,1715728698610,2.3510368,-1.7363796999999999,4.0369496,2.3510368,-1.7363796999999999,4.0369496
1018,1715728698620,2.299904,-1.6841818,3.844137,2.299904,-1.6841818,3.844137
1019,1715728698630,1.97882705,-1.2177961,3.11489745,1.97882705,-1.2177961,3.11489745
1020,1715728698640,1.1550121,0.013315796,1.9591529,1.1550121,0.013315796,1.9591529
1021,1715728698650,1.0282457,0.17523587,1.8366475999999998,1.0282457,0.17523587,1.8366475999999998
1022,1715728698660,0.2476738,0.782303,0.95274514,0.2476738,0.782303,0.95274514
1023,1715728698670,-0.32104382,0.7727156,-0.011185268,-0.32104382,0.7727156,-0.011185268
1024,1715728698680,-0.50716536,0.6795050275,-0.465653364,-0.50716536,0.6795050275,-0.465653364
1025,1715728698690,-0.8769782999999999,0.48935547,-1.4254559,-0.8769782999999999,0.48935547,-1.4254559
1026,1715728698700,-0.9941573,0.44261702999999997,-1.8013608,-0.9941573,0.44261702999999997,-1.8013608
1027,1715728698710,-1.3050811,0.3147854,-2.7321348,-1.3050811,0.3147854,-2.7321348
1028,1715728698720,-1.4435654,0.25193486,-3.0847373,-1.4435654,0.25193486,-3.0847373
1029,1715728698730,-1.5664258,0.1780765733333333,-3.3403117000000004,-1.5664258,0.1780765733333333,-3.3403117000000004
1030,1715728698740,-1.8333187000000002,-0.028229486,-3.8546564999999995,-1.8333187000000002,-0.028229486,-3.8546564999999995
1031,1715728698750,-1.885250275,-0.08485490525,-3.971302875,-1.885250275,-0.08485490525,-3.971302875
1032,1715728698760,-1.9728682599999998,-0.146127536,-4.3543984,-1.9728682599999998,-0.146127536,-4.3543984
1033,1715728698770,-2.0197399,-0.15166691,-4.706734,-2.0197399,-0.15166691,-4.706734
1034,1715728698780,-1.9792598599999998,-0.0562725516,-4.887775599999999,-1.9792598599999998,-0.0562725516,-4.887775599999999
1035,1715728698790,-1.6630095999999999,0.45966128,-5.6140723,-1.6630095999999999,0.45966128,-5.6140723
1036,1715728698800,-1.4648707,0.6885598,-5.8771925,-1.4648707,0.6885598,-5.8771925
1037,1715728698810,-1.37568815,0.7697861500000001,-5.988212949999999,-1.37568815,0.7697861500000001,-5.988212949999999
1038,1715728698820,-0.8151930000000001,1.1986879,-6.634328999999999,-0.8151930000000001,1.1986879,-6.634328999999999
1039,1715728698830,-0.7066026999999999,1.24396165,-6.737127,-0.7066026999999999,1.24396165,-6.737127
1040,1715728698840,-0.2518017,1.3424985000000003,-7.122086499999999,-0.2518017,1.3424985000000003,-7.122086499999999
1041,1715728698850,-0.12729901,1.3520858,-7.1838717,-0.12729901,1.3520858,-7.1838717
1042,1715728698860,0.2436457675,1.35954275,-7.12744615,0.2436457675,1.35954275,-7.12744615
1043,1715728698870,0.39454702,1.3723259,-6.999714399999999,0.39454702,1.3723259,-6.999714399999999
1044,1715728698880,0.39454702,1.3723259,-6.999714399999999,0.39454702,1.3723259,-6.999714399999999
1045,1715728698890,0.8121304,1.4074796,-6.48639,0.8121304,1.4074796,-6.48639
1046,1715728698900,0.88450173,1.4122732500000001,-6.39531,0.88450173,1.4122732500000001,-6.39531
1047,1715728698910,1.4978938,1.4745911,-5.600224,1.4978938,1.4745911,-5.600224
1048,1715728698920,1.583115,1.4767218,-5.499024,1.583115,1.4767218,-5.499024
1049,1715728698930,1.583115,1.4767218,-5.499024,1.583115,1.4767218,-5.499024
1050,1715728698940,2.1156137,1.3765869,-4.967591,2.1156137,1.3765869,-4.967591
1051,1715728698950,2.34724185,1.14975235,-4.654469799999999,2.34724185,1.14975235,-4.654469799999999
1052,1715728698960,2.788727,0.5468797,-3.8578522,2.788727,0.5468797,-3.8578522
1053,1715728698970,2.8824704,0.2625875,-3.8791574999999994,2.8824704,0.2625875,-3.8791574999999994
1054,1715728698980,2.8824704000000003,0.2625875,-3.8791575,2.8824704000000003,0.2625875,-3.8791575
1055,1715728698990,2.816157575,-0.039314882500000016,-3.8408080499999997,2.816157575,-0.039314882500000016,-3.8408080499999997
1056,1715728699000,2.297729233333333,-0.9493718700000001,-2.9732396333333333,2.297729233333333,-0.9493718700000001,-2.9732396333333333
1057,1715728699010,1.2881701,-2.4659522,-0.8418246000000001,1.2881701,-2.4659522,-0.8418246000000001
1058,1715728699020,0.9482844,-3.1776815333333333,0.9411604000000001,0.9482844,-3.1776815333333333,0.9411604000000001
1059,1715728699030,0.872850405,-3.35491475,1.5379078000000002,0.872850405,-3.35491475,1.5379078000000002
1060,1715728699040,1.0474205,-3.1188257,4.782501,1.0474205,-3.1188257,4.782501
1061,1715728699050,1.1922964,-2.6576996,5.7388415,1.1922964,-2.6576996,5.7388415
1062,1715728699060,1.5032202,-0.53942287,8.606797,1.5032202,-0.53942287,8.606797
1063,1715728699070,1.5032202000000001,-0.53942287,8.606797,1.5032202000000001,-0.53942287,8.606797
1064,1715728699080,1.5032202000000001,-0.53942287,8.606797,1.5032202000000001,-0.53942287,8.606797
1065,1715728699090,1.2395230666666666,0.4620581099999999,9.654795,1.2395230666666666,0.4620581099999999,9.654795
1066,1715728699100,0.63742715,1.2327764,10.374736,0.63742715,1.2327764,10.374736
1067,1715728699110,-0.26671538,1.4735259,9.950894,-0.26671538,1.4735259,9.950894
1068,1715728699120,-0.385172692,1.5272151800000002,9.8196532,-0.385172692,1.5272151800000002,9.8196532
1069,1715728699130,-0.7775980466666667,1.7827186666666668,9.273519283333334,-0.7775980466666667,1.7827186666666668,9.273519283333334
1070,1715728699140,-1.822666,2.433062,7.7292867,-1.822666,2.433062,7.7292867
1071,1715728699150,-2.1185696999999997,2.57215882,7.0479173799999995,-2.1185696999999997,2.57215882,7.0479173799999995
1072,1715728699160,-2.583131,2.8728828000000006,5.817671,-2.583131,2.8728828000000006,5.817671
1073,1715728699170,-2.6385248,2.9442556,5.628054,-2.6385248,2.9442556,5.628054
1074,1715728699180,-2.71812,3.004143375,5.3439615,-2.71812,3.004143375,5.3439615
1075,1715728699190,-2.9675581,2.5118916,3.4341438,-2.9675581,2.5118916,3.4341438
1076,1715728699200,-2.7940533,2.0145466,3.0720873,-2.7940533,2.0145466,3.0720873
1077,1715728699210,-1.623595,0.3563307,2.2807295,-1.623595,0.3563307,2.2807295
1078,1715728699220,-0.57883763,-0.4478102,1.8185382,-0.57883763,-0.4478102,1.8185382
1079,1715728699230,-0.32747979666666666,-0.5496760333333334,1.6950120333333334,-0.32747979666666666,-0.5496760333333334,1.6950120333333334
1080,1715728699240,1.1656648,-0.7683214,0.7269093,1.1656648,-0.7683214,0.7269093
1081,1715728699250,1.4251896000000002,-0.6369832566666667,0.25442048,1.4251896000000002,-0.6369832566666667,0.25442048
1082,1715728699260,1.6811192,-0.46059336999999995,-0.3476754,1.6811192,-0.46059336999999995,-0.3476754
1083,1715728699270,1.6529962399999998,-0.299525506,-0.861452072,1.6529962399999998,-0.299525506,-0.861452072
1084,1715728699280,1.6459655,-0.25925854,-0.9898962399999999,1.6459655,-0.25925854,-0.9898962399999999
1085,1715728699290,0.9675257,-0.04314318,-1.7715335,0.9675257,-0.04314318,-1.7715335
1086,1715728699300,0.65234084,-0.19179184000000002,-1.9629258666666665,0.65234084,-0.19179184000000002,-1.9629258666666665
1087,1715728699310,0.38602491999999994,-0.42543966000000005,-2.173138,0.38602491999999994,-0.42543966000000005,-2.173138
1088,1715728699320,0.3328949,-0.7438203,-2.5064323,0.3328949,-0.7438203,-2.5064323
1089,1715728699330,0.363221625,-0.8037413875,-2.6137243000000003,0.363221625,-0.8037413875,-2.6137243000000003
1090,1715728699340,0.56285868,-1.03783312,-3.25829518,0.56285868,-1.03783312,-3.25829518
1091,1715728699350,0.6539387075,-1.068725775,-3.5493252,0.6539387075,-1.068725775,-3.5493252
1092,1715728699360,0.6789724,-0.8375635,-4.6428185,0.6789724,-0.8375635,-4.6428185
1093,1715728699370,0.543524132,-0.76768222,-4.855818019999999,0.543524132,-0.76768222,-4.855818019999999
1094,1715728699380,0.19654114,-0.59688055,-5.29462665,0.19654114,-0.59688055,-5.29462665
1095,1715728699390,-0.26929865,-0.34511879999999995,-5.6379610399999995,-0.26929865,-0.34511879999999995,-5.6379610399999995
1096,1715728699400,-0.4797681166666667,-0.21771325333333333,-5.795522433333333,-0.4797681166666667,-0.21771325333333333,-5.795522433333333
1097,1715728699410,-0.9754086799999999,0.25555675,-6.47464588,-0.9754086799999999,0.25555675,-6.47464588
1098,1715728699420,-1.0623342,0.46605283,-6.7813354,-1.0623342,0.46605283,-6.7813354
1099,1715728699430,-1.0562977,0.5565558666666667,-6.8920784333333325,-1.0562977,0.5565558666666667,-6.8920784333333325
1100,1715728699440,-0.9153278,0.99961674,-7.3223557,-0.9153278,0.99961674,-7.3223557
1101,1715728699450,-0.8478610933333334,1.08048798,-7.363546166666667,-0.8478610933333334,1.08048798,-7.363546166666667
1102,1715728699460,-0.39135122,1.3797827,-7.4661665,-0.39135122,1.3797827,-7.4661665
1103,1715728699470,-0.21877852,1.4202627,-7.4544487,-0.21877852,1.4202627,-7.4544487
1104,1715728699480,-0.21877852,1.4202627,-7.4544487,-0.21877852,1.4202627,-7.4544487
1105,1715728699490,0.3845268875,1.4689985,-7.2387328,0.3845268875,1.4689985,-7.2387328
1106,1715728699500,0.5474789449999999,1.4431659,-7.12002255,0.5474789449999999,1.4431659,-7.12002255
1107,1715728699510,1.1954921,1.0282457,-6.328731,1.1954921,1.0282457,-6.328731
1108,1715728699520,1.3787174,0.56392395,-5.7152724,1.3787174,0.56392395,-5.7152724
1109,1715728699530,1.4450744666666668,0.19614167666666663,-5.231775933333334,1.4450744666666668,0.19614167666666663,-5.231775933333334
1110,1715728699540,1.5777886,-0.53942287,-4.264783,1.5777886,-0.53942287,-4.264783
1111,1715728699550,1.58844124,-0.591594156,-4.20086716,1.58844124,-0.591594156,-4.20086716
1112,1715728699560,1.827859275,-1.332777975,-3.0703560999999997,1.827859275,-1.332777975,-3.0703560999999997
1113,1715728699570,1.8718014,-1.3807149,-2.8354654,1.8718014,-1.3807149,-2.8354654
1114,1715728699580,1.8718014,-1.3807149,-2.8354654,1.8718014,-1.3807149,-2.8354654
1115,1715728699590,1.737578175,-1.0907967,-2.4600598750000002,1.737578175,-1.0907967,-2.4600598750000002
1116,1715728699600,1.4710291500000001,-0.71695574,-2.276601575,1.4710291500000001,-0.71695574,-2.276601575
1117,1715728699610,1.1475552,-0.32317436,-2.2326593,1.1475552,-0.32317436,-2.2326593
1118,1715728699620,1.0676605,-0.25073642,-2.202832,1.0676605,-0.25073642,-2.202832
1119,1715728699630,0.9485906519999998,-0.26565011600000005,-2.0733492,0.9485906519999998,-0.26565011600000005,-2.0733492
1120,1715728699640,0.1056941255,-0.6719483374999999,-0.878809175,0.1056941255,-0.6719483374999999,-0.878809175
1121,1715728699650,-0.016511586,-0.78749615,-0.6532729,-0.016511586,-0.78749615,-0.6532729
1122,1715728699660,-0.377502813,-1.330114825,0.94422305,-0.377502813,-1.330114825,0.94422305
1123,1715728699670,-0.7896266479999999,-2.11731806,4.004538999999999,-0.7896266479999999,-2.11731806,4.004538999999999
1124,1715728699680,-0.81785615,-2.053029375,5.63844025,-0.81785615,-2.053029375,5.63844025
1125,1715728699690,-0.8599340999999999,-1.6980302,8.020103,-0.8599340999999999,-1.6980302,8.020103
1126,1715728699700,-0.9085101,-1.43224692,8.6769454,-0.9085101,-1.43224692,8.6769454
1127,1715728699710,-1.2199932,-0.43609232,10.654901,-1.2199932,-0.43609232,10.654901
1128,1715728699720,-1.5275348000000002,0.11518161600000001,11.532464200000001,-1.5275348000000002,0.11518161600000001,11.532464200000001
1129,1715728699730,-1.6044202000000003,0.2530001,11.751855,-1.6044202000000003,0.2530001,11.751855
1130,1715728699740,-2.5426512,0.8771114299999999,12.520709000000002,-2.5426512,0.8771114299999999,12.520709000000002
1131,1715728699750,-2.6751167199999997,0.81021287,12.455941,-2.6751167199999997,0.81021287,12.455941
1132,1715728699760,-3.2434614,0.44581282,11.728419,-3.2434614,0.44581282,11.728419
1133,1715728699770,-3.2796805,0.50746495,11.063828,-3.2796805,0.50746495,11.063828
1134,1715728699780,-3.2437278000000003,0.5535376125,10.917920250000002,-3.2437278000000003,0.5535376125,10.917920250000002
1135,1715728699790,-2.8313377,0.9143957,10.05529,-2.8313377,0.9143957,10.05529
1136,1715728699800,-2.75250814,0.94124034,9.985408799999998,-2.75250814,0.94124034,9.985408799999998
1137,1715728699810,-1.7365129,0.6736461,9.41733,-1.7365129,0.6736461,9.41733
1138,1715728699820,-0.7821698,0.020772642,9.282042,-0.7821698,0.020772642,9.282042
1139,1715728699830,-0.621368259,-0.07315697839999999,9.2618018,-0.621368259,-0.07315697839999999,9.2618018
1140,1715728699840,0.9643299,-1.0474205,8.548341,0.9643299,-1.0474205,8.548341
1141,1715728699850,0.974216875,-1.1959582000000002,8.023266,0.974216875,-1.1959582000000002,8.023266
1142,1715728699860,0.8984167,-1.4936328,6.840058,0.8984167,-1.4936328,6.840058
1143,1715728699870,0.8920251,-1.5618097,6.652571,0.8920251,-1.5618097,6.652571
1144,1715728699880,1.08414542,-1.7121716599999999,6.3466808,1.08414542,-1.7121716599999999,6.3466808
1145,1715728699890,1.9687402999999999,-1.8769945,5.5162015,1.9687402999999999,-1.8769945,5.5162015
1146,1715728699900,2.2232495333333335,-1.7310978,4.9982614666666665,2.2232495333333335,-1.7310978,4.9982614666666665
1147,1715728699910,2.732268,-1.4393044,3.9623814,2.732268,-1.4393044,3.9623814
1148,1715728699920,2.6459818,-1.3104074,2.460759,2.6459818,-1.3104074,2.460759
1149,1715728699930,2.5409202,-1.2816453,2.1717618333333335,2.5409202,-1.2816453,2.1717618333333335
1150,1715728699940,1.6012244000000002,-0.92811096,0.5330313,1.6012244000000002,-0.92811096,0.5330313
1151,1715728699950,0.8873202333333333,-0.46054899,-0.08961530000000002,0.8873202333333333,-0.46054899,-0.08961530000000002
1152,1715728699960,-0.5404881,0.47457495,-1.3349085,-0.5404881,0.47457495,-1.3349085
1153,1715728699970,-1.0910963,0.9484841000000002,-1.7555544,-1.0910963,0.9484841000000002,-1.7555544
1154,1715728699980,-1.0910963,0.9484841,-1.7555544,-1.0910963,0.9484841,-1.7555544
1155,1715728699990,-1.5135177000000002,1.2853737,-2.0970601666666666,-1.5135177000000002,1.2853737,-2.0970601666666666
1156,1715728700000,-2.6438513,2.0539615,-3.140131,-2.6438513,2.0539615,-3.140131
1157,1715728700010,-2.6438513,2.0539615,-3.140131,-2.6438513,2.0539615,-3.140131
1158,1715728700020,-2.6438513,2.0539615,-3.140131,-2.6438513,2.0539615,-3.140131
1159,1715728700030,-2.6438513,2.0539615,-3.140131,-2.6438513,2.0539615,-3.140131
1160,1715728700040,-2.6438513,2.0539615,-3.140131,-2.6438513,2.0539615,-3.140131
1161,1715728700050,-2.6438513,2.0539615,-3.140131,-2.6438513,2.0539615,-3.140131
1162,1715728700060,-2.6438513,2.0539615,-3.140131,-2.6438513,2.0539615,-3.140131
1163,1715728700070,-2.1220052,0.8877641,-3.8738313,-2.1220052,0.8877641,-3.8738313
1164,1715728700080,-0.84075934,-0.8396941,-5.570397,-0.84075934,-0.8396941,-5.570397
1165,1715728700090,-1.2040142,0.3765707,-7.959250499999999,-1.2040142,0.3765707,-7.959250499999999
1166,1715728700100,-1.2040142,0.3765707,-7.959250499999999,-1.2040142,0.3765707,-7.959250499999999
1167,1715728700110,-1.19908738,0.9767136000000001,-8.4740662,-1.19908738,0.9767136000000001,-8.4740662
1168,1715728700120,-1.0795914,1.17397378,-8.646185599999999,-1.0795914,1.17397378,-8.646185599999999
1169,1715728700130,-0.7715172,1.4074796,-8.884698,-0.7715172,1.4074796,-8.884698
1170,1715728700140,-0.48509443,1.3062795,-8.97418,-0.48509443,1.3062795,-8.97418
1171,1715728700150,-0.31638330000000003,1.22151114,-9.0005988,-0.31638330000000003,1.22151114,-9.0005988
1172,1715728700160,0.12410321,1.0028125,-9.040227,0.12410321,1.0028125,-9.040227
1173,1715728700170,0.26791382,0.9452883,-9.0104,0.26791382,0.9452883,-9.0104
1174,1715728700180,0.6384924,0.8835029999999999,-8.884698,0.6384924,0.8835029999999999,-8.884698
1175,1715728700190,0.9536773,0.899482,-8.692951,0.9536773,0.899482,-8.692951
1176,1715728700200,0.9536773000000001,0.8994820000000001,-8.692951,0.9536773000000001,0.8994820000000001,-8.692951
1177,1715728700210,1.6129423,0.9719199,-8.050863,1.6129423,0.9719199,-8.050863
1178,1715728700220,1.8664417500000001,0.904009365,-7.724426375,1.8664417500000001,0.904009365,-7.724426375
1179,1715728700230,2.4351926,0.70453876,-6.956038500000001,2.4351926,0.70453876,-6.956038500000001
1180,1715728700240,2.629004,0.514455765,-6.5545006,2.629004,0.514455765,-6.5545006
1181,1715728700250,3.01104764,0.027803379599999994,-5.657082539999999,3.01104764,0.027803379599999994,-5.657082539999999
1182,1715728700260,3.2202920749999997,-0.545481572,-4.858201375,3.2202920749999997,-0.545481572,-4.858201375
1183,1715728700270,3.1287126499999998,-0.97601452,-4.289517050000001,3.1287126499999998,-0.97601452,-4.289517050000001
1184,1715728700280,2.54163912,-1.59118428,-3.4466072199999997,2.54163912,-1.59118428,-3.4466072199999997
1185,1715728700290,1.8771276,-1.8450366,-2.9515793,1.8771276,-1.8450366,-2.9515793
1186,1715728700300,1.241032075,-1.75718565,-2.308859125,1.241032075,-1.75718565,-2.308859125
1187,1715728700310,-0.6672545,-1.4936328,-0.38069859999999994,-0.6672545,-1.4936328,-0.38069859999999994
1188,1715728700320,-0.91639304,-1.3508874,0.0037284228,-0.91639304,-1.3508874,0.0037284228
1189,1715728700330,-0.91639304,-1.3508874,0.0037284228,-0.91639304,-1.3508874,0.0037284228
1190,1715728700340,-2.09473444,0.681981806,4.115939,-2.09473444,0.681981806,4.115939
1191,1715728700350,-2.1143352799999997,1.0945850160000001,4.912356600000001,-2.1143352799999997,1.0945850160000001,4.912356600000001
1192,1715728700360,-1.8492976000000003,2.2700768,7.715438399999999,-1.8492976000000003,2.2700768,7.715438399999999
1193,1715728700370,-1.59539875,2.3672820999999997,8.849711,-1.59539875,2.3672820999999997,8.849711
1194,1715728700380,-1.2359722,2.2722073,10.108553,-1.2359722,2.2722073,10.108553
1195,1715728700390,-0.965821272,1.9322817,10.611996999999999,-0.965821272,1.9322817,10.611996999999999
1196,1715728700400,-0.6850310825,1.5070484499999999,10.74215225,-0.6850310825,1.5070484499999999,10.74215225
1197,1715728700410,-0.2954775,0.8526104,10.583528,-0.2954775,0.8526104,10.583528
1198,1715728700420,-0.1610678609,0.5166528539999999,10.168980000000001,-0.1610678609,0.5166528539999999,10.168980000000001
1199,1715728700430,0.0015978955,0.14860427,9.486572,0.0015978955,0.14860427,9.486572
1200,1715728700440,0.16777903,-0.03249054,8.886962,0.16777903,-0.03249054,8.886962
1201,1715728700450,0.16777903000000002,-0.03249054,8.886962,0.16777903000000002,-0.03249054,8.886962
1202,1715728700460,0.16777903000000002,-0.03249054,8.886962,0.16777903000000002,-0.03249054,8.886962
1203,1715728700470,0.16777903000000002,-0.03249054,8.886962,0.16777903000000002,-0.03249054,8.886962
1204,1715728700480,0.16777903000000002,-0.03249054,8.886962,0.16777903000000002,-0.03249054,8.886962
1205,1715728700490,0.16777903000000002,-0.03249054,8.886962,0.16777903000000002,-0.03249054,8.886962
1206,1715728700500,0.16777903,-0.03249054,8.886962,0.16777903,-0.03249054,8.886962
1207,1715728700510,0.16777903000000002,-0.03249054,8.886962,0.16777903000000002,-0.03249054,8.886962
1208,1715728700520,0.16777903,-0.03249054,8.886962,0.16777903,-0.03249054,8.886962
1209,1715728700530,0.16777903,-0.03249054,8.886962,0.16777903,-0.03249054,8.886962
1210,1715728700540,0.16777903000000002,-0.03249054,8.886962,0.16777903000000002,-0.03249054,8.886962
1211,1715728700550,0.16777903,-0.03249054,8.886962,0.16777903,-0.03249054,8.886962
1212,1715728700560,0.16777903000000002,-0.03249054,8.886962,0.16777903000000002,-0.03249054,8.886962
1213,1715728700570,0.16777903,-0.03249054,8.886962,0.16777903,-0.03249054,8.886962
1214,1715728700580,0.16777903,-0.03249054,8.886962,0.16777903,-0.03249054,8.886962
1215,1715728700590,0.231162205,-0.09367661999999999,8.685694,0.231162205,-0.09367661999999999,8.685694
1216,1715728700600,0.5916208,-0.29760802,8.173368,0.5916208,-0.29760802,8.173368
1217,1715728700610,3.200851,-1.474458,9.51853,3.200851,-1.474458,9.51853
1218,1715728700620,3.5038519,-2.42493955,4.8548723,3.5038519,-2.42493955,4.8548723
1219,1715728700630,-2.5213459,1.73924265,-1.7976989250000002,-2.5213459,1.73924265,-1.7976989250000002
1220,1715728700640,-2.3466427,0.5309008,-3.4297495,-2.3466427,0.5309008,-3.4297495
1221,1715728700650,-1.92748806,0.27318688199999996,-3.54349298,-1.92748806,0.27318688199999996,-3.54349298
1222,1715728700660,-0.8908267,-0.3657849,-3.9281597,-0.8908267,-0.3657849,-3.9281597
1223,1715728700670,-0.73242202,-0.451005988,-4.12075914,-0.73242202,-0.451005988,-4.12075914
1224,1715728700680,-0.5468797,-0.5447492,-5.007005,-0.5468797,-0.5447492,-5.007005
1225,1715728700690,-0.5468797,-0.5447492,-5.007005,-0.5468797,-0.5447492,-5.007005
1226,1715728700700,-0.7252004166666667,-0.42135615833333334,-5.500466666666667,-0.7252004166666667,-0.42135615833333334,-5.500466666666667
1227,1715728700710,-1.2305459399999998,-0.028462514999999994,-6.52893445,-1.2305459399999998,-0.028462514999999994,-6.52893445
1228,1715728700720,-1.4787190666666667,0.18872920999999998,-7.037619866666667,-1.4787190666666667,0.18872920999999998,-7.037619866666667
1229,1715728700730,-1.5245254,0.2359559,-7.137,-1.5245254,0.2359559,-7.137
1230,1715728700740,-1.78591452,0.5698894400000001,-8.0291051,-1.78591452,0.5698894400000001,-8.0291051
1231,1715728700750,-1.7875457000000001,0.63902502,-8.5055315,-1.7875457000000001,0.63902502,-8.5055315
1232,1715728700760,-1.6662055,0.6981471999999999,-9.081772,-1.6662055,0.6981471999999999,-9.081772
1233,1715728700770,-1.565804425,0.70746824,-9.2039445,-1.565804425,0.70746824,-9.2039445
1234,1715728700780,-1.3423654,0.71519136,-9.452351,-1.3423654,0.71519136,-9.452351
1235,1715728700790,-1.0186584,0.7141261,-9.585508,-1.0186584,0.7141261,-9.585508
1236,1715728700800,-0.97498258,0.71945242,-9.5840168,-0.97498258,0.71945242,-9.5840168
1237,1715728700810,-0.45526704,0.8057388,-9.476851,-0.45526704,0.8057388,-9.476851
1238,1715728700820,-0.336010776,0.836418388,-9.4056918,-0.336010776,0.836418388,-9.4056918
1239,1715728700830,0.37643754,0.91119987,-8.698277,0.37643754,0.91119987,-8.698277
1240,1715728700840,0.48829022,0.8728504000000001,-8.516251,0.48829022,0.8728504000000001,-8.516251
1241,1715728700850,0.800572252,0.588265216,-7.757516720000001,0.800572252,0.588265216,-7.757516720000001
1242,1715728700860,1.49818678,-0.068656244,-6.10441342,1.49818678,-0.068656244,-6.10441342
1243,1715728700870,2.0040604749999997,-0.62534303,-5.07065485,2.0040604749999997,-0.62534303,-5.07065485
1244,1715728700880,2.4660854,-1.8088176,-4.2903495,2.4660854,-1.8088176,-4.2903495
1245,1715728700890,2.46523324,-1.95113688,-4.1778575,2.46523324,-1.95113688,-4.1778575
1246,1715728700900,2.40749596,-2.1279440000000003,-3.93716116,2.40749596,-2.1279440000000003,-3.93716116
1247,1715728700910,1.4012478800000001,-2.93733128,-1.1834546559999999,1.4012478800000001,-2.93733128,-1.1834546559999999
1248,1715728700920,1.0080057,-2.9984508,-0.70760137,1.0080057,-2.9984508,-0.70760137
1249,1715728700930,-0.09321057,-2.227333,2.1550283,-0.09321057,-2.227333,2.1550283
1250,1715728700940,-0.38282913,-1.7246618000000002,3.245592,-0.38282913,-1.7246618000000002,3.245592
1251,1715728700950,-0.6751774150000001,-0.784300335,4.8841005,-0.6751774150000001,-0.784300335,4.8841005
1252,1715728700960,-1.1976227,1.2338417,8.443946,-1.1976227,1.2338417,8.443946
1253,1715728700970,-1.2734228,1.558913525,9.08130575,-1.2734228,1.558913525,9.08130575
1254,1715728700980,-1.49299358,2.32166216,10.920204600000002,-1.49299358,2.32166216,10.920204600000002
1255,1715728700990,-1.5777886,2.549176,11.575022,-1.5777886,2.549176,11.575022
1256,1715728701000,-1.6291875500000002,2.566220175,11.77336075,-1.6291875500000002,2.566220175,11.77336075
1257,1715728701010,-1.8535588,2.1528978,11.891272,-1.8535588,2.1528978,11.891272
1258,1715728701020,-1.8535588,2.1528978,11.891272,-1.8535588,2.1528978,11.891272
1259,1715728701030,-1.8535588,2.1528978,11.891272,-1.8535588,2.1528978,11.891272
1260,1715728701040,-1.8535588,2.1528978,11.891272,-1.8535588,2.1528978,11.891272
1261,1715728701050,-1.8535588,2.1528978,11.891272,-1.8535588,2.1528978,11.891272
1262,1715728701060,-1.8535588,2.1528978,11.891272,-1.8535588,2.1528978,11.891272
1263,1715728701070,-1.8535588,2.1528978,11.891272,-1.8535588,2.1528978,11.891272
1264,1715728701080,-1.8514282333333334,2.0378937,11.757093,-1.8514282333333334,2.0378937,11.757093
1265,1715728701090,-1.3359737,0.15925692,8.788958,-1.3359737,0.15925692,8.788958
1266,1715728701100,2.7961838,-1.870603,7.9519267,2.7961838,-1.870603,7.9519267
