id,timestamp,acc_x,acc_y,acc_z,gyro_x,gyro_y,gyro_z
0,1715789499.894144,0.24698594,-0.020988923,1.2215371,0.6475935,0.09010262,0.3675118
1,1715789499.9112558,0.24600971,-0.020256752,1.1654038,0.6475935,0.09010262,0.3675118
2,1715789499.9126968,0.21623473,0.007565775,1.0082309,0.82291186,-0.21166481,0.37362045
3,1715789499.9257834,0.21623473,0.019280521,0.93257326,0.87300277,-0.54825157,0.4285983
4,1715789499.9287863,0.20451997,0.019280521,0.93257326,0.87300277,-0.54825157,0.4285983
5,1715789499.9347866,0.23795582,-0.002928687,0.8976731,0.8668941,-0.95569867,0.55199313
6,1715789499.9582942,0.23307467,0.026358182,0.86204064,1.166829,-1.162782,0.6497315
7,1715789499.9654431,0.23307467,0.026358182,0.86204064,1.4496596,-1.2434162,0.5910885
8,1715789499.977966,0.22746135,0.022209208,0.7361072,1.4496596,-1.2434162,0.5910885
9,1715789499.9807773,0.22746135,0.022209208,0.7361072,1.5675566,-1.6325374,0.57276255
10,1715789499.982313,0.28359452,0.028554698,0.5452544,1.320767,-2.047315,0.5238933
11,1715789500.0178905,0.44955346,0.102259986,0.49421594,0.88949615,-2.078469,0.393779
12,1715789500.0190783,0.6057806,0.1398448,0.6162751,0.1998293,-1.2244794,-0.07658723
13,1715789500.0215738,0.5567251,0.10128376,0.6931531,0.031841353,-0.86101454,-0.35697436
14,1715789500.04949,0.4556549,0.057841565,0.63604367,0.031841353,-0.86101454,-0.35697436
15,1715789500.0513947,0.37975308,-0.002928687,0.52328926,-0.43241623,-0.49877146,-0.58238363
16,1715789500.0689175,0.24234885,-0.108117364,0.34973404,-1.0212903,-0.37415496,-0.48525608
17,1715789500.0828693,0.24942651,-0.2511349,0.1952458,-2.0866394,-0.74189585,-0.049098294
18,1715789500.095691,0.24942651,-0.2511349,0.27017137,-2.5350144,-1.1157454,0.09812023
19,1715789500.0975733,0.2796896,-0.18621568,0.27017137,-2.5350144,-1.1157454,0.09812023
20,1715789500.1143563,0.53573614,0.11324256,0.29774985,-2.9791133,-1.2916746,-0.39851323
21,1715789500.1371772,0.29897013,0.3265486,0.43539813,-2.5698338,-0.6270532,-1.052139
22,1715789500.1629717,0.29897013,0.3265486,0.43539813,-2.5698338,-1.0864239,-1.043587
23,1715789500.1647635,0.5428138,-0.24015234,0.3372871,-2.505693,-1.6374242,-0.9000336
24,1715789500.1842332,0.63043034,-0.13276714,0.38902727,-2.6443594,-1.4199562,-0.77908224
25,1715789500.1855597,0.7265889,-0.09518232,0.4195344,-2.6443594,-1.4199562,-0.77908224
26,1715789500.1878545,0.7265889,-0.09518232,0.4195344,-3.108006,-0.97585726,-0.51396674
27,1715789500.1946993,0.7265889,-0.09518232,0.4195344,-2.985833,-1.3588698,-0.59093577
28,1715789500.1970103,0.87595195,-0.023429496,0.7815018,-2.985833,-1.3588698,-0.59093577
29,1715789500.2098742,1.127331,0.12007617,1.0004212,-2.985833,-1.3588698,-0.59093577
30,1715789500.2116582,1.127331,0.12007617,1.0004212,-1.8135825,-2.798679,-0.9678396
31,1715789500.2138834,1.6230417,0.21599068,1.2154356,-1.8135825,-2.798679,-0.9678396
32,1715789500.223749,2.3161643,0.3104408,1.1475877,-1.1654545,-3.6551123,-1.5524377
33,1715789500.2382982,2.3161643,0.3104408,1.1475877,-1.1654545,-4.42297,-2.099773
34,1715789500.240801,2.5626926,0.35827604,1.0968238,-0.8807913,-4.42297,-2.099773
35,1715789500.2542756,2.888509,0.4742032,1.1422184,-0.8704066,-5.1731124,-2.5414286
36,1715789500.256594,3.1647818,0.5428138,1.3850554,-0.8789587,-5.733276,-2.7668378
37,1715789500.2596502,3.1647818,0.5428138,1.3850554,-0.7946593,-6.5475593,-2.9574277
38,1715789500.2610805,3.4322684,0.6255492,1.7096821,-0.7946593,-6.5475593,-2.9574277
39,1715789500.2730558,4.370211,0.53500396,2.230256,-0.5032766,-7.462635,-3.3612096
40,1715789500.2823913,4.9652534,0.3863426,2.5834374,-0.5032766,-7.462635,-3.3612096
41,1715789500.2837236,4.9652534,0.3863426,2.5834374,-0.21922426,-7.8212132,-4.058818
42,1715789500.3182714,5.421884,0.4036707,2.7496405,-0.21922426,-7.8212132,-4.058818
43,1715789500.320089,5.6010528,0.34387666,2.6866736,-0.08972083,-6.507853,-5.663561
44,1715789500.3218293,5.495864,0.23039004,2.68765,-0.48617238,-5.254968,-6.424699
45,1715789500.3328748,5.495864,0.23039004,2.4582057,-1.4782175,-2.5525005,-7.377649
46,1715789500.3354316,5.173922,-0.12666571,2.4582057,-1.4782175,-2.5525005,-7.377649
47,1715789500.3460135,4.8930125,-0.34949,2.4333117,-1.7818176,-1.2006557,-7.913988
48,1715789500.3623626,4.529367,-0.590405,2.3588743,-1.9058232,-0.28863382,-8.4234495
49,1715789500.364212,3.9975357,-0.86570156,2.2607634,-1.897882,0.22571471,-8.924971
50,1715789500.3783298,3.1940687,-1.2532645,2.2995684,-1.4098006,0.18967366,-9.625632
51,1715789500.3853993,2.5680618,-1.3828589,2.3998759,-0.7409032,-0.10842858,-9.787512
52,1715789500.4027035,2.0350103,-1.4380158,2.4501517,0.15096007,-0.4279111,-9.621357
53,1715789500.404821,2.0350103,-1.4380158,2.4501517,0.94936097,-0.68691796,-9.399612
54,1715789500.417799,1.9942529,-1.3850554,2.225375,0.94936097,-0.68691796,-9.399612
55,1715789500.420186,1.9591085,-1.4326465,2.025004,1.9090302,-0.623388,-9.298209
56,1715789500.422101,1.9591085,-1.4326465,2.025004,2.6096926,-0.37782016,-9.3006525
57,1715789500.4514103,2.0350103,-1.705533,1.5913143,3.582801,-0.25320363,-9.536447
58,1715789500.4594576,2.0350103,-1.705533,1.5913143,3.9163334,-0.57818395,-9.697715
59,1715789500.4660006,2.1253114,-1.7684999,1.5210258,4.5278096,-1.4052955,-9.933509
60,1715789500.4728343,2.1253114,-1.7684999,1.4036037,4.8320203,-1.9306396,-10.199235
61,1715789500.4752975,2.2451437,-1.735064,1.4036037,4.8320203,-1.9306396,-10.199235
62,1715789500.4837906,2.412567,-1.7638626,1.2642471,5.011004,-2.2061398,-10.437472
63,1715789500.5002935,2.4135432,-1.6969911,0.97284275,4.8631744,-2.0790799,-10.56942
64,1715789500.5067554,2.3849885,-1.5925345,0.6558123,4.8631744,-2.0790799,-10.56942
65,1715789500.5101168,2.3849885,-1.5925345,0.6558123,4.40808,-1.6899587,-10.513831
66,1715789500.5121267,2.4118347,-1.4758446,0.25040275,4.40808,-1.6899587,-10.513831
67,1715789500.513643,2.4118347,-1.4758446,0.25040275,3.3433418,-0.7021896,-10.238941
68,1715789500.5285962,2.5285246,-1.3550363,0.5110864,2.4490352,0.043066,-10.06179
69,1715789500.5310807,2.5285246,-1.3550363,0.5110864,1.9047542,0.23548855,-10.009867
70,1715789500.547966,2.485296,-1.3357558,0.79614526,1.8277851,-0.10170906,-9.919459
71,1715789500.5566962,2.4572294,-1.3438097,0.9154892,1.978058,-0.5036584,-9.879753
72,1715789500.5597339,2.3503323,-1.3970143,0.87253517,1.978058,-0.5036584,-9.879753
73,1715789500.5675464,2.3503323,-1.3970143,0.87253517,2.1765893,-0.95325524,-9.753915
74,1715789500.5744681,2.204386,-1.460225,0.74440515,2.218128,-0.9025534,-9.511401
75,1715789500.5826452,2.0569754,-1.4795055,0.6121261,2.1124485,-0.51893,-9.191918
76,1715789500.5970395,1.8954096,-1.5359132,0.530855,2.000049,-0.03268129,-8.81868
77,1715789500.604329,1.7833872,-1.6762462,0.54989153,2.0140991,0.12370021,-8.6030445
78,1715789500.612258,1.534937,-1.9283574,0.67216414,2.2437844,0.11453723,-8.356866
79,1715789500.623821,1.1322122,-2.4237936,0.7221959,2.2437844,0.11453723,-8.356866
80,1715789500.6261594,1.1322122,-2.4237936,0.7221959,2.9462795,-0.26542094,-8.199873
81,1715789500.6338673,0.53671235,-3.0920527,0.45004156,2.9462795,-0.26542094,-8.199873
82,1715789500.636429,0.53671235,-3.0920527,0.45004156,3.5992944,-0.7473936,-8.108244
83,1715789500.6656015,0.53671235,-3.6612248,0.09152147,3.664046,-0.9282097,-8.000731
84,1715789500.6678867,-1.3582091,-4.928157,-0.40220633,2.9701033,-0.94897914,-7.1461306
85,1715789500.680541,-2.5058272,-5.424081,-0.21501444,2.2340105,-0.677755,-5.282992
86,1715789500.6830628,-3.2563033,-5.6889133,0.14472595,2.1258874,-0.52687126,-2.9274952
87,1715789500.7135475,-3.2563033,-5.6889133,0.14472595,2.1301634,-0.038179077,-0.32704198
88,1715789500.7152162,-2.7015612,-5.319136,0.21086545,2.0122664,2.1529946,4.890358
89,1715789500.7516763,-0.78174585,-4.320423,-1.0114038,-2.3065507,5.5213056,9.375941
90,1715789500.7733796,-0.60163164,-4.228414,-0.91744167,-3.6351826,5.736941,10.082713
91,1715789500.7754264,-0.40196228,-4.1966863,-0.5118186,-5.3804245,5.1816645,11.494422
92,1715789500.784932,0.25650415,-4.310173,-0.16571487,-6.087196,4.3887615,12.569545
93,1715789500.813785,0.25650415,-4.310173,-0.16571487,-6.087196,2.4217753,13.944603
94,1715789500.815813,2.6979003,-4.4104805,0.8315336,-6.3071074,0.732122,14.396643
95,1715789500.817063,3.3627124,-4.37436,1.2110425,-6.3071074,0.732122,14.396643
96,1715789500.8248456,3.3627124,-4.37436,1.2110425,-5.6162186,-0.26297748,14.601283
97,1715789500.833482,3.3627124,-4.37436,1.2110425,-4.5691957,-0.7156286,14.608613
98,1715789500.835642,4.19571,-4.2918687,1.4914644,-4.5691957,-0.7156286,14.608613
99,1715789500.8476954,4.19571,-4.2918687,1.4914644,-4.5691957,-0.4859433,14.394199
100,1715789500.8499713,4.7885556,-4.071241,1.4140981,-3.8025599,-0.4859433,14.394199
101,1715789500.8780882,5.4394565,-3.1320782,0.88571423,-3.5447748,0.52198434,11.760149
102,1715789500.8865256,4.901066,-3.004192,1.2588778,-3.3596826,0.14263703,10.9586935
103,1715789500.8985598,4.507402,-2.8733773,1.6745377,-2.5289059,-0.82619524,10.522535
104,1715789500.9146957,3.6602485,-2.8946104,1.4953692,0.16073392,-2.9788845,10.7174015
105,1715789500.9289186,3.6190028,-2.9231653,0.98040843,1.0770317,-2.86282,11.753429
106,1715789500.9374056,3.9797194,-2.867032,0.5225571,1.0770317,-2.86282,11.753429
107,1715789500.965511,4.8510346,-1.9952291,0.31361356,-0.9919688,0.5323691,10.633102
108,1715789500.980288,4.8510346,-1.6352446,0.61188203,-1.3560445,1.3655893,9.693591
109,1715789500.9827235,4.5647554,-1.1256225,0.8593561,-1.2815189,1.6307048,8.900688
110,1715789500.9964423,4.571589,-0.573321,0.9477048,-1.2815189,1.6307048,8.900688
111,1715789500.9989736,4.571589,-0.573321,0.9477048,-0.9143889,1.3087788,7.8212895
112,1715789501.0182362,4.571589,-0.573321,0.9477048,-0.9143889,0.09315695,5.5109973
113,1715789501.0212367,4.0954027,0.268463,0.24820623,-0.7421249,0.09315695,5.5109973
114,1715789501.0352404,3.554816,0.2865232,-0.5418376,-1.5502996,0.34300083,4.7156506
115,1715789501.0512528,3.416893,-0.004148973,-0.63775206,-4.464738,2.4901922,3.7773616
116,1715789501.0677776,2.6556783,-0.6411689,0.6738726,-7.219129,4.2598686,4.1188354
117,1715789501.0807786,2.9104743,-0.48006064,1.9798535,-6.666907,3.1963525,4.7290897
118,1715789501.0837831,3.866477,0.030507157,2.956845,-4.5355983,0.50488013,5.5604773
119,1715789501.111293,5.129992,0.68021804,3.4659486,-4.5355983,0.50488013,5.5604773
120,1715789501.1133664,7.988726,2.3137236,2.1082275,0.9194285,-3.45597,5.307579
121,1715789501.1145344,7.988726,2.3137236,2.1082275,3.4313064,-3.719253,3.1420617
122,1715789501.135255,7.9950714,2.7547655,0.99798054,3.4313064,-3.719253,3.1420617
123,1715789501.1374497,7.9950714,2.7547655,0.99798054,4.1154757,-2.5677722,0.20441078
124,1715789501.1497915,7.9950714,2.4699204,0.40171823,4.1154757,-2.5677722,0.20441078
125,1715789501.1523077,7.609949,1.7860719,-0.08029483,3.3946545,0.26542094,-4.0979133
126,1715789501.1533163,6.809411,1.2823073,-0.2945771,2.8418214,0.7797695,-4.7894125
127,1715789501.1707904,5.8263173,0.81884265,-0.40171823,2.8418214,0.7797695,-4.7894125
128,1715789501.172339,5.1524453,0.5823511,-0.3436326,0.86994845,1.3686435,-5.4570885
129,1715789501.1832597,4.87422,0.4742032,-0.17108414,0.26030496,1.9850066,-5.658674
130,1715789501.1966414,4.87422,0.4742032,-0.17108414,0.26030496,2.9862146,-6.080782
131,1715789501.1986434,4.7294936,0.34949,-0.0690682,-0.15874861,2.9862146,-6.080782
132,1715789501.205834,4.540838,0.26943922,0.041245673,-0.2766456,3.6771033,-6.556035
133,1715789501.214007,4.269171,0.23649146,0.16132185,-0.23938282,4.007581,-6.9243865
134,1715789501.2439368,3.8972282,0.07858644,0.33631086,-0.23938282,4.007581,-6.9243865
135,1715789501.245937,3.5867875,-0.49519217,0.61237013,1.4380531,2.627026,-8.981781
136,1715789501.2658505,3.712721,-0.9369663,0.6924209,1.950569,2.1126773,-9.378232
137,1715789501.2686124,3.53041,-1.4092171,0.7998061,2.667114,1.598329,-9.863871
138,1715789501.2750933,3.4500847,-1.8119421,0.8534987,2.667114,1.598329,-9.863871
139,1715789501.2780857,3.4500847,-1.8119421,0.8534987,3.211395,1.6807957,-9.928011
140,1715789501.304367,3.8110762,-2.3891375,0.9977366,4.0739365,1.2287555,-10.12532
141,1715789501.306976,3.870382,-2.4745574,1.0907223,4.5333076,0.72295904,-10.334847
142,1715789501.3204145,3.870382,-2.4745574,1.0907223,5.5021396,-1.1389582,-11.077048
143,1715789501.3224175,3.892835,-2.6090634,0.77393603,5.5021396,-1.1389582,-11.077048
144,1715789501.3394365,3.892835,-2.6090634,0.77393603,5.29078,-1.539075,-11.165013
145,1715789501.3423672,3.8684294,-2.6122363,0.5699042,5.29078,-1.539075,-11.165013
146,1715789501.3487263,3.8684294,-2.6122363,0.5699042,4.580344,-1.7137824,-11.041007
147,1715789501.3508992,3.7561631,-2.408418,0.2723679,4.580344,-1.7137824,-11.041007
148,1715789501.3524086,3.8166893,-2.110668,0.05588911,4.580344,-1.7137824,-11.041007
149,1715789501.3537977,3.8166893,-2.110668,0.05588911,3.8925097,-1.2837334,-10.790553
150,1715789501.3735354,4.2911363,-2.0662498,0.15839316,3.8925097,-1.2837334,-10.790553
151,1715789501.3755367,4.4092603,-1.952519,0.27041543,1.9969949,-0.34605515,-10.835757
152,1715789501.389493,4.4092603,-1.952519,0.27041543,1.9969949,-0.28985557,-11.004355
153,1715789501.391255,4.4265885,-1.9015111,0.46492904,1.4459944,-0.28985557,-11.004355
154,1715789501.3994272,4.275273,-1.8365917,0.6253052,1.1246793,-0.36682457,-11.048338
155,1715789501.406221,4.275273,-1.8365917,0.6253052,0.9835694,-0.4083634,-11.001301
156,1715789501.4082727,4.092962,-1.7521479,0.77271575,0.9835694,-0.4083634,-11.001301
157,1715789501.4149528,3.913092,-1.6982114,0.9020661,0.9835694,-0.4083634,-11.001301
158,1715789501.4169934,3.913092,-1.6982114,0.9020661,0.95791304,-0.38759398,-10.893178
159,1715789501.4442816,3.760312,-1.585701,1.1424625,1.7544813,-0.5036584,-10.767951
160,1715789501.4463727,3.3668613,-1.6469593,1.0272675,2.150322,-0.57879484,-10.724579
161,1715789501.4612975,2.7877133,-1.9893718,0.72829735,2.7953956,-0.8371908,-10.457021
162,1715789501.4790096,1.6506202,-2.8211493,0.36413342,2.7275896,-0.9801333,-10.300639
163,1715789501.486252,1.6506202,-2.8211493,0.36413342,2.5394433,-0.6973027,-10.045298
164,1715789501.4973297,1.1373372,-3.5245526,0.2135501,2.276771,-0.3930918,-9.611583
165,1715789501.5123065,1.1373372,-4.103213,-0.035144243,1.8760436,-0.2764165,-9.30615
166,1715789501.5138516,0.1342315,-5.109735,-0.24259292,0.83879435,0.14874569,-8.75515
167,1715789501.5296948,-0.522069,-5.840229,-0.053936653,0.031230485,0.56107974,-7.9634686
168,1715789501.5361128,-1.4751126,-6.30467,0.28164205,-0.2485458,0.99112886,-6.7918286
169,1715789501.5470994,-1.9725317,-6.402781,0.38097337,-0.17035505,1.31672,-5.33125
170,1715789501.5572462,-1.9725317,-6.346892,0.22746135,-0.07689266,1.6209309,-3.2029955
171,1715789501.5594888,-2.224887,-6.346892,0.22746135,-0.07689266,1.6209309,-3.2029955
172,1715789501.56553,-2.1184778,-6.1279726,0.09005712,-0.07689266,1.6209309,-3.2029955
173,1715789501.567531,-2.1184778,-6.1279726,0.09005712,-0.19173533,1.9043725,-1.5756506
174,1715789501.5805829,-2.1184778,-6.1279726,0.09005712,-0.56558484,3.0069842,2.1811707
175,1715789501.582585,-1.3955499,-5.2459188,0.038561042,-0.56558484,3.0069842,2.1811707
176,1715789501.5976276,-1.3179396,-4.8317537,0.102259986,-0.5191591,3.0912836,3.6112063
177,1715789501.613987,-1.3179396,-4.8317537,0.102259986,-0.5191591,2.6209173,6.1304145
178,1715789501.61599,-0.940139,-4.138601,0.009518232,-0.3658319,2.6209173,6.1304145
179,1715789501.6263852,-0.44003522,-3.6119251,-0.2831064,-0.71280336,2.4761422,8.035704
180,1715789501.6346056,-0.22697324,-3.3578312,-0.41977844,-1.2234868,2.4346035,9.237275
181,1715789501.6492822,-0.22697324,-3.3578312,-0.6070009,-1.9540815,2.3796256,10.547581
182,1715789501.6512837,-0.016595893,-3.1542873,-0.6070009,-1.9540815,2.3796256,10.547581
183,1715789501.663153,0.30604777,-3.0896122,-0.7592926,-2.8386145,2.154827,11.732049
184,1715789501.6647007,1.0221423,-3.0852191,-0.74391705,-3.792786,1.6417004,12.818168
185,1715789501.6750128,2.3290992,-3.1364713,-0.5452544,-5.247867,0.7425067,14.233542
186,1715789501.6840389,3.3639326,-3.2045631,-0.36681804,-5.847737,0.48288897,14.602505
187,1715789501.704157,3.3639326,-3.2045631,-0.36681804,-5.847737,0.1695151,14.666645
188,1715789501.7066588,4.2269497,-3.2704587,-0.005857374,-6.593603,0.1695151,14.666645
189,1715789501.7142441,4.4983716,-3.306579,0.30726805,-6.384076,0.01740966,14.141912
190,1715789501.7204974,5.406265,-2.883872,1.323309,-4.8605785,-1.3888022,13.182854
191,1715789501.7362947,5.4004073,-2.6446958,1.3325831,-3.8300488,-2.0295997,12.7766285
192,1715789501.747503,5.3030286,-2.4752896,1.0277556,-2.91314,-2.4706445,12.536558
193,1715789501.7707956,5.0213866,-2.1370263,0.19939478,-3.2503376,-1.3942999,11.766869
194,1715789501.7852566,4.589649,-2.2317204,0.46834585,-3.8575377,-0.9941832,11.928137
195,1715789501.7996986,4.6113706,-2.2905383,0.7644178,-3.9913173,-0.90194255,11.940354
196,1715789501.8137572,4.6113706,-2.2905383,0.7644178,-3.0682998,-1.9135354,11.496865
197,1715789501.81621,4.650175,-2.0191467,1.204209,-3.0682998,-1.9135354,11.496865
198,1715789501.8297617,4.7949014,-1.6001004,1.4675467,-1.6229926,-2.7711902,10.967245
199,1715789501.8454564,4.7949014,-1.6001004,1.4675467,-1.6229926,-2.7711902,10.11631
200,1715789501.8477373,4.940115,-1.1175686,1.0792516,-0.14347698,-3.2763758,10.11631
201,1715789501.849039,4.921323,-0.7351309,0.6685033,0.4722752,-3.1694744,9.394878
202,1715789501.861491,4.921323,-0.7351309,0.6685033,0.54985505,-2.6349673,8.642292
203,1715789501.863978,4.335311,0.19060871,-0.33362624,-0.06772968,-1.9037615,7.992332
204,1715789501.874645,4.0602584,0.59943515,-0.4595598,-1.5319737,-0.82558435,7.209203
205,1715789501.8822308,4.0129113,0.69534963,-0.21891935,-2.3615286,-0.25503623,6.6374326
206,1715789501.8992121,4.0129113,0.69534963,-0.21891935,-2.3615286,-0.25503623,6.019237
207,1715789501.9016955,3.9577544,0.6660627,-0.0156196635,-3.053639,0.301462,6.019237
208,1715789501.920366,3.8342614,0.61066175,0.174745,-3.5001814,0.57757306,5.595907
209,1715789501.922257,3.5780013,1.2037208,2.191939,-1.5576301,-0.6227771,5.1792974
210,1715789501.9337866,3.5780013,1.2037208,2.191939,0.7025714,-1.9526308,5.4071503
211,1715789501.9367342,4.1256657,1.747755,2.3542373,0.7025714,-1.9526308,5.4071503
212,1715789501.9536397,5.4702077,2.5358462,1.3174515,3.9022834,-3.78767,4.333249
213,1715789501.9599206,6.519715,3.0903444,-0.1867038,3.9022834,-3.78767,4.333249
214,1715789501.9722588,7.4698296,3.4491084,-1.5442113,3.2908075,-3.2281175,3.2966106
215,1715789501.974265,7.994583,3.1808896,-2.7833204,0.2700788,-0.8170323,0.9166797
216,1715789501.9838421,7.9152646,2.5070474,-2.4401455,0.2700788,-0.8170323,0.9166797
217,1715789501.9858434,7.9152646,2.5070474,-2.4401455,-3.053639,1.3081679,-1.1914163
218,1715789502.001917,7.9152646,2.5070474,-0.9823609,-3.053639,1.3081679,-1.1914163
219,1715789502.004918,6.1928916,0.7878473,0.06345488,-6.680957,4.8585167,-3.0521119
220,1715789502.016112,6.1928916,0.14789869,1.5461637,-6.680957,4.8585167,-3.0521119
221,1715789502.0181293,5.3498874,0.14789869,1.5461637,-6.878877,6.5787134,-3.43207
222,1715789502.039547,4.4524584,0.0370967,3.1625853,-1.9168187,5.9733458,-4.038659
223,1715789502.0615678,4.883494,0.09615856,2.699853,1.0324386,4.266588,-4.7582583
224,1715789502.0633569,5.1248665,0.084931925,2.0996854,2.5858688,3.278819,-5.567655
225,1715789502.0818496,4.993808,0.18084641,1.4245927,4.0067415,2.418721,-6.632393
226,1715789502.0836706,4.1425056,0.11592719,-0.32972133,3.822871,2.4981334,-8.189488
227,1715789502.100298,3.9970474,-0.038561042,-0.5149913,2.975601,2.600148,-8.6048765
228,1715789502.1076171,3.9601948,-0.22648512,-0.43515408,2.975601,2.600148,-8.6048765
229,1715789502.1088324,3.9601948,-0.22648512,-0.43515408,2.4447591,2.536618,-8.952459
230,1715789502.1250422,4.0858846,-1.1614989,0.16303024,2.3176992,1.8756617,-10.036134
231,1715789502.151701,4.070509,-1.854652,0.4502856,3.1277065,1.534799,-10.573695
232,1715789502.179005,4.070509,-2.2519772,0.28871974,3.58219,1.2910637,-10.745349
233,1715789502.181064,4.002905,-2.3720534,-0.19817449,4.1924443,-0.3979787,-11.349495
234,1715789502.19617,4.0014405,-2.3290992,-0.39878955,3.8344774,-0.7357872,-11.494269
235,1715789502.2064703,3.913824,-2.2712579,-0.49397188,3.406261,-0.95325524,-11.549858
236,1715789502.217168,3.913824,-2.2712579,-0.49397188,2.8790843,-1.1377366,-11.535197
237,1715789502.2182026,3.9035738,-2.1699739,-0.594798,2.8790843,-1.1377366,-11.535197
238,1715789502.2204564,3.9035738,-2.1699739,-0.594798,1.914528,-1.3222178,-11.375762
239,1715789502.2229118,3.784962,-1.9744841,-0.5794224,1.914528,-1.3222178,-11.375762
240,1715789502.2336805,3.8057067,-1.7836314,-0.57746994,1.2547935,-1.1774428,-11.096597
241,1715789502.2436275,3.9350572,-1.5590987,-0.6155429,0.47594038,-0.67347896,-10.758177
242,1715789502.2580383,3.9350572,-1.5590987,-0.6155429,-0.044516806,-0.2843578,-10.657995
243,1715789502.2594543,4.100528,-1.4555879,-0.5296347,-0.044516806,-0.2843578,-10.657995
244,1715789502.2667594,4.100528,-1.4555879,-0.30629185,-0.33223432,-0.07360926,-10.692814
245,1715789502.2684507,4.198883,-1.4385039,-0.30629185,-0.33223432,-0.07360926,-10.692814
246,1715789502.2813869,3.9089432,-1.5569022,0.117879644,-0.28275424,-0.3136793,-10.959151
247,1715789502.2991154,3.9089432,-1.6123033,0.28164205,0.06604981,-0.5714644,-10.938382
248,1715789502.300097,3.6424322,-1.6123033,0.28164205,0.06604981,-0.5714644,-10.938382
249,1715789502.3138707,3.33489,-1.6035172,0.37145513,0.794812,-0.82741696,-10.597519
250,1715789502.3157737,3.0832667,-1.5957073,0.46029195,0.794812,-0.82741696,-10.597519
251,1715789502.3236978,2.7027814,-1.7128547,0.38121742,0.794812,-0.82741696,-10.597519
252,1715789502.3250308,2.7027814,-1.7128547,0.38121742,1.198594,-0.5891795,-10.135095
253,1715789502.3347218,2.4530804,-1.8556283,0.4283205,1.5229634,-0.410196,-9.841879
254,1715789502.347943,2.4530804,-1.8556283,0.3704789,1.8308395,-0.33567044,-9.596312
255,1715789502.349202,2.160456,-2.280288,0.3704789,1.8308395,-0.33567044,-9.596312
256,1715789502.363626,2.160456,-3.9062583,-0.27358818,1.869324,-0.22571471,-9.25667
257,1715789502.3646557,1.357721,-3.9062583,-0.27358818,1.869324,-0.22571471,-9.25667
258,1715789502.3665872,1.357721,-3.9062583,-0.27358818,1.2780064,0.013744468,-9.293322
259,1715789502.3787038,0.55062366,-4.5349803,-0.34753752,0.5742897,0.06994407,-9.262779
260,1715789502.4022038,-1.603029,-5.97983,0.13081467,-1.0811552,0.52931476,-7.6635337
261,1715789502.4056122,-2.340082,-6.262204,0.4249037,-1.25403,0.54825157,-6.3104672
262,1715789502.4144204,-2.340082,-6.262204,0.4249037,-1.25403,0.54825157,-4.928079
263,1715789502.4170978,-3.1037674,-6.3339567,0.82323563,-1.222265,0.49571714,-4.928079
264,1715789502.445474,-2.8172445,-6.0952687,0.8735114,-0.39271,1.0876455,1.2715924
265,1715789502.4476287,-1.378954,-5.5029416,0.6057806,-0.09827295,1.7589865,2.9606347
266,1715789502.457273,-0.94453204,-5.1639156,0.5301228,0.13752104,1.9892827,3.739488
267,1715789502.4660134,-0.94453204,-5.1639156,0.5301228,0.6213263,2.0100522,4.9233446
268,1715789502.4682186,-0.58772033,-4.6321154,0.36047253,0.6213263,2.0100522,4.9233446
269,1715789502.4974027,-0.54867125,-4.471739,0.31068486,0.6213263,2.0100522,4.9233446
270,1715789502.4997852,-0.19134088,-3.8706257,-0.05832968,1.1869875,1.919644,7.868326
271,1715789502.518462,-0.030507157,-3.773491,-0.15936938,1.1869875,1.919644,7.868326
272,1715789502.5211804,0.79028785,-3.4859612,-0.46541715,0.7783187,1.724778,10.126084
273,1715789502.523226,1.3582091,-3.2694824,-0.51621157,0.31283936,1.4993688,11.434558
274,1715789502.5456173,1.3582091,-3.2694824,-0.51621157,0.31283936,1.4993688,12.735701
275,1715789502.5475695,2.9407372,-2.8477514,-0.55940974,-0.3346778,1.0009027,13.242719
276,1715789502.5641882,3.5821502,-2.6883821,-0.6580089,-1.1440742,1.5745052,13.797384
277,1715789502.5784252,5.05287,-2.1116443,-0.39366436,-1.8673387,2.2049181,13.696591
278,1715789502.5811713,5.05287,-2.1116443,-0.39366436,-2.0267744,2.237294,13.509666
279,1715789502.5821872,5.3503757,-2.0074317,-0.013179091,-2.0267744,2.237294,13.509666
280,1715789502.598887,5.537354,-1.9476379,0.42002252,-2.0267744,2.237294,13.509666
281,1715789502.6001022,5.537354,-1.9476379,0.42002252,-1.6969073,1.8029687,13.149867
282,1715789502.6129029,5.537354,-1.9476379,0.7160945,-1.2595278,1.3839152,12.907353
283,1715789502.6153362,5.638394,-1.7311591,0.7160945,-0.41470113,0.45112398,12.53778
284,1715789502.6222005,5.638394,-1.7311591,0.7160945,0.42279512,-0.310625,12.329475
285,1715789502.6234872,5.314987,-1.6547692,0.3316738,0.42279512,-0.310625,12.329475
286,1715789502.6327736,5.2983913,-1.6440306,0.050763905,0.4649448,-0.23365596,12.426602
287,1715789502.6695113,5.3762455,-1.6179165,-0.24869433,0.4649448,-0.23365596,12.426602
288,1715789502.671045,4.7758646,-1.4538796,-0.40123013,-2.4403303,0.95447695,11.522522
289,1715789502.6836348,4.7758646,-1.3840791,-0.23380683,-3.1336625,0.93859446,11.302
290,1715789502.6860394,4.374116,-1.3840791,-0.23380683,-3.1336625,0.93859446,11.302
291,1715789502.6941001,4.3162746,-1.2747415,-0.071020655,-3.45681,0.75777835,11.127293
292,1715789502.7289124,4.080515,-0.38902727,-0.2438132,-3.6553414,-0.7510588,8.719261
293,1715789502.7367644,4.080515,-0.38902727,-0.7029154,-3.6553414,-0.7510588,8.719261
294,1715789502.738784,3.9023535,-0.22331238,-0.7029154,-3.6553414,-0.7510588,8.719261
295,1715789502.7468073,3.9023535,-0.22331238,-0.9220788,-3.6553414,-0.7510588,8.719261
296,1715789502.749319,3.738835,-0.111046046,-0.9220788,-5.084766,-0.59040123,8.042422
297,1715789502.7688463,3.036896,-0.122272685,-0.45809543,-7.789677,0.37293324,7.275176
298,1715789502.7838497,2.9024203,-0.37536004,0.32728076,-8.782944,0.95386606,7.085197
299,1715789502.8144352,2.9024203,-0.37536004,0.32728076,-8.675432,0.8060367,6.903159
300,1715789502.8158128,4.1115103,-0.04637088,2.6939955,-3.2674417,-3.9287798,5.6081247
301,1715789502.8178964,4.5632906,0.6653306,3.2223794,-3.2674417,-3.9287798,5.6081247
302,1715789502.8357491,5.643275,2.2151246,3.0944934,0.66164345,-6.7625837,5.3155203
303,1715789502.8377318,6.7747545,3.0578847,2.211952,2.1521547,-7.188357,4.8848605
304,1715789502.849585,7.9430876,3.7027144,0.7429407,2.3005948,-6.0368757,3.766366
305,1715789502.8617642,7.994583,3.7978969,-0.38805103,0.9896781,-3.7247508,2.1958315
306,1715789502.868119,7.9950714,3.1843064,-1.0978,-1.5906167,-0.06505715,0.08162687
307,1715789502.8758876,7.526237,1.6904016,-0.19671014,-4.5875216,4.0252967,-2.0802252
308,1715789502.8840563,7.526237,1.6904016,-0.19671014,-4.5875216,4.0252967,-2.8670197
309,1715789502.886573,5.917595,0.66166973,1.1536891,-5.57468,5.7656517,-2.8670197
310,1715789502.9102378,4.8105206,-0.055645052,2.4142754,-4.8782935,6.134614,-2.7491226
311,1715789502.9115899,4.380461,-0.25674823,2.9187722,-3.3938909,6.0613103,-2.462016
312,1715789502.9300816,5.016017,-0.123004854,2.36644,1.5052483,5.120578,-2.6837602
313,1715789502.9318383,5.3474464,-0.035632357,1.6686803,1.5052483,5.120578,-2.6837602
314,1715789502.9403615,5.3474464,-0.035632357,1.6686803,1.5052483,4.5359797,-3.6067774
315,1715789502.9426558,5.27423,-0.077122085,0.9057269,2.8974102,4.5359797,-3.6067774
316,1715789502.9508884,5.27423,-0.077122085,0.9057269,3.728798,3.9263363,-4.890816
317,1715789502.967224,5.27423,-0.077122085,0.9057269,3.9053378,3.6624427,-5.6507325
318,1715789502.9688644,4.204984,-0.21574661,0.18304294,3.7623954,3.5677586,-6.395377
319,1715789502.9827905,3.283882,-0.3660859,-0.22062775,2.5980864,4.3252316,-6.818096
320,1715789503.0001774,3.2448328,-0.42734426,-0.0741934,2.0983984,5.059491,-6.833368
321,1715789503.0081582,3.298037,-0.530611,0.019768637,1.9438496,5.4003544,-6.8523045
322,1715789503.0226357,3.9765468,-1.153201,0.073217176,2.3115904,5.551238,-7.4833283
323,1715789503.0343711,3.9765468,-1.153201,0.073217176,2.3115904,5.551238,-8.06365
324,1715789503.03695,4.224997,-1.5146803,0.053204484,2.821663,5.1865516,-8.06365
325,1715789503.0453675,4.224997,-1.8236568,0.0021965152,3.3170745,4.68442,-8.545012
326,1715789503.0472136,4.306268,-1.8236568,0.0021965152,3.3170745,4.68442,-8.545012
327,1715789503.07393,4.296262,-2.0264685,-0.055645052,3.3170745,4.68442,-8.545012
328,1715789503.0770657,4.215723,-2.3937745,-0.35607952,4.580344,3.1694744,-9.448482
329,1715789503.0864067,4.177894,-2.4213529,-0.41758195,4.580344,3.1694744,-9.448482
330,1715789503.0884075,4.177894,-2.4213529,-0.41758195,4.624937,3.0589077,-9.511401
331,1715789503.098477,4.177894,-2.4213529,-0.701207,4.495434,2.7217102,-9.719095
332,1715789503.1007214,4.0817356,-2.4245257,-0.701207,4.495434,2.7217102,-9.719095
333,1715789503.109717,4.0817356,-2.4245257,-0.701207,4.495434,2.7217102,-9.819277
334,1715789503.111718,4.050496,-2.3879173,-0.74123234,4.279187,2.5677722,-9.819277
335,1715789503.1291926,4.0087624,-2.3330042,-0.79028785,3.931605,2.313652,-9.931676
336,1715789503.13162,3.768122,-2.1367822,-0.73879176,3.0556242,1.566564,-10.38555
337,1715789503.1464267,3.768122,-2.1367822,-0.73879176,2.708042,1.3704761,-10.409984
338,1715789503.1487536,3.6011868,-2.0828457,-0.6902244,2.708042,1.3704761,-10.409984
339,1715789503.15588,3.5062482,-2.0564876,-0.62603736,2.3928356,1.2702943,-10.355617
340,1715789503.1847038,3.3192701,-1.9220119,-0.40391475,1.9365191,1.3063353,-9.990319
341,1715789503.1957033,2.9612381,-2.135562,-0.2779812,1.8754326,1.4248432,-9.81439
342,1715789503.2072985,2.4218411,-2.0774763,-0.1513155,1.9536234,1.1780536,-9.651289
343,1715789503.2151377,2.4218411,-2.0774763,-0.1513155,1.9536234,0.7675522,-9.339747
344,1715789503.2169707,2.1157935,-2.0220752,-0.041001618,2.0788507,0.7675522,-9.339747
345,1715789503.2239745,2.1157935,-2.0220752,-0.041001618,2.0788507,0.14080444,-8.896259
346,1715789503.2261062,1.8966299,-2.0957806,0.033191785,2.3158665,0.14080444,-8.896259
347,1715789503.2328022,1.8966299,-2.277115,-0.107873306,2.3329706,-0.16707164,-8.637253
348,1715789503.235151,1.7828993,-2.277115,-0.107873306,2.3329706,-0.16707164,-8.637253
349,1715789503.248637,1.7397012,-2.6537259,-0.29897013,2.0269272,-0.0870483,-8.614039
350,1715789503.2563689,1.5015012,-3.0693555,-0.37999713,1.642693,0.3100141,-8.84006
351,1715789503.2702389,1.5015012,-4.0993075,-0.39342028,0.3739259,1.3888022,-8.855943
352,1715789503.272539,-0.66289,-4.0993075,-0.39342028,0.3739259,1.3888022,-8.855943
353,1715789503.28223,-1.4443613,-4.8395634,-0.12324891,0.19372064,1.0143417,-8.35992
354,1715789503.2971961,-2.140199,-5.5654206,0.12349297,0.52908564,0.006414085,-7.086266
355,1715789503.307396,-2.140199,-5.5654206,0.12349297,0.84001607,-0.59712076,-6.003202
356,1715789503.3096297,-2.5065596,-5.9278455,0.2042759,0.84001607,-0.59712076,-6.003202
357,1715789503.3269894,-2.8597102,-6.0991735,0.3082443,1.3378712,-0.88789266,-4.534682
358,1715789503.328625,-3.2616725,-6.1382227,0.18792409,1.8137352,-0.42302418,-2.0869448
359,1715789503.3486822,-3.3087757,-6.109912,0.1581491,1.8082374,0.7486154,2.0406718
360,1715789503.3520412,-2.9295106,-5.8102098,-0.058817793,1.8082374,0.7486154,2.0406718
361,1715789503.3578243,-2.6007657,-5.5705457,-0.15888128,1.6988926,1.0296134,3.6063194
362,1715789503.3644476,-2.1948678,-5.2178526,-0.2762728,1.4973071,1.244027,5.1243196
363,1715789503.3755326,-2.1948678,-5.2178526,-0.2762728,0.98234767,1.4822645,7.352145
364,1715789503.3768868,-1.5137041,-4.6897125,-0.4183141,0.98234767,1.4822645,7.352145
365,1715789503.3852303,-0.63677585,-4.246962,-0.5528202,0.41363212,1.5824465,8.893358
366,1715789503.3984153,0.20110317,-3.836946,-0.70218325,-0.2448806,1.6459764,9.998413
367,1715789503.408434,0.20110317,-3.836946,-0.70218325,-0.2448806,1.6410894,10.90005
368,1715789503.4096239,0.966009,-3.5155225,-0.7827221,-0.94004524,1.6410894,10.90005
369,1715789503.4223804,0.966009,-3.5155225,-0.7827221,-0.94004524,1.7168368,12.1706505
370,1715789503.4246967,3.3802843,-2.9822268,-0.5105983,-3.0841823,1.7168368,12.1706505
371,1715789503.4338644,3.904794,-2.7918622,0.0026846298,-3.3865607,1.7259997,12.116283
372,1715789503.4572275,3.904794,-2.7918622,0.0026846298,-3.2790482,1.4987578,12.014269
373,1715789503.4583142,4.242081,-2.5917354,0.68876004,-2.7072785,1.0057896,11.993499
374,1715789503.466655,4.242081,-2.5917354,0.68876004,-2.7072785,0.6435465,12.042979
375,1715789503.4687343,4.394617,-2.6327372,0.7793053,-2.0786982,0.6435465,12.042979
376,1715789503.4760156,4.394617,-2.6327372,0.7793053,-2.0786982,0.6435465,12.170039
377,1715789503.4786313,4.4812574,-2.7037578,0.2975058,-0.3804927,-0.49632803,12.170039
378,1715789503.4802606,4.4529467,-2.7105913,0.11592719,0.07704538,-0.9288206,12.374679
379,1715789503.4987698,4.5003242,-2.6988766,-0.1415532,0.5846744,-1.5121969,12.904299
380,1715789503.513139,4.7248564,-2.7796595,-0.33655494,0.80336416,-1.7290541,13.305637
381,1715789503.5380018,4.7248564,-2.7796595,-0.33655494,0.95974565,-1.6844609,13.849308
382,1715789503.5401256,6.185814,-2.7489083,-0.9291565,0.67813677,-1.3179418,14.067387
383,1715789503.542304,6.185814,-2.7489083,-0.9291565,0.13263412,-1.0045679,13.78761
384,1715789503.5497525,6.185814,-2.7489083,-0.9291565,-0.53259814,-0.9080512,13.317245
385,1715789503.5524125,6.2526855,-2.577824,-0.9901707,-0.53259814,-0.9080512,13.317245
386,1715789503.5594807,6.2526855,-2.577824,-0.9901707,-0.53259814,-0.9605856,12.857874
387,1715789503.5608542,6.1418834,-2.4289188,-0.79638934,-1.0542771,-0.9605856,12.857874
388,1715789503.5678627,5.9678707,-2.1248233,-0.2809099,-1.2198216,-1.0864239,12.484634
389,1715789503.5747437,5.533937,-1.5088229,0.31019676,-1.2198216,-1.0864239,12.484634
390,1715789503.576081,5.533937,-1.5088229,0.31019676,-0.5826891,-1.2452488,11.367362
391,1715789503.5997603,4.98551,-0.9643007,0.21086545,0.8980483,-1.3191634,9.979476
392,1715789503.607016,4.98551,-0.9643007,0.21086545,1.1631638,-1.1841623,9.41748
393,1715789503.6106856,4.7778172,-0.77222764,-0.04148973,1.1631638,-1.1841623,9.41748
394,1715789503.612457,4.7778172,-0.77222764,-0.04148973,1.1063533,-0.9618073,8.967884
395,1715789503.6195004,4.5100865,-0.5098661,-0.37194324,0.18700112,-0.43279803,8.305095
396,1715789503.6216812,4.187168,-0.21135357,-0.8020026,0.18700112,-0.43279803,8.305095
397,1715789503.638814,4.017304,0.026602242,-0.63555557,-0.9565386,-0.21655174,7.820068
398,1715789503.6469626,4.0248704,0.23844394,-0.37682438,-1.4721088,-0.03756821,7.4327793
399,1715789503.657518,3.8603754,0.45736328,-0.174745,-1.9577467,0.47861293,6.7730446
400,1715789503.7143645,3.8603754,0.45736328,-0.174745,-1.9577467,1.2660183,6.3026786
401,1715789503.7173688,4.4263444,0.85837984,0.67167604,-3.0456977,-0.18051068,6.013739
402,1715789503.73137,4.4263444,0.85837984,0.67167604,-1.8404607,-0.91232723,5.906227
403,1715789503.7333724,5.3728285,3.0127342,2.0013304,0.92492634,-1.3826935,5.77428
404,1715789503.7466276,7.958463,3.7195544,-0.41245672,3.5039995,-1.4859297,5.711361
405,1715789503.7635367,7.958463,3.7195544,-0.41245672,3.5039995,-1.4859297,4.215963
406,1715789503.764559,7.993851,3.4705858,-1.5461637,1.4343879,-1.892766,-1.061302
407,1715789503.7775695,7.8213024,2.2268393,-3.10572,1.4343879,-1.892766,-1.061302
408,1715789503.7806587,7.8213024,2.2268393,-3.10572,-1.5136477,-0.50243664,-2.6654341
409,1715789503.7941282,6.6036706,0.9711343,-1.825121,-5.9894576,2.7937922,-3.9012146
410,1715789503.8059204,5.815091,-0.04881145,-0.473227,-7.628409,5.5561247,-4.270788
411,1715789503.8276587,4.903995,-0.36169282,0.8874227,-7.628409,5.5561247,-4.270788
412,1715789503.8288138,4.4104805,-0.45467865,1.888332,-5.7976456,8.301964,-4.496808
413,1715789503.8408744,4.1119986,-0.52572984,2.4870045,-5.7976456,8.301964,-4.496808
414,1715789503.8429399,3.9460397,-0.41855815,2.1650927,0.4197408,4.635551,-4.8040733
415,1715789503.8501096,3.9311523,-0.33362624,1.6574538,0.4197408,4.635551,-4.8040733
416,1715789503.8529913,3.9311523,-0.33362624,1.6574538,2.680553,2.4559836,-5.017876
417,1715789503.8540342,4.1212726,-0.2489384,1.0328808,3.7752235,1.1951579,-5.4198256
418,1715789503.8635461,4.1212726,-0.19426957,0.505229,3.7752235,1.1951579,-5.4198256
419,1715789503.8647165,4.241593,-0.19426957,0.505229,4.120973,0.8378017,-5.9677715
420,1715789503.8723235,4.2425694,-0.19134088,0.008542004,3.8625772,1.1187997,-6.8461957
421,1715789503.8878157,4.2425694,-0.19134088,-0.4378387,3.260875,1.6679676,-7.4735546
422,1715789503.8900046,4.0390253,-0.2853029,-0.4378387,3.260875,1.6679676,-7.4735546
423,1715789503.9026673,3.858911,-0.4556549,-0.56819576,2.4246006,2.295937,-8.017836
424,1715789503.904806,3.8237667,-0.7578283,-0.51547945,2.4246006,2.295937,-8.017836
425,1715789503.9063187,3.8237667,-0.7578283,-0.51547945,1.7349336,2.6563475,-8.396572
426,1715789503.9150307,3.8896623,-1.0084751,-0.44784504,1.2676218,2.8249464,-8.722774
427,1715789503.9246488,3.9909463,-1.4817021,-0.33240595,0.89316136,2.9636128,-9.132053
428,1715789503.9329145,4.0993075,-1.922744,-0.234539,0.89316136,2.9636128,-9.132053
429,1715789503.934147,4.0993075,-1.922744,-0.234539,0.6848563,3.0460796,-9.455812
430,1715789503.9467032,4.2086453,-2.2353814,-0.14179726,0.67569333,3.1132748,-9.65862
431,1715789503.9574552,4.302851,-2.5053391,0.020256752,0.94203055,3.1914654,-9.853485
432,1715789503.9653406,4.292113,-2.641035,0.08419975,1.2401328,3.1413746,-9.965884
433,1715789503.9835632,4.2184076,-2.811875,0.010006348,1.7465401,2.9342911,-10.063012
434,1715789503.9854994,4.2184076,-2.811875,0.010006348,2.227902,2.5579982,-10.093555
435,1715789503.9984229,4.216699,-2.811631,-0.10372432,2.227902,2.5579982,-10.093555
436,1715789504.0005176,4.216699,-2.811631,-0.10372432,2.504013,2.1981986,-10.110049
437,1715789504.0127442,4.2896724,-2.7791712,-0.22453266,2.5363889,1.674687,-10.259711
438,1715789504.0210838,4.3235965,-2.7340207,-0.25333142,2.5363889,1.674687,-10.259711
439,1715789504.024092,4.1730127,-2.620778,-0.22624107,2.463085,1.393689,-10.425256
440,1715789504.0436265,4.063675,-2.5578115,-0.20085911,2.3867269,1.212873,-10.479622
441,1715789504.045931,4.0094943,-2.5028987,-0.20574026,2.2694407,1.149343,-10.5065
442,1715789504.0607655,4.0094943,-2.5028987,-0.2801777,2.2694407,1.149343,-10.5065
443,1715789504.0630598,3.8840492,-2.4711406,-0.2801777,2.1002312,1.2134838,-10.497337
444,1715789504.076288,3.75055,-2.4023166,-0.19744232,1.7636443,1.2409728,-10.220005
445,1715789504.0891433,3.5726318,-2.3352005,-0.03734076,1.8228983,1.067487,-10.180909
446,1715789504.1040437,3.024693,-2.3342245,0.18523945,2.323197,0.52931476,-10.052016
447,1715789504.1277094,2.7098591,-3.0046802,0.020012695,2.49485,0.5726862,-9.915793
448,1715789504.156558,2.4628427,-3.490842,-0.105676785,2.2932644,1.1462886,-10.340956
449,1715789504.1756074,1.709194,-4.0988193,-0.24625377,2.2932644,1.1462886,-10.340956
450,1715789504.178058,-3.3683255,-6.7540097,-0.38512233,1.5602262,-0.5720753,-9.176647
451,1715789504.1842504,-3.6568317,-7.1642704,-0.34460884,1.5626696,-1.6820174,-7.3361096
452,1715789504.1981726,-3.6568317,-7.1642704,-0.23380683,1.3904057,-1.7950275,-4.761924
453,1715789504.2008686,-4.0094943,-7.2223554,-0.23380683,1.3904057,-1.7950275,-4.761924
454,1715789504.208349,-4.1932693,-7.008317,-0.13374338,0.97929335,-0.6747007,-2.199344
455,1715789504.2292445,-4.0824676,-6.8052616,0.044174362,0.97929335,-0.6747007,-2.199344
456,1715789504.2315736,-2.4355083,-6.190695,0.18011424,0.63781965,1.6557503,2.203162
457,1715789504.2336087,-2.4355083,-6.190695,0.18011424,0.9383654,1.9953914,5.2110624
458,1715789504.2510757,-1.7653271,-5.8036203,0.07565775,1.1002446,2.038152,6.3973627
459,1715789504.2760108,-1.7653271,-5.8036203,0.07565775,1.2975541,2.037541,7.4840918
460,1715789504.2777505,0.366574,-4.28894,-0.46736962,1.4606552,1.964848,8.286158
461,1715789504.2787547,0.366574,-4.28894,-0.46736962,1.5620588,1.5311338,9.430308
462,1715789504.290112,0.92793614,-3.9497004,-0.6960818,1.3787992,1.2592987,10.055835
463,1715789504.3063216,2.4479554,-3.0661829,-1.0055463,-0.25098926,1.221425,11.343538
464,1715789504.322177,2.4479554,-3.0661829,-1.0055463,-0.25098926,1.221425,12.027097
465,1715789504.324504,3.7280965,-2.4103703,-0.3441207,-2.0896935,1.1200215,12.027097
466,1715789504.3324683,3.7280965,-2.4103703,-0.3441207,-2.0896935,1.1200215,12.047866
467,1715789504.3346868,4.3111496,-2.2431912,0.035144243,-2.3279312,0.9098838,12.047866
468,1715789504.349866,4.3111496,-2.2431912,0.3939084,-2.273564,0.68386364,11.774199
469,1715789504.3519087,5.0460362,-2.1558187,0.3939084,-2.273564,0.68386364,11.774199
470,1715789504.3693602,5.0460362,-2.1558187,0.3939084,-1.3737596,0.2678644,11.009396
471,1715789504.3716676,5.4875355,-1.8509911,0.83421814,-1.3737596,0.2678644,11.009396
472,1715789504.3781805,5.2976594,-1.6188927,0.9049948,-0.53626335,0.18478674,10.580567
473,1715789504.3858294,5.1629395,-1.568861,0.81566983,0.06116288,0.11759156,10.379593
474,1715789504.4029443,5.1629395,-1.568861,0.45809543,0.876668,0.03573562,10.001468
475,1715789504.4051147,4.823944,-1.4194674,0.45809543,0.876668,0.03573562,10.001468
476,1715789504.417493,4.823944,-1.4194674,0.2438132,0.8888853,0.09315695,9.978254
477,1715789504.4207814,4.4395237,-1.4016513,0.014399378,0.8888853,0.09315695,9.978254
478,1715789504.4219959,4.4395237,-1.4016513,0.014399378,0.5272531,0.29352075,10.013685
479,1715789504.4330053,4.3045597,-1.4482661,-0.12983845,-0.05795584,0.62888575,10.130361
480,1715789504.442152,4.1639824,-1.438748,-0.12056428,-0.71219254,1.0155635,10.238483
481,1715789504.4580262,4.1639824,-1.438748,-0.12056428,-1.3059535,1.3637567,10.397919
482,1715789504.460067,3.9638557,-1.4284977,-0.0302631,-1.3059535,1.3637567,10.397919
483,1715789504.467365,3.867453,-1.4375277,-0.015375607,-1.8086957,1.6667458,10.562242
484,1715789504.4844925,3.867453,-1.4504627,0.021965152,-2.3804655,1.93797,10.6239395
485,1715789504.4865065,4.2742968,-1.2928017,0.059305906,-2.7524824,1.8762726,10.132804
486,1715789504.4995024,4.2511115,-1.0602151,0.14472595,-2.7805822,1.5940529,9.45963
487,1715789504.5079882,4.2511115,-1.0602151,0.14472595,-2.690785,1.2654073,8.921458
488,1715789504.5106883,4.1117544,-0.8359266,0.12324891,-2.690785,1.2654073,8.921458
489,1715789504.5176516,4.1117544,-0.8359266,0.12324891,-2.7989082,0.97097033,8.396725
490,1715789504.5195825,3.8008254,-0.5721007,-0.093717985,-2.7989082,0.97097033,8.396725
491,1715789504.5268755,3.4190898,-0.37291947,-0.456143,-3.5105662,0.9941832,8.115116
492,1715789504.5361583,3.4190898,-0.37291947,-0.456143,-3.8948004,1.067487,8.078464
493,1715789504.5379684,3.3483129,-0.36144876,-0.573321,-3.8948004,1.067487,8.078464
494,1715789504.5510104,3.0346992,-0.2809099,-0.5918693,-6.2478533,1.7730364,7.92758
495,1715789504.5690749,3.0346992,-0.2809099,0.34558508,-7.694382,2.1609359,7.912308
496,1715789504.570939,3.6429207,-0.22282428,0.91817385,-7.694382,2.1609359,7.912308
497,1715789504.5729456,3.6429207,-0.22282428,0.91817385,-7.8196096,1.4633276,7.8481674
498,1715789504.5835125,3.6429207,-0.22282428,0.91817385,-7.8196096,-0.40469822,7.4462185
499,1715789504.5854115,4.2579446,0.013911263,1.6855204,-7.205079,-0.40469822,7.4462185
500,1715789504.6159616,6.2907586,2.9319513,4.1412854,-1.0866529,-6.2073073,7.746764
501,1715789504.6431444,6.2907586,2.9319513,4.1412854,1.2999976,-6.83039,7.5170784
502,1715789504.6457102,7.9948273,4.0304832,1.459737,2.4239895,-5.564066,4.645401
503,1715789504.6470208,7.9950714,3.3156092,-0.2489384,0.56573755,-2.4199426,-0.04176791
504,1715789504.6686063,7.9950714,1.9310418,-0.4983649,-2.4311674,2.259896,-4.6354747
505,1715789504.670879,7.792748,0.5699042,0.26992732,-4.001091,4.54331,-6.0361886
506,1715789504.6824465,7.792748,0.5699042,1.9034635,-4.4781766,7.9824815,-4.620814
507,1715789504.6845002,3.8091235,-1.323553,1.9034635,-4.4781766,7.9824815,-4.620814
508,1715789504.7034829,3.8091235,-1.323553,1.9034635,-3.1861968,7.6703296,-3.5713472
509,1715789504.7069156,3.6470695,-1.2269063,2.4235494,-3.1861968,7.6703296,-3.5713472
510,1715789504.70793,3.6470695,-1.2269063,2.4235494,-1.0200686,6.6196413,-3.087542
511,1715789504.7149749,3.9548256,-1.0499648,2.6185818,-1.0200686,6.6196413,-3.087542
512,1715789504.7163246,4.277469,-0.8571595,2.5109525,0.7227299,5.451667,-3.159624
513,1715789504.7236178,4.678974,-0.7932165,2.0808933,2.5052347,4.1993933,-3.934812
514,1715789504.7388468,4.678974,-0.7932165,2.0808933,2.5052347,4.1993933,-4.8413363
515,1715789504.7412717,4.618936,-0.79736555,1.4575404,4.1191406,3.0466905,-4.8413363
516,1715789504.7424166,4.43513,-0.7954131,1.0096953,4.8320203,2.4657576,-5.7515254
517,1715789504.7833605,3.9406705,-0.7612451,0.36730617,4.8100295,2.2904391,-6.8914
518,1715789504.7852526,3.63267,-0.9215907,0.106164895,4.1979423,2.758973,-7.951251
519,1715789504.8130515,3.567263,-1.0558221,0.10055158,4.1979423,2.758973,-7.951251
520,1715789504.8145063,3.6104608,-1.3262376,0.01586372,3.931605,2.7595837,-8.833341
521,1715789504.8163743,3.7193103,-1.5229783,-0.047103047,3.931605,2.7595837,-8.833341
522,1715789504.8456573,3.7193103,-1.5229783,-0.047103047,3.931605,2.7595837,-9.317757
523,1715789504.847054,4.0214534,-2.2217143,-0.12544543,4.000022,1.8182404,-10.034302
524,1715789504.8687305,4.121761,-2.4479554,-0.46810177,4.19611,1.1291844,-10.551094
525,1715789504.875995,4.121761,-2.4479554,-0.46810177,4.0849323,0.7180721,-11.04223
526,1715789504.9057927,3.9789872,-2.366928,-0.6218884,3.397709,0.24953845,-11.114923
527,1715789504.9072156,4.0175486,-2.2331848,-0.5298788,3.1496975,0.032070424,-11.113701
528,1715789504.9181461,4.072217,-2.122871,-0.50010383,3.1496975,0.032070424,-11.113701
529,1715789504.9203126,4.072217,-2.122871,-0.50010383,2.8326585,-0.21838433,-11.146076
530,1715789504.93871,4.055133,-1.9561797,-0.5657552,1.915139,-0.4279111,-11.418522
531,1715789504.9414394,3.9006448,-1.8866236,-0.57917833,1.5638914,-0.33261612,-11.350105
532,1715789504.9558513,3.9006448,-1.8866236,-0.57917833,1.166829,-0.17867808,-11.241982
533,1715789504.9576497,3.8428035,-1.8880879,-0.5823511,1.166829,-0.17867808,-11.241982
534,1715789504.973671,3.8428035,-1.9083446,-0.49421594,1.166829,-0.17867808,-11.241982
535,1715789504.9759018,3.5145466,-1.9146901,-0.2796896,1.166829,-0.17867808,-11.241982
536,1715789504.9769106,3.5145466,-1.9146901,-0.2796896,0.9133199,-0.025961773,-11.186394
537,1715789504.979367,3.5145466,-1.9146901,-0.2796896,0.8253553,0.14874569,-11.017183
538,1715789504.9863703,3.5145466,-1.9146901,-0.2796896,0.8253553,0.14874569,-10.786887
539,1715789504.98869,3.246541,-1.8595332,-0.09542638,0.9573022,0.20555615,-10.786887
540,1715789504.9966438,3.0842428,-1.8617296,0.07370529,0.9573022,0.20555615,-10.786887
541,1715789504.998471,3.0842428,-1.8617296,0.07370529,1.2254721,0.027794369,-10.524826
542,1715789505.018381,3.0422652,-2.1121325,-0.10958171,1.669571,-0.52564955,-10.093555
543,1715789505.0286913,2.9788103,-2.442098,-0.26577836,1.669571,-0.52564955,-10.093555
544,1715789505.0304499,2.9788103,-2.442098,-0.26577836,1.4753159,-0.5360342,-10.12471
545,1715789505.0374641,2.9788103,-2.442098,-0.26577836,1.0745883,0.026572637,-10.670823
546,1715789505.0397983,2.7061982,-3.215546,-0.16425052,1.0745883,0.026572637,-10.670823
547,1715789505.040903,2.7061982,-3.215546,-0.16425052,0.89316136,0.4700608,-11.34644
548,1715789505.0433598,2.045749,-4.0517163,0.0353883,0.89316136,0.4700608,-11.34644
549,1715789505.0599763,2.045749,-4.0517163,0.0353883,0.89316136,0.06566802,-11.902939
550,1715789505.061189,0.6902244,-5.118277,0.25943285,0.8711702,0.06566802,-11.902939
551,1715789505.079775,0.6902244,-5.118277,0.25943285,0.8711702,0.06566802,-9.708711
552,1715789505.0822043,-1.6938182,-6.8020887,0.7702752,1.198594,-2.7968466,-9.708711
553,1715789505.0834012,-2.3464274,-7.057861,0.7422086,1.198594,-2.7968466,-9.708711
554,1715789505.0846798,-2.3464274,-7.057861,0.7422086,1.0483211,-3.1334333,-7.0679398
555,1715789505.1002984,-2.3464274,-7.057861,0.7422086,1.0483211,-3.1334333,-4.718552
556,1715789505.1019218,-2.8238337,-6.87433,0.6848551,0.54863334,-2.3735168,-4.718552
557,1715789505.1137366,-2.8238337,-6.87433,0.6848551,-0.057344973,-1.1328496,-2.4730115
558,1715789505.1150022,-2.7342649,-6.433288,0.79736555,-0.057344973,-1.1328496,-2.4730115
559,1715789505.1170118,-2.7342649,-6.433288,0.79736555,-0.7757225,0.6747007,0.67722046
560,1715789505.1240597,-1.7807027,-6.0950246,0.86521345,-0.97975147,1.3710871,3.3723578
561,1715789505.1341171,-0.75392336,-5.5578547,0.5899168,-1.0585531,1.4584408,5.090722
562,1715789505.1510007,-0.17328064,-5.113884,0.41929033,-1.0927615,1.4810427,5.7669497
563,1715789505.1655488,0.4803047,-4.3035836,0.37658033,-0.68042755,1.3460416,6.6777496
564,1715789505.1815782,0.42465958,-3.6382835,0.34045988,0.69096494,0.8555168,8.26661
565,1715789505.1996057,0.4617563,-3.386874,0.029774986,1.2902237,0.8738427,10.004522
566,1715789505.2070026,0.4617563,-3.386874,0.029774986,1.3647493,1.0577132,11.2458
567,1715789505.2135725,0.8315336,-3.3090196,-0.31654227,1.3647493,1.0577132,11.2458
568,1715789505.2151966,1.910541,-3.1494062,-0.8752198,0.9689086,1.3826935,12.881698
569,1715789505.2221975,3.1747882,-2.8743536,-1.3421013,-0.24426974,1.5030339,13.901842
570,1715789505.2334216,4.029019,-2.6700778,-1.4233724,-1.5154803,1.457219,14.294628
571,1715789505.2448506,4.029019,-2.6700778,-1.4233724,-2.16483,1.3729197,14.421688
572,1715789505.245857,4.491996,-2.619802,-1.1905417,-2.16483,1.3729197,14.421688
573,1715789505.279101,5.73504,-2.3466713,0.04368625,-2.187432,0.3222314,14.558522
574,1715789505.285718,5.73504,-2.0181704,0.19548985,-0.7775551,-0.88789266,13.658107
575,1715789505.2867026,6.5485134,-2.0181704,0.19548985,-0.7775551,-0.88789266,13.658107
576,1715789505.3045123,6.4484196,-1.7521479,0.014643434,-0.7775551,-0.88789266,13.658107
577,1715789505.3055146,6.031326,-1.6288991,-0.29384494,0.3458261,-1.4608842,12.5634365
578,1715789505.316796,5.687693,-1.5344489,-0.50108004,0.35132387,-1.5091426,12.3820095
579,1715789505.3387825,5.151713,-1.7182239,-0.35363895,-0.46540296,-1.1866057,12.373457
580,1715789505.3616338,5.151713,-1.7182239,-0.35363895,-0.9406561,-0.8029824,12.31176
581,1715789505.3628078,5.4616656,-1.4990606,0.043930303,-1.0017426,-0.6093381,11.760149
582,1715789505.3649068,5.4616656,-1.4990606,0.043930303,-0.84169596,-0.5152648,11.04788
583,1715789505.3712678,5.4184675,-1.259854,0.17596528,-0.84169596,-0.5152648,11.04788
584,1715789505.3822932,4.972819,-0.55745727,0.48835856,-0.3010802,-1.0009027,9.943436
585,1715789505.3833566,4.972819,-0.55745727,0.48835856,0.26885706,-1.3967434,9.236665
586,1715789505.3993926,4.519849,-0.08932495,0.07028849,0.26885706,-1.3967434,9.236665
587,1715789505.4067338,4.519849,-0.08932495,0.07028849,0.26885706,-1.3967434,7.996608
588,1715789505.4086225,4.519849,-0.08932495,0.07028849,0.7868708,-1.6685784,7.996608
589,1715789505.4277728,4.108338,0.05222825,-0.24527754,0.7868708,-1.6685784,7.996608
590,1715789505.4291146,3.7075956,0.13716017,-0.5042528,-0.10377073,-1.0345002,7.168885
591,1715789505.4375112,3.7075956,0.13716017,-0.5042528,-1.793424,0.21105394,6.938589
592,1715789505.4657087,2.8050416,0.25699228,0.67972994,-2.9247465,1.0699304,6.473721
593,1715789505.4746695,2.8050416,0.25699228,0.67972994,-1.8819995,-0.68325275,6.5421376
594,1715789505.4762201,3.1420846,0.3321619,0.9808966,-1.8819995,-0.68325275,6.5421376
595,1715789505.483419,3.5738525,0.67777747,0.9452642,-0.8423068,-2.0045543,6.7431126
596,1715789505.4996083,4.3035836,1.3401489,0.94453204,0.4350124,-2.9703321,6.7870946
597,1715789505.5076554,4.9725747,2.0862622,0.9328173,1.7807486,-3.3582318,6.7205105
598,1715789505.5169995,4.9725747,2.0862622,0.9328173,2.9835422,-3.3637295,6.5390835
599,1715789505.5191495,5.6347327,2.8831396,0.7046238,2.9835422,-3.3637295,6.5390835
600,1715789505.5381236,5.6347327,2.8831396,0.7046238,1.8589393,-2.3936756,2.4530058
601,1715789505.5395484,7.8994007,4.2184076,-1.6054696,1.8589393,-2.3936756,2.4530058
602,1715789505.5471406,7.994339,4.070265,-2.4521043,1.8589393,-2.3936756,2.4530058
603,1715789505.5647783,7.9950714,3.5340712,-2.976858,1.8589393,-2.3936756,2.4530058
604,1715789505.5659869,7.840583,3.0578847,-2.6332252,-1.7964783,-0.6227771,0.0064904434
605,1715789505.5727627,6.81478,1.9034635,-1.6525726,-7.1372733,3.1511483,-2.4015403
606,1715789505.5867996,6.0000863,0.9865099,-0.41294485,-8.71636,5.1266866,-3.173063
607,1715789505.594581,4.4241476,0.1637624,2.1087155,-8.011421,6.6819496,-3.7814848
608,1715789505.6072435,4.4241476,0.1637624,2.1087155,-6.975394,6.7008862,-3.8462367
609,1715789505.6094737,4.2447653,0.11031388,2.3901136,-6.975394,6.7008862,-3.8462367
610,1715789505.616738,3.6641533,0.0976229,2.9966264,-2.77203,5.3435435,-3.840128
611,1715789505.6270971,3.7241917,0.19256116,2.5631807,-2.77203,5.3435435,-3.840128
612,1715789505.6285477,3.7241917,0.19256116,2.5631807,-0.546648,4.076609,-3.885332
613,1715789505.6295521,4.049276,0.43881494,1.5957073,-0.546648,4.076609,-3.885332
614,1715789505.6319053,4.049276,0.43881494,1.5957073,1.692784,2.5518897,-4.35692
615,1715789505.6449578,4.049276,0.51474726,0.8022467,2.4606416,2.1621575,-5.0197086
616,1715789505.6460361,4.2782016,0.51474726,0.8022467,2.4606416,2.1621575,-5.0197086
617,1715789505.6719792,4.2052283,0.4790844,-0.20598431,2.236454,2.6013696,-6.2530456
618,1715789505.6804013,4.118344,0.2591888,-0.64897877,0.75449497,3.8970149,-7.584732
619,1715789505.6814492,4.062699,-0.05344854,-0.7785731,0.75449497,3.8970149,-7.584732
620,1715789505.7034469,4.062699,-0.05344854,-0.5401292,0.75449497,3.8970149,-7.584732
621,1715789505.7052767,3.9641,-0.4915313,-0.5401292,0.16134478,4.4095306,-8.499197
622,1715789505.7167344,3.9592185,-1.2112865,-0.06687169,0.4124104,4.2372665,-8.723385
623,1715789505.723989,4.0812473,-1.739457,0.21086545,1.3415364,3.6752708,-9.047143
624,1715789505.7317126,4.0812473,-1.739457,0.21086545,1.3415364,3.6752708,-9.259725
625,1715789505.7338548,4.180823,-1.9886395,0.2272173,1.9768363,3.2586606,-9.259725
626,1715789505.7441282,4.2408605,-2.230256,0.12544543,2.6121361,2.8170052,-9.528505
627,1715789505.7576518,4.31237,-2.438437,0.06321083,3.2223904,2.3625214,-9.818666
628,1715789505.771268,4.31237,-2.438437,-0.014887493,3.577914,2.046704,-10.035523
629,1715789505.772451,4.2447653,-2.6537259,-0.20574026,4.0666065,1.4828753,-10.312856
630,1715789505.7861767,4.2447653,-2.6537259,-0.20574026,4.163123,1.0845913,-10.401432
631,1715789505.787615,4.1666675,-2.6891143,-0.49128726,4.163123,1.0845913,-10.401432
632,1715789505.7947154,4.1666675,-2.6773996,-0.74391705,3.9597049,0.93492925,-10.429531
633,1715789505.795724,4.0995517,-2.6773996,-0.74391705,3.9597049,0.93492925,-10.429531
634,1715789505.8298402,3.934813,-2.5595198,-0.9128046,3.4832299,0.8512407,-10.403264
635,1715789505.8310483,3.627301,-2.3137236,-0.9123165,2.3555727,0.677755,-10.172358
636,1715789505.8373363,3.525041,-2.1775398,-0.7668584,1.5186874,0.6075055,-9.918237
637,1715789505.85064,3.4015172,-2.072107,-0.569172,1.0232756,0.68386364,-9.747195
638,1715789505.8656287,3.4015172,-2.072107,-0.569172,0.68058026,0.9630291,-9.316535
639,1715789505.8670764,3.1359832,-2.079917,-0.277005,0.68058026,0.9630291,-9.316535
640,1715789505.8733604,2.9548926,-2.0098724,-0.014887493,0.717843,1.0033462,-9.10151
641,1715789505.8890395,2.9270701,-2.0901673,0.21769907,1.0935252,0.65209866,-8.85411
642,1715789505.8900406,2.9270701,-2.0901673,0.21769907,1.2266937,0.5714644,-8.865106
643,1715789505.898411,2.89217,-2.28883,0.13569583,1.2266937,0.5714644,-8.865106
644,1715789505.9138808,2.6373742,-2.5016785,0.037584815,1.1552225,0.840856,-8.940242
645,1715789505.9152446,2.3581421,-2.654458,0.044174362,1.0861948,1.2030991,-9.039202
646,1715789505.9284394,1.7067534,-2.9155993,0.088836834,1.080697,1.7956384,-9.2921
647,1715789505.9470189,1.7067534,-2.9155993,0.088836834,1.3946817,2.1945333,-9.519342
648,1715789505.9494336,-0.8176223,-4.306024,0.051740136,1.8198439,1.6233743,-9.462532
649,1715789505.9625983,-2.446735,-4.939383,-0.07858644,2.2291236,-0.2012801,-8.708113
650,1715789505.9639409,-3.2880309,-5.4226165,-0.051496077,2.2291236,-0.2012801,-8.708113
651,1715789505.9649541,-3.2880309,-5.4226165,-0.051496077,2.331749,-1.883603,-7.2878513
652,1715789505.9805486,-3.5797098,-5.6388817,-0.12080834,2.001271,-1.3808609,-3.2127695
653,1715789506.0001647,-3.7612882,-5.4418974,-0.24503349,1.1998158,0.37720928,-0.8420014
654,1715789506.0290396,-3.7612882,-5.4418974,-0.24503349,-0.5032766,1.3191634,3.0498211
655,1715789506.0303588,-2.4694324,-4.981361,-0.33265,-0.5032766,1.3191634,3.0498211
656,1715789506.0316403,-1.7770418,-4.6614017,-0.1901206,-1.0255663,1.4523321,4.0669117
657,1715789506.0441573,-1.3728526,-4.3043156,-0.027334413,-1.1165853,1.6019942,4.994205
658,1715789506.0632555,-1.0834006,-4.029263,0.047347106,-1.1165853,1.6019942,4.994205
659,1715789506.0645616,-0.86618966,-3.901865,0.030507157,-0.7164686,1.3313808,6.5910068
660,1715789506.095254,-0.86618966,-3.901865,0.030507157,-0.5283221,1.0839803,7.319158
661,1715789506.0970583,1.1353848,-3.2311654,-0.35583547,-0.5258786,-0.058337633,9.45291
662,1715789506.1200743,1.6816155,-3.0342112,-0.37145513,-0.8844565,-0.14813483,10.20855
663,1715789506.1300735,2.6688576,-2.8182206,-0.13496366,-1.458059,0.0143553335,11.290393
664,1715789506.1450853,4.1686196,-2.6769114,0.400742,-1.3645966,-0.43279803,12.060695
665,1715789506.162608,5.083865,-2.501434,0.22258021,-1.0420598,-0.61850107,12.122392
666,1715789506.1756117,5.083865,-2.501434,0.22258021,-1.1220831,-0.57818395,11.933023
667,1715789506.1909726,5.365751,-2.383768,0.12666571,-1.1220831,-0.57818395,11.933023
668,1715789506.193304,5.1534214,-1.9571561,-0.088104665,-2.1251237,-0.70402217,10.98435
669,1715789506.2229388,5.1534214,-1.9571561,-0.088104665,-2.1251237,-0.70402217,10.924485
670,1715789506.223951,4.886667,-2.036963,0.319715,-3.2717178,-0.72295904,10.962358
671,1715789506.2387064,4.896185,-1.9688708,0.7334225,-3.4788013,-0.5012149,10.605002
672,1715789506.2465832,4.896185,-1.9688708,0.7334225,-3.18131,-0.49754974,10.280022
673,1715789506.248586,4.769275,-1.8058406,1.029952,-3.18131,-0.49754974,10.280022
674,1715789506.2636049,4.769275,-1.5630037,1.3826149,-1.6443729,-1.0552697,9.3820505
675,1715789506.2651317,4.660914,-1.2996353,1.6227976,-1.6443729,-1.0552697,9.3820505
676,1715789506.2769282,4.660914,-1.2996353,1.6227976,-1.6443729,-1.0552697,8.806005
677,1715789506.2779336,4.5108185,-0.9901707,1.5254189,-0.4263076,-1.4700472,8.806005
678,1715789506.2860749,4.296262,-0.7463576,0.92793614,0.51503575,-1.6581937,8.134052
679,1715789506.3001902,4.1415296,-0.530855,0.6050484,0.6872998,-1.4205672,7.7217183
680,1715789506.3182092,3.9509206,-0.30287504,0.25772443,0.47594038,-0.8402451,7.293502
681,1715789506.3210793,3.1064522,0.37121108,-0.10518867,-1.0096838,0.48716503,6.8414617
682,1715789506.3334856,2.9936976,0.48665017,-0.1313028,-1.4818827,0.68325275,6.814584
683,1715789506.3456604,2.908522,0.63897234,-0.07150877,-2.2491295,0.7498371,6.763271
684,1715789506.3633678,3.122316,0.6211562,0.108117364,-2.7262151,0.35155296,6.6740847
685,1715789506.3655803,3.3885822,0.62798977,0.45638704,-2.804406,-0.30268374,6.5341964
686,1715789506.3827405,3.7629964,0.7585604,1.3801743,-2.006005,-1.6502525,6.3808694
687,1715789506.3841748,4.3560557,1.2574134,2.497743,0.49243376,-3.1535919,6.512816
688,1715789506.3946304,4.3560557,1.2574134,2.497743,3.106937,-3.5983016,6.5329747
689,1715789506.395787,4.9288883,2.1006618,2.8301795,3.106937,-3.5983016,6.5329747
690,1715789506.4149034,4.9288883,2.1006618,2.8301795,6.229069,-3.4193182,6.206162
691,1715789506.4171922,6.69568,3.5326066,0.62798977,7.947433,-3.143818,5.5091643
692,1715789506.4296298,7.2838583,3.891371,-1.5285915,7.7837214,-2.9562824,4.316756
693,1715789506.4364004,7.2838583,4.1686196,-4.3262806,3.2645402,-2.0980167,2.329611
694,1715789506.4392467,7.4088154,4.1686196,-4.3262806,3.2645402,-2.0980167,2.329611
695,1715789506.441238,7.7634606,3.850369,-4.6204004,3.2645402,-2.0980167,2.329611
696,1715789506.4425037,7.7634606,3.850369,-4.6204004,0.3103959,-1.6184875,1.3650547
697,1715789506.4639947,7.781033,0.9211026,-1.4309382,-6.057874,1.0363328,-1.573818
698,1715789506.4662678,7.781033,0.9211026,-1.4309382,-7.9955387,2.6398542,-2.992247
699,1715789506.4918153,6.520935,-0.14252943,0.39317623,-7.9955387,2.6398542,-2.992247
700,1715789506.4928417,3.5511549,-0.48054874,3.1372035,-4.701143,5.5274143,-4.612262
701,1715789506.5069528,3.5511549,-0.48054874,3.1372035,-1.5729016,4.1120396,-4.2469645
702,1715789506.507959,3.2768042,-0.32532832,2.7845407,-1.5729016,4.1120396,-4.2469645
703,1715789506.5167913,3.2768042,-0.122272685,2.0062115,0.042836927,3.2189543,-4.030107
704,1715789506.5188096,3.3146331,-0.122272685,2.0062115,0.042836927,3.2189543,-4.030107
705,1715789506.5248997,3.585323,0.09176553,1.3562566,0.042836927,3.2189543,-4.030107
706,1715789506.5269475,3.585323,0.09176553,1.3562566,0.94936097,2.6606236,-3.9977312
707,1715789506.5545466,3.585323,0.09176553,1.3562566,0.94936097,2.6606236,-5.8272724
708,1715789506.5555694,4.139333,0.27456442,0.119099945,1.2340242,2.1792617,-5.8272724
709,1715789506.5663328,3.9240744,0.23722363,0.14692247,1.1008556,2.245846,-6.346508
710,1715789506.5728462,3.9240744,0.17547716,0.19744232,1.0800861,2.2660046,-6.786331
711,1715789506.5756412,3.7129648,0.17547716,0.19744232,1.0800861,2.2660046,-6.786331
712,1715789506.586703,3.7129648,0.17547716,0.19744232,1.0800861,2.2660046,-7.4057484
713,1715789506.587687,3.524309,-0.10079564,0.20598431,1.3513103,1.919644,-7.7905936
714,1715789506.597237,3.524309,-0.10079564,0.27090356,1.3513103,1.919644,-7.7905936
715,1715789506.5982156,3.4915743,-0.3414361,0.27090356,1.3513103,1.919644,-7.7905936
716,1715789506.6186137,3.4915743,-0.3414361,0.27090356,1.8766544,1.3100005,-8.421006
717,1715789506.620616,3.616318,-0.8095684,0.37267542,1.8766544,1.3100005,-8.421006
718,1715789506.6274445,3.7839854,-1.1197652,0.38756293,2.1466568,1.0167851,-8.714222
719,1715789506.6336782,4.0570855,-1.5100431,0.3912238,2.5186737,0.62949663,-9.148547
720,1715789506.6452744,4.2042522,-1.8609974,0.24649782,2.6884942,0.4718934,-9.485134
721,1715789506.6637013,4.1798463,-2.301277,0.06443111,2.6939921,0.40530908,-9.869368
722,1715789506.664686,4.1798463,-2.301277,0.06443111,2.6341274,0.4456262,-10.095999
723,1715789506.674401,4.040978,-2.429651,0.06980037,2.6341274,0.4456262,-10.095999
724,1715789506.6776156,4.040978,-2.429651,0.06980037,2.5608234,0.473726,-10.253602
725,1715789506.7229064,3.760556,-2.5775802,0.029042812,2.1374938,0.5403103,-9.982378
726,1715789506.7244573,3.6241283,-2.4704084,0.029774986,1.9432387,0.68630713,-9.799118
727,1715789506.735182,3.6241283,-2.3000565,0.11519502,1.8644371,0.763887,-9.655565
728,1715789506.736167,3.4205537,-2.3000565,0.11519502,1.8644371,0.763887,-9.655565
729,1715789506.7494433,3.2697265,-2.2046301,0.16937573,1.8968129,0.74006325,-9.410608
730,1715789506.7658772,3.0591052,-2.0269563,0.25552794,2.1246657,0.50610185,-8.929857
731,1715789506.7869987,2.8223696,-1.7782621,0.39781332,2.590756,-0.09254608,-8.45155
732,1715789506.7966356,2.8223696,-1.7782621,0.39781332,2.590756,-0.09254608,-8.369083
733,1715789506.7996972,2.812119,-1.7282305,0.20281157,2.489963,-0.2959642,-8.369083
734,1715789506.8094697,2.812119,-1.7282305,0.028066583,2.1393263,-0.21105394,-8.386798
735,1715789506.8105867,2.811387,-1.790953,0.028066583,2.1393263,-0.21105394,-8.386798
736,1715789506.8221548,2.819685,-1.9769248,-0.06638357,2.1393263,-0.21105394,-8.386798
737,1715789506.8245354,2.5924675,-2.4782183,-0.020500809,0.6793585,1.1585059,-8.97445
738,1715789506.8510132,2.2292798,-3.033235,0.021477038,0.6793585,1.1585059,-8.97445
739,1715789506.851994,0.43515408,-4.259897,0.25259924,0.4472297,3.0240884,-10.986641
740,1715789506.8583593,-2.1821768,-5.2407937,0.4554108,1.4539356,1.9740111,-10.596909
741,1715789506.867261,-3.9248066,-5.794102,0.3943965,2.2645538,-0.5390886,-9.077686
742,1715789506.8764448,-4.554017,-6.1543307,0.38487828,2.8839712,-2.6441302,-6.8797936
743,1715789506.889653,-4.090277,-6.2102194,-0.07809832,1.8681023,-0.49571714,-1.9171243
744,1715789506.8911445,-3.8855135,-5.9993544,-0.6162751,1.8681023,-0.49571714,-1.9171243
745,1715789506.9056501,-3.86184,-5.819972,-0.75734013,0.43073636,0.7528914,-0.23724478
746,1715789506.9228096,-3.714185,-5.6000767,-0.58527976,-0.619341,1.0137309,1.1695778
747,1715789506.9252682,-3.4610672,-5.468011,-0.45394647,-1.3957508,0.98624194,2.5079837
748,1715789506.93118,-3.4610672,-5.468011,-0.45394647,-2.2314143,1.3393221,4.3295836
749,1715789506.9324343,-2.366928,-4.9471927,-0.13105874,-2.2314143,1.3393221,4.3295836
750,1715789506.9486506,-1.7555648,-4.600876,0.08908089,-2.4898105,1.7198911,5.612401
751,1715789506.9713898,-1.0101835,-4.259165,0.25162303,-2.4898105,1.7198911,5.612401
752,1715789506.9726331,0.099087246,-3.8562264,0.24234885,-1.4586699,1.1194105,8.050975
753,1715789506.9980352,0.099087246,-3.8562264,-0.033191785,-1.0799334,0.5549711,9.166415
754,1715789507.0001361,1.8507471,-3.3934636,-0.12471326,-1.2350931,0.39553526,9.93244
755,1715789507.0093749,1.8507471,-3.3934636,-0.12471326,-1.2350931,0.34788775,10.168844
756,1715789507.0108223,2.1780279,-3.2948644,-0.102992155,-1.3444381,0.34788775,10.168844
757,1715789507.0175657,2.819197,-3.0454378,0.11153416,-1.3444381,0.34788775,10.168844
758,1715789507.0183592,2.819197,-3.0454378,0.11153416,-1.5478562,0.32834008,10.537196
759,1715789507.0317335,3.1801574,-2.9055932,0.34680536,-1.4922675,0.13347405,11.013061
760,1715789507.0341136,3.6990538,-2.8189526,0.66313404,-0.954706,-0.0009162979,11.192044
761,1715789507.0439186,3.6990538,-2.8189526,0.66313404,-0.954706,-0.0009162979,11.269624
762,1715789507.044942,4.315298,-2.671298,0.81347334,-0.34933856,-0.25320363,11.269624
763,1715789507.0586424,4.6169834,-2.5021663,0.7871151,0.37453675,-0.5873469,11.089418
764,1715789507.077369,4.6762896,-2.1948678,0.53231937,1.1185706,-0.79381937,10.644098
765,1715789507.0855937,4.6762896,-2.0879707,0.1867038,1.1100185,-0.6789767,10.637989
766,1715789507.0875943,4.4451365,-2.0879707,0.1867038,1.1100185,-0.6789767,10.637989
767,1715789507.1039379,4.3938847,-2.110668,-0.14423785,0.5614615,-0.5207626,10.89272
768,1715789507.1119556,4.4895554,-2.1894987,-0.30726805,-0.2644283,-0.19211712,11.181048
769,1715789507.120935,4.5837917,-2.2663767,-0.36413342,-2.1202369,0.8188649,11.585442
770,1715789507.1342456,4.6643305,-2.3876731,-0.3270367,-2.1202369,0.8188649,11.585442
771,1715789507.135858,4.9337697,-2.4247699,0.09298581,-3.5759287,1.2592987,11.600101
772,1715789507.1450534,5.147808,-2.3600945,0.67777747,-3.7488036,1.0235047,11.116907
773,1715789507.1569529,5.136825,-2.0469692,1.2849919,-3.3639586,0.691194,10.783986
774,1715789507.1657255,5.136825,-2.0469692,1.2849919,-3.3639586,0.691194,10.220768
775,1715789507.1677253,5.0208983,-1.7133428,1.4995488,-2.2363014,-0.019242255,10.220768
776,1715789507.1747265,5.011136,-1.2710807,1.0448396,-0.8410851,-0.8378017,9.471236
777,1715789507.1851947,5.011136,-1.2710807,1.0448396,-0.8410851,-0.999681,9.082115
778,1715789507.187196,5.0999727,-1.0699775,0.55940974,-0.56986094,-0.999681,9.082115
779,1715789507.194601,4.6811705,-0.6431213,-0.014399378,-0.56986094,-0.999681,9.082115
780,1715789507.196196,4.6811705,-0.6431213,-0.014399378,-0.9027825,-0.6948592,7.6777363
781,1715789507.2123606,4.0248704,-0.40781966,-0.21940747,-1.8471801,-0.09193522,7.234859
782,1715789507.214204,4.0248704,-0.40781966,-0.21940747,-2.6797895,0.56413406,7.20065
783,1715789507.2152297,3.5618935,-0.2518671,-0.16888762,-2.6797895,0.56413406,7.20065
784,1715789507.2315562,3.2902272,0.17669745,0.45736328,-3.8031707,1.5085317,7.261737
785,1715789507.244577,3.2902272,0.17669745,0.6135904,-3.6266305,0.88117313,6.886666
786,1715789507.2455628,3.4759548,0.298482,0.6135904,-3.6266305,0.88117313,6.886666
787,1715789507.2673905,3.8257194,0.5896728,0.6872957,-2.9192486,-0.9575313,6.863453
788,1715789507.2804928,5.1480517,1.3784659,1.0580187,-1.548467,-2.7913487,6.7284517
789,1715789507.2929769,5.8653665,2.0389154,1.7006519,-0.11965323,-3.1236594,6.558631
790,1715789507.31312,5.8653665,2.0389154,1.7006519,-0.11965323,-3.520111,6.252588
791,1715789507.3143778,7.690976,3.909431,2.7408545,2.086792,-3.520111,6.252588
792,1715789507.3156407,7.690976,3.909431,2.7408545,4.7129016,-3.7461312,5.702198
793,1715789507.3525379,7.690976,3.909431,2.7408545,6.204024,-4.0301833,0.29787317
794,1715789507.3539305,7.9950714,3.0203001,-2.717181,-1.8001435,1.4193454,-4.334318
795,1715789507.3553839,7.2130814,1.8714919,-2.819685,-1.8001435,1.4193454,-4.334318
796,1715789507.366395,6.4557414,0.9152452,-2.2153685,-1.8001435,1.4193454,-4.334318
797,1715789507.369114,6.4557414,0.9152452,-2.2153685,-4.355393,4.0252967,-4.7863584
798,1715789507.3815475,5.435551,0.05735345,-0.49812084,-4.355393,4.0252967,-4.7863584
799,1715789507.382863,4.5547485,-0.34753752,1.4011631,-5.8471255,6.964169,-5.3593497
800,1715789507.3927217,4.5547485,-0.34753752,1.4011631,-3.9143481,5.9611287,-5.4931293
801,1715789507.3937402,3.9528732,-0.4217309,2.289074,-3.9143481,5.9611287,-5.4931293
802,1715789507.4274437,3.3068233,-0.2630937,1.9754603,0.082543164,3.2531629,-5.531003
803,1715789507.428976,3.196021,-0.17620933,1.6323159,1.1368966,2.408947,-5.505347
804,1715789507.4450798,3.196021,-0.17620933,1.0880377,1.1368966,2.408947,-5.505347
805,1715789507.4462056,3.314145,0.12324891,0.88156533,2.1637611,1.5525141,-5.7887883
806,1715789507.4799485,3.551399,-0.31776255,0.23039004,1.339093,2.73576,-7.3959746
807,1715789507.5127823,3.9387178,-1.3479587,0.4656612,1.3348169,2.5689938,-8.413676
808,1715789507.5291138,3.981672,-1.9705791,0.44271985,1.5406785,2.4767532,-8.66352
809,1715789507.535631,3.981672,-1.9705791,0.44271985,1.8949803,2.445599,-9.003161
810,1715789507.557669,4.0729494,-2.1157935,0.41172457,1.8949803,2.445599,-9.003161
811,1715789507.5591807,4.2115736,-2.2902942,0.3231318,2.4979043,2.2592852,-9.246897
812,1715789507.579208,4.2115736,-2.2902942,0.3231318,2.7416396,2.1731532,-9.38373
813,1715789507.5804439,4.335799,-2.451616,0.13569583,3.0672307,1.9752327,-9.620746
814,1715789507.5959647,4.2616057,-2.4796827,-0.06613952,3.392211,1.3387111,-10.034302
815,1715789507.59697,4.1163917,-2.460158,-0.2853029,3.392211,1.3387111,-10.034302
816,1715789507.609999,3.9977796,-2.4096382,-0.42417148,3.392211,1.3387111,-10.034302
817,1715789507.6117067,3.9977796,-2.4096382,-0.42417148,3.2150602,1.2049317,-10.089279
818,1715789507.6183589,3.9977796,-2.4096382,-0.42417148,2.9560533,1.0839803,-10.13204
819,1715789507.6194441,3.999244,-2.3849885,-0.51791996,2.9560533,1.0839803,-10.13204
820,1715789507.6282392,3.999244,-2.3849885,-0.51791996,2.9560533,1.0839803,-10.231611
821,1715789507.6297295,3.9494562,-2.353505,-0.56819576,2.5968645,0.98868537,-10.231611
822,1715789507.6454668,3.4869373,-2.3183608,-0.40684342,1.9047542,1.0998629,-10.102718
823,1715789507.6623406,3.2221353,-2.2004812,-0.2111095,1.7947985,1.2177598,-9.802173
824,1715789507.6748085,3.2221353,-2.2004812,-0.2111095,1.8772652,1.1774428,-9.537668
825,1715789507.676112,3.0800939,-2.1060312,0.014643434,1.8772652,1.1774428,-9.537668
826,1715789507.678394,2.972709,-2.0779645,0.16425052,2.1521547,0.96669424,-9.309204
827,1715789507.6956878,2.972709,-2.179248,0.24259292,2.5437193,0.61178154,-9.22857
828,1715789507.6980333,2.5919795,-2.4835875,0.20525214,2.8271606,0.44257188,-9.209634
829,1715789507.7120926,2.5919795,-2.4835875,0.20525214,2.8741972,0.56779927,-9.24262
830,1715789507.7135956,2.3083544,-2.9617262,0.026602242,2.8741972,0.56779927,-9.24262
831,1715789507.7146091,2.0901673,-3.4447155,-0.21232979,2.6017513,0.7858781,-9.486356
832,1715789507.7310271,1.2456987,-4.139089,-0.40562314,2.1704805,1.3997977,-10.085614
833,1715789507.7322958,-0.60382813,-5.1849046,-0.27846932,1.769753,1.8035797,-10.502835
834,1715789507.7625954,-1.9686267,-5.82827,-0.12861817,1.7703638,1.6539177,-10.453966
835,1715789507.764016,-4.7231483,-6.9841557,0.6138345,3.1686344,-2.074193,-6.618954
836,1715789507.7785869,-4.979164,-6.8499246,0.45394647,3.1686344,-2.074193,-6.618954
837,1715789507.7803285,-4.979164,-6.8499246,0.45394647,3.678707,-1.5720617,-3.0258446
838,1715789507.781351,-4.538153,-6.3766665,0.12666571,3.211395,1.0906999,1.2636511
839,1715789507.8070943,-3.3729625,-5.865855,0.018060237,2.6744444,2.191479,4.6893835
840,1715789507.8178124,-3.3729625,-5.3118143,-0.22306833,2.2731059,2.1878138,6.5213685
841,1715789507.8190207,-2.0699105,-5.3118143,-0.22306833,2.2731059,2.1878138,6.5213685
842,1715789507.8309088,-1.0914545,-4.69679,-0.3973252,2.2731059,2.1878138,6.5213685
843,1715789507.8321507,-0.1952458,-4.054889,-0.55989784,1.3574189,2.0412061,8.314869
844,1715789507.8600667,0.46834585,-3.605824,-0.63043034,0.6164394,1.2311989,9.07112
845,1715789507.8615062,1.0751027,-3.144037,-0.71975535,0.6164394,1.2311989,9.07112
846,1715789507.862514,1.4470459,-2.8562934,-0.7343987,0.1662317,0.9398162,9.404653
847,1715789507.883989,1.9840024,-2.5019224,-0.6821705,-0.5894086,0.88056225,9.905561
848,1715789507.8851502,2.8145597,-2.2536857,-0.4249037,-1.5472453,1.212262,10.51887
849,1715789507.89877,2.8145597,-2.2536857,-0.4249037,-2.0774763,1.4523321,10.838353
850,1715789507.9009678,3.1330545,-2.1409314,-0.22916976,-2.0774763,1.4523321,10.838353
851,1715789507.9140205,3.5638459,-2.1006618,0.044174362,-2.559449,1.6502525,11.176162
852,1715789507.9213805,3.5638459,-2.1006618,0.044174362,-2.7885234,1.7101172,11.380191
853,1715789507.9240289,4.221092,-2.1582592,0.28749946,-2.9949958,1.6960673,11.710669
854,1715789507.9382432,4.694838,-2.199993,0.47810817,-3.0230958,1.4187346,11.756483
855,1715789507.9454505,5.01138,-2.0901673,0.65190744,-2.699948,0.97585726,11.444942
856,1715789507.9668696,5.028708,-1.7519039,0.6894922,-1.9259818,0.35643986,10.521925
857,1715789507.981241,4.394617,-1.6381732,0.30214286,-1.4293483,-0.34788775,9.809045
858,1715789507.9940085,4.394617,-1.6054696,0.12739788,-1.7091246,-0.48716503,9.709474
859,1715789507.9952602,4.0775867,-1.6054696,0.12739788,-1.7091246,-0.48716503,9.709474
860,1715789508.0283792,3.8428035,-1.6293873,-0.07443746,-2.527684,-0.070554934,9.71314
861,1715789508.0628624,3.6468256,-1.6086423,0.004148973,-3.538666,0.40775254,9.728411
862,1715789508.0642807,3.8208385,-1.234472,0.42929673,-3.7164278,-0.15790866,8.908629
863,1715789508.072351,3.6995418,-0.97650355,0.4148973,-3.593033,-0.3680463,8.367403
864,1715789508.0834172,3.6995418,-0.97650355,0.4148973,-3.593033,-0.3680463,7.7748637
865,1715789508.0854223,3.6241283,-0.73195815,0.30751213,-3.6180785,-0.35155296,7.7748637
866,1715789508.1116447,3.4234827,-0.45419052,0.1786499,-3.8092792,-0.12003502,7.261126
867,1715789508.1134717,2.940493,-0.2613853,0.073949344,-4.597906,-0.15118915,6.448675
868,1715789508.1256313,2.7184012,-0.20622836,0.18621568,-4.990082,-0.5684101,6.2367053
869,1715789508.134533,2.7184012,-0.20622836,0.57746994,-5.3107862,-1.6844609,6.3692627
870,1715789508.13661,2.6703217,-0.20744865,0.57746994,-5.3107862,-1.6844609,6.3692627
871,1715789508.1438537,2.6703217,-0.20744865,0.57746994,-5.3107862,-2.935513,6.7730446
872,1715789508.1451771,3.1237803,0.04002539,1.2025006,-5.048114,-2.935513,6.7730446
873,1715789508.1649137,4.0639195,0.5398851,1.9971815,-3.896022,-4.358218,7.1358986
874,1715789508.1671999,5.0860615,1.2793787,2.658607,-2.2027037,-5.626985,7.261126
875,1715789508.1798453,6.1950884,2.7281635,3.70125,0.3366631,-6.4406576,7.2189765
876,1715789508.1808932,7.954558,5.019434,3.3617363,5.4215055,-7.441255,7.079088
877,1715789508.1923807,7.954558,5.019434,3.3617363,5.385464,-7.436979,4.9471684
878,1715789508.1936016,7.9948273,5.1414623,-0.23478307,5.385464,-7.436979,4.9471684
879,1715789508.2146478,7.9950714,2.4079297,-2.8394535,-2.6443594,-0.07727446,-5.384395
880,1715789508.2331393,7.455674,0.824944,-0.82714057,-5.6577578,3.6758816,-7.59756
881,1715789508.2355292,2.9514759,-0.86155254,1.6357325,-7.368791,7.749742,-5.9011874
882,1715789508.2542033,2.9514759,-1.3474706,2.3522847,-6.884986,8.498663,-4.8352275
883,1715789508.255316,2.5107083,-1.513216,3.4669247,-6.884986,8.498663,-4.8352275
884,1715789508.2780893,2.6781316,-1.148808,3.4530132,-1.6810248,6.637967,-2.371608
885,1715789508.279488,3.1208515,-0.8639931,3.0166392,0.89499396,4.9305987,-1.6996561
886,1715789508.2857466,4.1307907,-0.4761557,2.0240278,3.3757176,2.653904,-1.9446131
887,1715789508.2882729,4.382414,-0.2630937,1.2491155,3.3757176,2.653904,-1.9446131
888,1715789508.2895174,4.382414,-0.2630937,1.2491155,4.232762,1.7449366,-2.8041005
889,1715789508.3266613,3.8652568,0.052716363,0.28676724,3.968257,2.0723603,-4.0594287
890,1715789508.3276665,3.640236,0.1342315,-0.17718557,3.034855,2.649628,-4.45588
891,1715789508.3286707,3.2648454,0.2545517,-0.25796852,3.034855,2.649628,-4.45588
892,1715789508.3360405,3.2648454,0.2545517,-0.25796852,3.034855,2.649628,-4.8443904
893,1715789508.337057,3.2648454,0.2545517,-0.25796852,1.6805667,3.284317,-4.8443904
894,1715789508.3488872,3.033235,0.2596769,-0.03636453,0.7715992,3.6599991,-5.1205015
895,1715789508.3744657,2.8682523,0.084931925,0.5406173,0.74960804,3.7003162,-5.929898
896,1715789508.3754654,2.9046168,-0.11299851,0.6599613,0.74960804,3.7003162,-5.929898
897,1715789508.3950481,2.9046168,-0.81786627,0.6504431,1.6640732,3.6337318,-6.6165104
898,1715789508.3968801,3.0398245,-0.81786627,0.6504431,1.6640732,3.6337318,-6.6165104
899,1715789508.420634,3.0398245,-0.81786627,0.6504431,1.6640732,3.8108828,-6.890178
900,1715789508.4232633,3.263137,-1.3142787,0.56770766,2.3714552,3.8108828,-6.890178
901,1715789508.4303389,3.3029184,-1.5742302,0.48640612,2.3714552,3.8108828,-6.890178
902,1715789508.4368658,3.3029184,-1.5742302,0.48640612,2.3714552,3.941608,-7.0331206
903,1715789508.4384332,3.4020057,-1.8361037,0.41172457,3.3237941,3.96421,-7.1546826
904,1715789508.4508982,3.4020057,-1.8361037,0.41172457,3.8680751,3.8670824,-7.231041
905,1715789508.4519122,3.4974625,-2.0140214,0.28579104,3.8680751,3.8670824,-7.231041
906,1715789508.4590316,3.5531073,-2.1243353,0.13618395,3.8680751,3.8670824,-7.231041
907,1715789508.4604077,3.5531073,-2.1243353,0.13618395,4.190001,3.7638462,-7.2964034
908,1715789508.462501,3.5667744,-2.1890104,0.037584815,4.190001,3.7638462,-7.2964034
909,1715789508.4807062,3.6129017,-2.288586,-0.20281157,5.0494885,2.68628,-7.896273
910,1715789508.4976077,3.524309,-2.3295875,-0.37023485,5.0494885,2.68628,-7.896273
911,1715789508.4999673,3.524309,-2.3295875,-0.37023485,5.045823,2.060143,-8.257905
912,1715789508.5200512,3.1472096,-2.233917,-0.5301228,4.5681267,1.2947289,-8.657412
913,1715789508.5276184,3.1472096,-2.233917,-0.5301228,4.5681267,1.2947289,-8.736213
914,1715789508.5292964,3.1215837,-2.1621642,-0.43832684,4.2657485,0.9654725,-8.736213
915,1715789508.5305176,3.0791178,-2.0428202,-0.26504618,4.063552,0.5549711,-8.860219
916,1715789508.5625272,3.0791178,-2.0428202,-0.25650415,3.9939134,0.25442538,-8.954292
917,1715789508.5635507,2.9146233,-2.037939,-0.31898284,3.728798,-0.11881329,-9.113728
918,1715789508.5645673,2.6302965,-1.9642338,-0.28627914,3.728798,-0.11881329,-9.113728
919,1715789508.575878,2.4555209,-1.8966299,-0.15619664,3.6481636,-0.3979787,-9.047754
920,1715789508.5887535,2.4555209,-1.8966299,-0.15619664,3.6481636,-0.3979787,-8.849223
921,1715789508.5900753,2.2344053,-1.8412288,-0.021477038,3.7281868,-1.1933253,-8.627479
922,1715789508.592447,2.1616762,-1.8773494,0.013911263,3.7281868,-1.1933253,-8.627479
923,1715789508.6126955,2.0486777,-1.9383637,-0.18304294,3.568751,-1.289842,-8.41612
924,1715789508.6281223,2.0010865,-2.1162813,-0.38878322,3.241938,-1.1707232,-8.435667
925,1715789508.6296437,1.0748587,-3.2609403,-0.93891877,2.4160483,-0.70829827,-8.81196
926,1715789508.6367974,1.0748587,-3.2609403,-0.93891877,1.0361038,0.31612277,-9.59509
927,1715789508.6504374,-2.6776435,-4.5947742,-0.66947955,-1.213102,1.5219707,-9.716041
928,1715789508.6919982,-4.476864,-5.737237,0.83006924,-1.2644147,0.3277292,-8.231638
929,1715789508.6940002,-4.3970575,-6.0396237,1.1724815,1.5840499,-1.4547756,-2.8865674
930,1715789508.709,-4.232807,-5.397967,0.413677,3.0000355,0.7883216,1.599627
931,1715789508.7230046,-4.232807,-5.397967,0.413677,3.0000355,1.2116512,3.2080352
932,1715789508.7250063,-3.6551235,-5.2061377,-0.017816179,2.9090166,1.2116512,3.2080352
933,1715789508.7390068,-2.7149842,-4.917662,-0.4685899,2.9090166,1.2116512,3.2080352
934,1715789508.741326,-1.366507,-4.1329875,-0.7056,1.1955396,1.2794572,5.5916314
935,1715789508.742472,-1.366507,-4.1329875,-0.7056,0.67324984,1.398576,5.9489875
936,1715789508.7595627,-1.366507,-4.1329875,-0.7056,-0.20883955,1.7052304,6.7779317
937,1715789508.7629771,-0.89401215,-3.6448731,-0.5415935,-0.20883955,1.7052304,6.7779317
938,1715789508.7639935,-0.6594732,-3.4620438,-0.44027928,-0.4873941,1.6777414,7.3906293
939,1715789508.776577,-0.16766733,-3.2990134,-0.35022214,-0.4873941,1.6777414,7.3906293
940,1715789508.7778888,-0.16766733,-3.2990134,-0.35022214,-0.64011043,1.2928963,8.217741
941,1715789508.8018634,-0.16766733,-3.2990134,-0.35022214,-0.69753176,0.6606508,9.070509
942,1715789508.8034117,1.2581456,-2.8470192,-0.25601605,-0.78305286,0.17440203,9.756511
943,1715789508.8104498,1.722861,-2.7293837,-0.18060236,-0.78305286,0.17440203,9.756511
944,1715789508.8119178,1.722861,-2.7293837,-0.18060236,-0.8704066,0.064446285,10.201832
945,1715789508.8185585,1.722861,-2.7293837,-0.18060236,-0.92721707,0.046731193,10.557355
946,1715789508.8208325,2.8172445,-2.5997894,0.028554698,-0.92721707,0.046731193,10.557355
947,1715789508.8328125,2.8172445,-2.5997894,0.028554698,-0.92721707,0.046731193,11.3252125
948,1715789508.8349977,3.3229308,-2.547805,0.1718163,-0.82337,0.041233405,11.3252125
949,1715789508.865266,3.3229308,-2.6178496,0.183287,-0.62606055,-0.0015271631,12.069246
950,1715789508.8679428,4.5362005,-2.5873425,-0.017084008,-0.7806094,0.032070424,12.284271
951,1715789508.874193,4.5362005,-2.5873425,-0.017084008,-1.1654545,0.04062254,12.349023
952,1715789508.8762095,4.7617097,-2.572943,-0.14228538,-1.1654545,0.04062254,12.349023
953,1715789508.8961084,5.1805115,-2.4823673,-0.23429495,-1.9986748,0.11209377,12.115672
954,1715789508.8985684,5.3762455,-2.3496,-0.1398448,-2.80013,0.24587326,11.542069
955,1715789508.905917,5.3762455,-2.3496,-0.1398448,-3.3425782,0.28191432,10.92815
956,1715789508.9073548,5.2168765,-2.1463006,0.13471961,-3.3425782,0.28191432,10.92815
957,1715789508.917383,4.889107,-2.0066996,0.37316352,-3.5728745,0.310625,10.555522
958,1715789508.9429321,4.530587,-1.9425126,0.5193843,-3.7023778,0.30634892,10.344774
959,1715789508.9627557,4.338484,-1.892725,0.5196284,-3.742084,0.33505958,9.93244
960,1715789508.9648523,3.934569,-1.3804183,1.0092071,-2.6736808,-0.4615087,9.392435
961,1715789508.9719033,4.160566,-1.2276385,0.9779679,-2.1941516,-0.8371908,8.970327
962,1715789509.0006204,4.2530637,-0.7980977,0.78101367,-1.4336244,-1.0283916,7.705225
963,1715789509.003502,3.93945,-0.6043163,0.4756676,-1.2161564,-0.8854492,6.594672
964,1715789509.0156713,3.93945,-0.6043163,0.4756676,-1.3340533,-0.52198434,6.097428
965,1715789509.0166807,2.908522,-0.2933568,0.0976229,-1.7286723,-0.12370021,5.824371
966,1715789509.0246668,2.908522,-0.2933568,0.0976229,-2.2723424,0.17440203,5.824371
967,1715789509.0260623,2.4909093,-0.24259292,-0.003172744,-2.2723424,0.17440203,5.824371
968,1715789509.038239,2.0486777,-0.1261776,0.014399378,-3.1128929,0.600786,6.1707315
969,1715789509.0453317,2.0486777,-0.1261776,0.014399378,-3.6718347,0.2929099,6.6026134
970,1715789509.0470521,2.3561897,-0.12568948,0.27334413,-3.6718347,0.2929099,6.6026134
971,1715789509.0707011,3.4574065,0.111290105,0.8808331,-3.1061735,-1.9679024,6.670419
972,1715789509.071899,3.4574065,0.111290105,0.8808331,-2.5527296,-3.0705142,6.534807
973,1715789509.0740287,3.9311523,0.3968371,1.0738825,-2.5527296,-3.0705142,6.534807
974,1715789509.1010692,5.382591,2.5353582,1.4494865,0.76121444,-5.8059688,5.613012
975,1715789509.128993,7.2623806,3.925783,0.4080637,1.5333481,-5.192049,5.2684836
976,1715789509.1301935,7.99019,4.0256023,-0.5515999,0.35315648,-1.8102992,2.2764657
977,1715789509.136714,7.99019,4.0256023,-0.5515999,0.35315648,0.49327368,-0.45715627
978,1715789509.1391532,7.9928746,3.4373937,-1.0189695,-2.0530417,0.49327368,-0.45715627
979,1715789509.151218,7.9928746,3.4373937,-1.0189695,-4.101273,2.2208006,-2.085112
980,1715789509.1526995,7.273852,2.378887,-0.7351309,-4.101273,2.2208006,-2.085112
981,1715789509.1594646,6.0864825,0.99798054,0.16717921,-5.6595902,3.5537086,-3.159624
982,1715789509.1702006,6.0864825,0.3778006,0.87448764,-5.6595902,3.5537086,-3.159624
983,1715789509.1719954,5.4152946,0.3778006,0.87448764,-5.8605647,4.1163154,-3.3428836
984,1715789509.1890197,4.441964,-0.48835856,2.3901136,-2.2253058,4.4602327,-2.9507082
985,1715789509.2122805,4.441964,-0.48835856,2.3901136,-2.2253058,2.6288586,-3.812639
986,1715789509.2138882,4.194978,-0.42905265,1.8134062,1.7184403,2.6288586,-3.812639
987,1715789509.2150283,3.8301127,-0.36388937,1.2076257,2.6829965,1.6588045,-4.284227
988,1715789509.226058,3.5689712,-0.30873242,0.8705827,3.075172,0.93615097,-4.612262
989,1715789509.2449763,3.1340308,-0.0873725,0.012202863,2.5461626,0.30573806,-4.802241
990,1715789509.263967,3.1735678,-0.06199054,-0.22502078,1.5370133,0.78893244,-4.7497063
991,1715789509.2658868,3.2436123,-0.079562664,-0.32898918,0.7092909,1.5036448,-4.737489
992,1715789509.2796245,3.2238436,-0.255772,-0.15839316,-1.0793226,3.6593883,-5.0245957
993,1715789509.2976072,3.1120656,-0.36706212,0.17401282,-1.4458417,4.5054364,-5.26039
994,1715789509.2993245,3.0237167,-0.50962204,0.36364532,-1.335275,5.038111,-5.5065684
995,1715789509.315489,2.9712443,-0.61700726,0.47054234,-1.0518336,5.232366,-5.7539687
996,1715789509.326736,2.990769,-0.8630169,0.5913812,-0.42325327,5.2708507,-6.1455336
997,1715789509.3342767,2.990769,-0.8630169,0.5913812,0.7392233,4.999016,-6.6482754
998,1715789509.3365302,2.9761255,-1.1602787,0.63750803,0.7392233,4.999016,-6.6482754
999,1715789509.3467345,2.9932096,-1.3513755,0.60211974,0.7392233,4.999016,-6.6482754
1000,1715789509.348701,2.9932096,-1.3513755,0.60211974,1.3574189,4.759557,-6.8297024
