id,timestamp,acc_x,acc_y,acc_z,gyro_x,gyro_y,gyro_z
0,1715789546.3278365,0.25674823,-0.09884319,1.0284877,0.054443367,0.22388211,-0.21525364
1,1715789546.3331687,0.25674823,-0.09884319,1.0284877,0.10392345,0.21227567,-0.2140319
2,1715789546.3358734,0.26699865,-0.09859913,1.0233626,0.10392345,0.21227567,-0.2140319
3,1715789546.3472831,0.26699865,-0.09859913,1.0138444,0.1698969,0.19639318,-0.22380576
4,1715789546.3496096,0.255772,-0.09274176,1.0138444,0.1698969,0.19639318,-0.22380576
5,1715789546.3608906,0.24259292,-0.0776102,0.9694259,0.25541803,0.16340645,-0.19326249
6,1715789546.3800473,0.24259292,-0.0776102,0.9694259,0.25541803,0.03940081,-0.199982
7,1715789546.381546,0.28627914,-0.058573738,0.94184744,0.24197899,-0.09437868,-0.24335344
8,1715789546.3970683,0.2865232,-0.049787678,0.9386747,0.23831381,-0.13041973,-0.26045766
9,1715789546.410425,0.2865232,-0.049787678,0.9386747,0.23831381,-0.13041973,-0.25740334
10,1715789546.4118965,0.2889638,-0.05686534,0.90645915,0.19005544,-0.08032878,-0.25740334
11,1715789546.4129102,0.28164205,-0.054668825,0.8886429,0.102701716,-0.01740966,-0.23724478
12,1715789546.430267,0.3316738,-0.041245673,0.9333054,-0.1501965,0.28313604,-0.1474476
13,1715789546.4456744,0.35290676,-0.091033354,0.9552705,-0.18745928,0.46211955,-0.12301299
14,1715789546.4682977,0.35290676,-0.091033354,0.9552705,-0.13187054,0.6765333,-0.07047858
15,1715789546.4695516,0.18401916,-0.102259986,0.8798569,0.15096007,0.6575964,0.18852828
16,1715789546.487991,0.18401916,-0.09396204,0.820551,0.23342688,0.25259277,0.43715045
17,1715789546.4902508,0.15668476,-0.09396204,0.820551,0.23342688,0.25259277,0.43715045
18,1715789546.497336,0.19915071,-0.09030118,0.79077595,0.29878947,0.008857546,0.54588443
19,1715789546.50871,0.19915071,-0.09030118,0.79077595,0.29878947,-0.17867808,0.5745951
20,1715789546.5097094,0.23478307,-0.09835507,0.80517536,0.35926512,-0.17867808,0.5745951
21,1715789546.5111735,0.40635532,-0.056133166,0.78101367,0.40935606,-0.4914411,0.43287438
22,1715789546.5284193,0.40635532,-0.056133166,0.78101367,0.46433395,-0.8219192,0.09934196
23,1715789546.529845,0.50815773,-0.035876416,0.8044432,0.5828418,-1.0699304,-0.19448422
24,1715789546.5308545,0.4927516,-0.02757847,0.8339742,0.5828418,-1.0699304,-0.19448422
25,1715789546.5467348,0.48445365,-0.028554698,0.8442246,0.7080692,-1.1090258,-0.32398766
26,1715789546.5717704,0.48445365,0.0012202862,0.58259517,0.9200394,-0.3857614,-0.06681339
27,1715789546.573096,0.51669973,0.0012202862,0.58259517,0.9200394,-0.3857614,-0.06681339
28,1715789546.5807743,0.6301863,0.056377225,0.4881145,0.78809255,-0.0571159,0.11461359
29,1715789546.5965834,0.77100736,0.15595257,0.40196228,0.6097199,0.050396383,0.15798502
30,1715789546.606064,0.77100736,0.15595257,0.40196228,0.6097199,-0.3539964,-0.13706289
31,1715789546.608133,1.0921867,0.33997175,0.28261828,0.3299436,-0.3539964,-0.13706289
32,1715789546.615326,1.2947541,0.56087404,0.20940112,0.050167307,-0.6123924,-0.6330855
33,1715789546.6285696,1.2947541,0.56087404,0.2997023,-0.33589953,-0.57940567,-1.8261052
34,1715789546.6300428,0.7290295,1.0367857,0.3338703,-0.64072126,-0.5012149,-2.1834614
35,1715789546.6475058,0.7290295,1.0367857,0.3338703,-0.88873255,-0.39858958,-2.053958
36,1715789546.6496522,0.5123067,1.1617429,0.3653537,-0.88873255,-0.39858958,-2.053958
37,1715789546.6561606,0.5115745,1.0982882,0.52499765,-1.2741885,-0.44868052,-1.6287959
38,1715789546.6794791,0.80761594,0.846421,0.8515463,-1.512426,-0.93187493,-1.392391
39,1715789546.6808448,1.4797496,0.9308648,2.2031658,-0.8062658,-1.6239853,-1.2311225
40,1715789546.6939082,1.8012035,1.2025006,2.7537894,0.5217553,-3.0137036,-1.3868932
41,1715789546.7090552,1.8012035,1.2025006,2.7537894,1.8064048,-4.644714,-1.9097939
42,1715789546.711157,2.3244622,1.2579015,2.965143,1.8064048,-4.644714,-1.9097939
43,1715789546.7122564,2.8018687,1.2244657,2.917552,2.5730407,-6.0949078,-2.71186
44,1715789546.721254,2.8018687,1.2244657,2.917552,2.825939,-7.6935425,-3.8780017
45,1715789546.7223704,2.9797864,1.2583896,2.7054663,2.825939,-7.6935425,-3.8780017
46,1715789546.7522779,3.3463604,1.2901171,2.9129148,0.2700788,-8.140696,-3.658701
47,1715789546.7693179,4.339216,1.0524054,3.5657985,-0.87712616,-2.8512135,-4.77353
48,1715789546.7805328,4.339216,1.0524054,3.5657985,-0.2729804,0.56107974,-6.444247
49,1715789546.7820158,4.5532846,0.36950266,4.149095,-0.2729804,0.56107974,-6.444247
50,1715789546.796088,4.5532846,0.36950266,4.149095,0.20960313,2.0576997,-7.248756
51,1715789546.7984083,4.0148635,-0.03099527,3.6565878,0.20960313,2.0576997,-7.248756
52,1715789546.818042,2.956357,-0.41465324,3.0654504,0.79786634,3.2775974,-7.9347577
53,1715789546.8194156,2.2197618,-0.69583774,2.7913742,2.3311381,2.3991733,-7.8626757
54,1715789546.820881,1.3047606,-1.0258032,2.8216374,2.3311381,2.3991733,-7.8626757
55,1715789546.8504226,0.82347965,-1.3211124,2.4577177,5.2303047,-1.4340062,-7.0532794
56,1715789546.8657718,0.94306767,-1.3489349,2.2400186,5.826509,-1.8469511,-6.833368
57,1715789546.8773875,0.94306767,-1.3489349,2.2400186,5.826509,-2.1340578,-6.782055
58,1715789546.8784337,1.379198,-1.362114,2.0218313,6.764798,-1.9782871,-7.0789356
59,1715789546.8805313,1.7516599,-1.4121457,1.8566046,6.764798,-1.9782871,-7.0789356
60,1715789546.9056466,2.1365383,-1.6445189,1.6269467,7.165526,-1.484708,-8.0269985
61,1715789546.9265277,2.1365383,-1.7418976,1.2740093,7.3946,-1.5164729,-8.452161
62,1715789546.9286063,1.8732004,-1.7418976,1.2740093,7.639557,-1.806634,-8.82601
63,1715789546.9296114,1.8732004,-1.7418976,1.2740093,7.601073,-2.1542163,-8.926192
64,1715789546.9356291,1.812186,-1.7743572,1.0726621,7.601073,-2.1542163,-8.926192
65,1715789546.9529276,1.812186,-1.7743572,1.0726621,7.437361,-2.6746736,-9.017211
66,1715789546.955323,1.7611781,-1.6447629,0.77198356,7.437361,-2.6746736,-9.017211
67,1715789546.9566872,1.7611781,-1.6447629,0.77198356,7.099552,-3.2085698,-9.10151
68,1715789546.964693,1.7611781,-1.6447629,0.70340353,6.8539844,-3.3991597,-9.0911255
69,1715789546.9669344,1.7109023,-1.5595868,0.70340353,6.8539844,-3.3991597,-9.0911255
70,1715789546.9733052,1.738725,-1.4053122,0.5530642,6.0555835,-3.3148603,-8.93169
71,1715789546.981768,1.738725,-1.4053122,0.5530642,6.0555835,-3.0008755,-8.880988
72,1715789546.9829917,1.8387884,-1.3032962,0.4127008,5.378745,-3.0008755,-8.880988
73,1715789546.9989462,1.8890641,-1.2657113,0.33777523,4.7593274,-2.767525,-8.924971
74,1715789547.0071092,1.8890641,-1.2657113,0.33777523,4.7593274,-2.767525,-8.921305
75,1715789547.0081096,1.7043128,-1.1627192,0.38121742,4.0415606,-2.4236078,-8.921305
76,1715789547.0105813,1.5600749,-1.1336764,0.45931572,3.628005,-2.3057108,-8.78386
77,1715789547.0309608,1.4053122,-1.195911,0.5950421,3.301803,-2.0955732,-8.467432
78,1715789547.0323043,1.2452105,-1.3784659,0.68924814,3.2401056,-2.0289888,-8.172384
79,1715789547.046549,1.2452105,-1.3784659,0.68924814,3.2401056,-2.1395555,-8.072203
80,1715789547.0498176,1.0362976,-1.5456756,0.7507506,3.3506722,-2.1395555,-8.072203
81,1715789547.061887,0.5669755,-2.2683291,0.7507506,3.7263544,-2.5482244,-8.031275
82,1715789547.0770705,-0.30458343,-3.2099326,0.41636166,3.6292267,-1.9172006,-8.196208
83,1715789547.09631,-2.447467,-4.198639,-0.35193056,2.1081724,-1.1597277,-6.7252445
84,1715789547.113007,-3.5152783,-4.6611576,-0.34338856,0.059941154,-0.46700647,-2.3074672
85,1715789547.1151628,-3.7737353,-5.023339,0.15400012,0.059941154,-0.46700647,-2.3074672
86,1715789547.1447234,-3.7737353,-5.2637353,0.8354385,0.059941154,-0.46700647,-2.3074672
87,1715789547.1466658,-2.5885627,-5.1412187,1.0331249,1.4441618,2.2434027,5.2507687
88,1715789547.155263,-2.5885627,-5.1412187,1.0331249,1.4441618,3.0717359,6.972798
89,1715789547.1572943,-1.4243486,-4.943776,0.7007189,2.005547,3.0717359,6.972798
90,1715789547.169802,-0.5884525,-4.6811705,0.28261828,2.1735349,3.2097914,7.4578247
91,1715789547.1719284,0.09811102,-4.06514,-0.48176903,1.8607719,2.8273897,7.548844
92,1715789547.186246,0.22428861,-3.6456053,-0.87180305,1.0513754,2.4419339,7.537237
93,1715789547.200493,0.22428861,-3.6456053,-0.87180305,1.0513754,2.287385,7.8622174
94,1715789547.202243,0.28359452,-3.3261037,-0.99407566,-0.32979086,2.287385,7.8622174
95,1715789547.2037454,0.37365165,-3.1298816,-0.9538062,-1.3639858,2.3289237,8.345412
96,1715789547.2199168,0.37365165,-3.1298816,-0.70999306,-2.89909,2.5054638,9.418702
97,1715789547.222296,1.250824,-2.8853364,-0.42319524,-3.9766564,2.6942213,10.291018
98,1715789547.2323153,2.3930423,-2.7201097,0.12324891,-5.536806,3.1041117,11.37958
99,1715789547.2411032,2.3930423,-2.7201097,0.12324891,-6.2551837,3.2085698,11.501142
100,1715789547.2434134,2.991013,-2.5797765,0.4075756,-6.2551837,3.2085698,11.501142
101,1715789547.261474,2.991013,-2.5797765,0.4075756,-6.2551837,3.085175,11.418675
102,1715789547.2627888,3.7063754,-2.5543947,1.1876131,-6.767089,2.4663684,11.307497
103,1715789547.273244,3.9623916,-2.4696763,1.4870713,-6.198984,1.6258179,11.120573
104,1715789547.2958443,4.0822234,-2.3727856,1.6147438,-6.198984,1.6258179,11.120573
105,1715789547.297395,4.037561,-2.2627158,1.6357325,-4.66388,0.24587326,10.754053
106,1715789547.3159215,3.7320013,-2.1072514,1.5576344,-2.637029,-1.1756102,11.209148
107,1715789547.3283699,3.7320013,-2.1072514,1.4553438,-2.1043544,-1.4731015,11.424172
108,1715789547.3307898,4.05855,-2.0994415,1.4553438,-2.1043544,-1.4731015,11.424172
109,1715789547.331939,4.700451,-2.0230515,1.2686402,-1.4953218,-1.6710218,11.193876
110,1715789547.3660247,4.700451,-2.0230515,1.0380061,-1.1000919,-1.5726726,10.220768
111,1715789547.3686452,4.2445216,-1.4856069,0.70242727,-1.2619712,-1.144456,9.286144
112,1715789547.391864,3.7974088,-1.3723644,0.4058672,-2.1813235,-0.5012149,9.317909
113,1715789547.3933997,3.748109,-1.2847478,0.23258655,-2.8746555,-0.08032878,9.360059
114,1715789547.39528,3.7154052,-1.2110425,0.14643435,-4.133038,0.5702427,9.300195
115,1715789547.4320831,3.7154052,-1.2110425,0.14643435,-5.2991796,1.1389582,9.075396
116,1715789547.4347062,3.7207747,-0.7678346,0.80663973,-7.1720924,2.0228803,7.851222
117,1715789547.4363432,3.657808,-0.43808278,1.2127509,-7.184921,1.8219056,7.1267357
118,1715789547.4680512,3.370522,0.27041543,1.8075489,-6.3565874,0.7302894,5.5311556
119,1715789547.470397,3.2179863,0.4600479,1.7828993,-5.936923,0.5849035,4.9838204
120,1715789547.4721131,2.9129148,0.64360946,1.6081542,-5.7884827,0.8023715,4.319199
121,1715789547.4822755,2.751349,0.77344793,1.6284109,-5.972964,1.1090258,3.7853029
122,1715789547.497352,2.6224866,0.8871786,1.7885126,-6.089639,1.2684617,3.3161583
123,1715789547.510324,2.4997258,0.918662,2.1345856,-5.9888463,1.0925325,3.0376039
124,1715789547.5113587,2.4386811,1.0751027,2.738658,-5.4482307,0.30940324,3.1591659
125,1715789547.5241332,2.4386811,1.603029,3.7058873,-4.076227,-1.4162911,3.9233584
126,1715789547.5263453,2.7515929,1.603029,3.7058873,-4.076227,-1.4162911,3.9233584
127,1715789547.5337698,3.6046033,1.9632576,4.3636217,-2.7781389,-2.7864618,4.3717337
128,1715789547.557685,6.9097185,2.9236534,5.3345118,-0.610178,-3.451694,4.22085
129,1715789547.5597281,6.9097185,2.9236534,5.3345118,1.1631638,-3.147483,3.200094
130,1715789547.562282,7.9877496,2.837257,4.8266287,3.301803,-2.1774292,0.51228684
131,1715789547.5788045,7.9950714,2.0608804,3.264113,3.7477345,1.5763378,-5.363626
132,1715789547.5852642,6.9587736,1.3933533,2.4245257,3.7477345,1.5763378,-5.363626
133,1715789547.5962653,6.9587736,1.3933533,2.4245257,3.7477345,3.2507193,-5.8052816
134,1715789547.5973885,5.3206005,0.7073084,1.5786233,2.5070674,3.2507193,-5.8052816
135,1715789547.6050904,4.386807,0.2208718,0.97333086,0.9530261,4.4425173,-5.2249594
136,1715789547.6337204,3.7444484,0.41416514,2.4769979,-0.8972847,5.0808716,-3.9415317
137,1715789547.647348,3.7444484,0.26699865,2.9143791,0.29573515,4.7784934,-4.2506294
138,1715789547.6492803,3.8764832,0.26699865,2.9143791,0.29573515,4.7784934,-4.2506294
139,1715789547.6660523,3.7737353,-0.14057697,2.7269433,3.0379093,3.800498,-5.2096877
140,1715789547.6740966,3.7737353,-0.14057697,2.0501418,4.397695,2.953228,-5.96655
141,1715789547.6772666,3.4947777,-0.3773125,2.0501418,4.397695,2.953228,-5.96655
142,1715789547.696793,3.1323223,-0.5464747,1.2769381,4.6866345,2.7156014,-6.655606
143,1715789547.717796,2.999311,-0.61749536,1.0843768,4.4007497,2.976441,-6.942102
144,1715789547.7438037,3.1257327,-1.0877936,0.995296,3.8564687,3.892128,-7.290906
145,1715789547.7608047,3.4927945,-1.5227342,0.9772358,4.166788,3.873802,-7.7356157
146,1715789547.7885828,3.4927945,-1.5227342,0.9772358,4.444121,3.58303,-7.987903
147,1715789547.79093,3.5233324,-1.8417171,0.7758885,5.2205305,2.5121834,-8.375802
148,1715789547.8088505,3.6124132,-1.8063287,0.60992956,5.2205305,2.5121834,-8.375802
149,1715789547.8101964,3.674648,-1.7655711,0.5301228,5.3726363,1.8274034,-8.533405
150,1715789547.818489,3.674648,-1.7655711,0.5301228,5.3494234,1.575116,-8.672072
151,1715789547.8201013,3.7483532,-1.747999,0.42905265,5.3494234,1.575116,-8.672072
152,1715789547.8216083,3.8825848,-1.7148073,0.27456442,5.215644,1.1346822,-9.061193
153,1715789547.831805,3.760068,-1.6738057,0.21306199,4.996343,0.70402217,-9.527894
154,1715789547.841977,3.687583,-1.6315837,0.24625377,4.8283553,0.441961,-9.767353
155,1715789547.862992,3.4676569,-1.4228842,0.3909797,4.717178,-0.0125227375,-10.15342
156,1715789547.8902097,3.305603,-1.4131219,0.24918245,4.717178,-0.0125227375,-10.15342
157,1715789547.8913617,3.228237,-1.4668145,0.1564407,4.416632,0.40653083,-10.120434
158,1715789547.8938978,3.228237,-1.4668145,0.1564407,4.241925,0.8695667,-10.057514
159,1715789547.8954375,3.0608134,-1.5105313,0.08395569,4.241925,0.8695667,-10.057514
160,1715789547.9225597,2.94269,-1.5781351,0.1381364,4.241925,0.8695667,-10.057514
161,1715789547.9246778,2.632981,-2.1211624,0.44686884,5.227861,0.10415252,-10.158307
162,1715789547.9328332,2.632981,-2.1211624,0.44686884,5.227861,0.10415252,-10.359282
163,1715789547.9338143,2.3388615,-2.489445,0.40293851,5.8368936,-0.3387248,-10.359282
164,1715789547.950522,2.3388615,-2.489445,0.40293851,6.3836184,-1.2538009,-10.380662
165,1715789547.9525235,1.8182874,-3.3775997,0.10982577,6.3836184,-1.2538009,-10.380662
166,1715789547.9594316,1.3943295,-3.8564706,-0.24942651,6.198526,-1.847562,-10.377608
167,1715789547.9614763,0.38658667,-4.119808,-0.7883354,6.198526,-1.847562,-10.377608
168,1715789547.9625006,0.38658667,-4.119808,-0.7883354,5.3518667,-2.1316142,-10.284757
169,1715789547.9890788,-0.6977902,-4.612102,-1.0384941,1.3965143,-2.5097399,-8.90359
170,1715789547.990832,-1.3716323,-5.619601,-0.5540405,1.3965143,-2.5097399,-8.90359
171,1715789547.998646,-1.3716323,-5.619601,-0.5540405,1.3965143,-2.554333,-8.534627
172,1715789548.0006478,-1.4438732,-5.7233253,-0.4886026,0.7954229,-2.554333,-8.534627
173,1715789548.009235,-2.649577,-6.6463804,1.0875497,-1.0432814,-2.8597655,-5.1388273
174,1715789548.0216062,-2.8382332,-6.5448527,1.6547692,-0.87162834,-2.2580633,-2.7515662
175,1715789548.0240233,-2.3586304,-6.09112,2.3635116,0.48388162,0.32650748,1.2569315
176,1715789548.0317404,-2.3586304,-5.810454,2.165825,1.6512451,2.0570886,3.440164
177,1715789548.0341792,-1.4795055,-5.810454,2.165825,1.6512451,2.0570886,3.440164
178,1715789548.0468683,-1.0707097,-5.6588945,1.9664303,1.9933296,2.414445,3.9984949
179,1715789548.0538116,-0.09518232,-5.0143085,1.1012168,2.6939921,2.9177978,5.507332
180,1715789548.0680187,0.5642909,-4.3167624,0.2306341,2.1735349,2.9226847,6.1798944
181,1715789548.0901499,0.6589851,-4.17765,0.09859913,1.9731711,2.9361238,6.278244
182,1715789548.0925856,1.1717494,-2.8814313,-0.18743597,0.4545601,3.212235,7.0497665
183,1715789548.0998187,1.1717494,-2.8814313,-0.18743597,-0.3804927,3.393051,7.850611
184,1715789548.1149828,1.1717494,-2.8814313,-0.18743597,-0.3804927,3.393051,9.291642
185,1715789548.1171305,1.7958342,-2.1733909,0.16522676,-0.8080984,3.4535267,9.291642
186,1715789548.124114,2.7154725,-1.6528167,0.20988922,-0.705473,3.4535267,10.003911
187,1715789548.1350276,3.1750324,-1.2705926,0.27041543,-0.46784642,3.3417382,10.181062
188,1715789548.1545825,3.1750324,-1.2705926,0.27041543,-0.46784642,2.726597,10.04545
189,1715789548.1565654,3.7954564,-0.7087728,0.40171823,0.43195808,2.726597,10.04545
190,1715789548.1644645,3.7954564,-0.7087728,0.40171823,1.0251082,2.3051,9.86891
191,1715789548.1672044,4.0783186,-0.504985,0.30092257,1.0251082,2.3051,9.86891
192,1715789548.1803935,3.9382298,-0.060770255,-0.17425688,1.4979179,2.115121,9.736352
193,1715789548.2160563,3.9382298,0.058817793,-0.6985224,-0.041462477,2.3692408,10.118753
194,1715789548.2181723,4.0517163,0.058817793,-0.6985224,-0.041462477,2.3692408,10.118753
195,1715789548.2195363,3.9201694,0.10372432,-0.77198356,-1.1874456,2.1584923,10.060111
196,1715789548.2470067,3.9201694,0.10372432,-0.77198356,-2.1935408,2.2666154,10.065608
197,1715789548.2499907,3.793992,-0.06272271,-0.5716126,-3.1996357,2.5231788,10.005744
198,1715789548.2615047,3.793992,-0.106164895,-0.18963248,-3.1996357,2.5231788,10.005744
199,1715789548.2635334,3.4927945,-0.18279888,0.24527754,-4.375551,2.554333,9.851194
200,1715789548.2802346,3.3795521,-0.19158493,0.7429407,-3.3535738,1.9795089,9.738185
201,1715789548.2831528,3.4015172,-0.12056428,1.1578381,-3.3535738,1.9795089,9.738185
202,1715789548.2955687,3.4015172,-0.12056428,1.0487446,-2.590603,1.8170186,9.46635
203,1715789548.2967374,3.5902042,0.028798755,1.0487446,-2.590603,1.8170186,9.46635
204,1715789548.3045309,3.5902042,0.028798755,0.92842424,-2.092748,1.7956384,9.044242
205,1715789548.3059525,3.6914878,0.22599702,0.92842424,-2.092748,1.7956384,9.044242
206,1715789548.3240666,3.6914878,0.22599702,0.92842424,-2.092748,1.7082846,8.2934885
207,1715789548.326861,3.4927945,1.1039014,0.43832684,-1.3065645,1.385137,7.301443
208,1715789548.3368003,3.4927945,1.1039014,0.43832684,-1.2308171,1.0589349,6.336887
209,1715789548.33869,3.1489182,1.5508008,0.340948,-1.2308171,1.0589349,6.336887
210,1715789548.3466854,2.7459795,1.8526996,0.22892569,-1.3481033,0.94959,5.800547
211,1715789548.355467,2.2356255,2.1153052,0.042954076,-1.7506634,1.1621711,5.375996
212,1715789548.3633583,2.2356255,2.2492926,-0.049787678,-2.3120487,1.5512923,5.1707454
213,1715789548.3656375,1.9732639,2.2492926,-0.049787678,-2.3120487,1.5512923,5.1707454
214,1715789548.3802056,1.4660825,2.5497575,-0.55867755,-5.1000376,3.1871893,5.526269
215,1715789548.4086916,1.704801,2.6346896,-0.14252943,-5.1000376,3.1871893,5.526269
216,1715789548.4098437,2.1021261,3.152579,0.9901707,-5.4433436,2.2146919,5.460906
217,1715789548.4280252,2.581485,3.7576275,1.7294507,-5.4433436,2.2146919,5.460906
218,1715789548.4300086,4.1588573,5.3708763,2.008652,-1.8923842,-0.112704635,4.11517
219,1715789548.437666,4.1588573,5.3708763,2.008652,-1.8923842,-1.0742066,3.0198886
220,1715789548.4392807,4.1588573,5.3708763,2.008652,-0.10377073,-1.0742066,3.0198886
221,1715789548.4485838,5.010648,5.487292,0.8442246,0.599946,-1.6129897,1.8555795
222,1715789548.4547648,5.010648,5.487292,0.8442246,-0.40431643,-1.5726726,0.33513594
223,1715789548.4717686,5.8775697,3.7710505,0.20818083,-2.7390435,-0.7443393,-1.6391805
224,1715789548.4934347,5.3757577,3.2157898,0.88254154,-5.418909,1.0308352,-3.1351895
225,1715789548.5056102,5.3757577,3.2157898,0.88254154,-5.418909,2.966056,-3.590284
226,1715789548.5077708,4.3501987,2.208291,3.08888,-4.6009607,2.966056,-3.590284
227,1715789548.5197845,4.3501987,1.5813079,3.2404397,-1.0017426,2.9404,-4.6079855
228,1715789548.5208018,3.7800806,1.5813079,3.2404397,-1.0017426,2.9404,-4.6079855
229,1715789548.53391,3.7800806,1.2923136,2.7081506,0.6830237,2.7259862,-5.067967
230,1715789548.53569,3.2275045,1.2923136,2.7081506,0.6830237,2.7259862,-5.067967
231,1715789548.5555077,3.2275045,1.2923136,2.7081506,0.6830237,2.6801713,-5.213964
232,1715789548.5581148,2.8819194,1.0306844,1.8766171,2.3299165,2.6929994,-5.33797
233,1715789548.5643275,2.8819194,1.0306844,1.8766171,2.3299165,2.6929994,-5.5786505
234,1715789548.5656397,2.9548926,0.84812945,1.3428334,2.7813458,2.6117544,-5.5786505
235,1715789548.5781126,2.9548926,0.58772033,0.6753369,2.867478,2.4895813,-5.833992
236,1715789548.5801356,3.008341,0.58772033,0.6753369,2.867478,2.4895813,-5.833992
237,1715789548.5863342,3.008341,0.58772033,0.6753369,2.7929523,2.395508,-6.1412573
238,1715789548.596746,3.0415328,0.46078008,0.5054731,2.6029732,2.355191,-6.48212
239,1715789548.6118352,3.0190797,0.3109289,0.39927766,2.348853,2.4394903,-6.899341
240,1715789548.613931,2.9631906,0.22648512,0.37633628,2.1943042,2.5622742,-7.1785064
241,1715789548.6253564,2.9631906,0.22648512,0.37633628,2.1943042,2.6337454,-7.504709
242,1715789548.6268234,2.9749053,-0.0019524579,0.36169282,2.050751,2.6337454,-7.504709
243,1715789548.6339903,3.024693,-0.15326795,0.3802412,2.0556378,2.6148088,-7.742946
244,1715789548.6514795,3.024693,-0.15326795,0.3802412,2.2034674,2.6374106,-8.005618
245,1715789548.6524866,3.066915,-0.37291947,0.41050428,2.4001658,2.617863,-8.21148
246,1715789548.6545932,3.0832667,-0.5196284,0.43539813,2.4001658,2.617863,-8.21148
247,1715789548.682674,3.0832667,-0.5196284,0.43539813,2.7025442,2.5170703,-8.40879
248,1715789548.685122,3.1162145,-0.8981612,0.23942018,3.2700381,1.9123137,-8.657412
249,1715789548.69817,3.1162145,-0.8981612,0.23942018,3.361057,1.5793921,-8.750263
250,1715789548.7000563,3.0766773,-0.9135367,0.13154685,3.361057,1.5793921,-8.750263
251,1715789548.7024362,3.024937,-0.8981612,0.061258372,3.3042464,1.317331,-8.7863035
252,1715789548.733368,2.999067,-0.8552071,-0.043198135,2.6029732,0.9275989,-8.906645
253,1715789548.7441914,2.9607499,-0.8495938,0.0017084008,2.4148266,0.97035944,-8.901147
254,1715789548.7558692,2.9607499,-0.86057633,0.12032023,2.2541692,1.0412198,-8.901147
255,1715789548.7573502,2.9107182,-0.86057633,0.12032023,2.2541692,1.0412198,-8.901147
256,1715789548.7691276,2.9107182,-0.86057633,0.12032023,2.2541692,1.0412198,-8.920694
257,1715789548.7706602,2.636154,-0.8788806,0.27505252,2.3848944,1.031446,-8.920694
258,1715789548.7820034,2.636154,-0.8788806,0.3121492,2.553493,0.9691377,-8.74843
259,1715789548.78332,2.438437,-0.9057269,0.3121492,2.553493,0.9691377,-8.74843
260,1715789548.7962325,2.3171406,-0.9081675,0.37243137,2.7385852,0.904386,-8.642751
261,1715789548.8041065,2.2019455,-0.9428237,0.4549227,3.039131,0.7699956,-8.499808
262,1715789548.8128233,2.2019455,-0.9428237,0.4549227,3.039131,0.5751296,-8.405735
263,1715789548.8140452,2.081381,-1.0882818,0.47981656,3.3372333,0.5751296,-8.405735
264,1715789548.825555,1.9171307,-1.3318509,0.50840175,3.814319,0.34483343,-8.362364
265,1715789548.837514,1.6955267,-1.739457,0.5423257,4.244368,0.2501493,-8.406345
266,1715789548.8461301,1.370168,-2.2270834,0.4356422,4.69763,0.28496864,-8.419785
267,1715789548.8663774,0.99749243,-2.896319,0.056377225,4.7758207,0.2275473,-8.221253
268,1715789548.8673606,0.5879644,-3.5096653,-0.53793263,4.185725,0.022907447,-7.9225407
269,1715789548.8698373,-0.39195594,-4.161298,-1.1505164,2.1973586,-0.23426682,-7.334888
270,1715789548.883282,-0.9645447,-4.824676,-0.9374544,2.1973586,-0.23426682,-7.334888
271,1715789548.8846674,-0.9645447,-4.824676,-0.9374544,-0.017638734,-0.29168814,-6.1766877
272,1715789548.8954546,-0.9645447,-4.824676,-0.9374544,-1.856954,0.4279111,-4.7723083
273,1715789548.897468,-1.1119553,-5.640102,-0.4275883,-1.856954,0.4279111,-4.7723083
274,1715789548.90362,-1.5939989,-6.00692,0.12520137,-1.856954,0.4279111,-4.7723083
275,1715789548.9054108,-1.5939989,-6.00692,0.12520137,-2.4568236,1.1340714,-3.6519816
276,1715789548.9388125,-2.1902306,-6.0603685,0.6065128,-2.4427738,1.6007724,-2.3056345
277,1715789548.9417887,-1.3923771,-5.4265213,0.6462941,0.31100675,2.7491992,4.9318967
278,1715789548.9549494,-0.6570326,-5.053114,0.19060871,0.6176611,3.0387492,6.333222
279,1715789548.9612317,-0.29652956,-4.6941056,-0.099819414,0.5217553,3.1511483,7.1010795
280,1715789548.9725952,-0.29652956,-4.6941056,-0.099819414,-0.090331696,2.9263499,8.200026
281,1715789548.974183,0.30580372,-3.9106512,-0.5440341,-0.090331696,2.9263499,8.200026
282,1715789548.9947054,0.30580372,-3.9106512,-0.5440341,-0.090331696,2.9263499,8.755914
283,1715789548.996911,1.1422184,-3.0947373,-0.6238408,-1.3780357,1.7968601,9.349674
284,1715789549.0056157,1.1422184,-3.0947373,-0.6238408,-1.3780357,1.7968601,9.871353
285,1715789549.008847,1.5185852,-2.6669052,-0.54891527,-2.060983,1.6099354,9.871353
286,1715789549.0158453,1.8778375,-2.3393497,-0.3660859,-2.618092,1.6264287,10.335611
287,1715789549.0284178,2.4508839,-1.9171307,0.014887493,-2.618092,1.6264287,10.335611
288,1715789549.0297353,2.4508839,-1.9171307,0.014887493,-3.2472832,1.457219,11.09736
289,1715789549.031743,2.9900367,-1.5278594,0.43246946,-3.2472832,1.457219,11.09736
290,1715789549.0490577,3.575805,-1.1624752,0.85960007,-3.2472832,1.457219,11.09736
291,1715789549.050039,3.575805,-1.1624752,0.85960007,-2.8019626,1.0601566,11.03383
292,1715789549.0629258,3.7842298,-0.94965726,1.0306844,-2.3364832,0.8549059,10.8670635
293,1715789549.0708916,3.7842298,-0.94965726,1.0306844,-2.3364832,0.8549059,10.647763
294,1715789549.0718725,3.9414027,-0.8351944,1.0431311,-1.753107,0.6374379,10.647763
295,1715789549.079246,4.0097384,-0.5020563,0.38975942,-1.1184179,0.5164866,10.20855
296,1715789549.0862956,4.0097384,-0.5020563,0.38975942,-1.1080332,0.4370741,9.990472
297,1715789549.1029437,4.0097384,-0.4971446,0.19158493,-1.1080332,0.4370741,9.990472
298,1715789549.1058054,3.8327968,-0.4971446,0.19158493,-1.3774247,0.25686884,9.966038
299,1715789549.11227,3.7083278,-0.56673145,0.041977845,-1.9400316,-0.23060162,10.117532
300,1715789549.1271458,3.9326162,-0.7175588,0.22672918,-3.149545,-0.768163,10.722288
301,1715789549.1451716,3.9326162,-0.7175588,0.22672918,-3.149545,-0.12492194,10.369208
302,1715789549.1461878,4.403891,-0.7370834,0.68778384,-3.616246,-0.12492194,10.369208
303,1715789549.1533544,4.403891,-0.7370834,0.68778384,-3.68283,0.27947086,9.8084345
304,1715789549.1756587,4.448797,-0.6353115,0.82347965,-3.68283,0.27947086,9.8084345
305,1715789549.17775,3.7500615,-0.43198135,0.82372373,-3.770184,0.4908302,8.925123
306,1715789549.189649,3.3509974,-0.32606047,0.6997427,-4.0939426,0.54641896,8.95872
307,1715789549.197134,3.259232,-0.3048275,0.6082212,-4.4604616,0.7461719,9.036911
308,1715789549.211128,3.3212228,-0.2660224,0.6240849,-4.781777,0.9795224,8.992318
309,1715789549.2193751,3.3212228,-0.10494461,0.6497109,-5.153794,1.3106114,8.6581745
310,1715789549.2204251,3.4972184,0.22233616,0.61895967,-5.6125536,1.6239853,7.678958
311,1715789549.2364893,3.4972184,0.22233616,0.61895967,-5.6125536,1.6239853,6.9019375
312,1715789549.2389724,3.353438,0.41099238,1.1380695,-5.5575757,1.3118331,6.9019375
313,1715789549.2603474,2.9285345,0.6560564,1.730915,-5.5575757,1.3118331,6.9019375
314,1715789549.2617157,2.2602751,0.8002942,1.6608706,-3.0909019,-0.9831876,5.526269
315,1715789549.2728682,2.2602751,1.05509,1.2903612,-2.5747206,-1.0986412,5.900729
316,1715789549.2742548,1.9520309,1.05509,1.2903612,-2.5747206,-1.0986412,5.900729
317,1715789549.2899122,1.9520309,1.05509,1.2903612,-2.5747206,-0.9447031,6.69913
318,1715789549.29302,2.4506397,1.7077297,1.1265987,-2.767754,-0.9447031,6.69913
319,1715789549.3093853,2.4506397,1.7077297,1.1265987,-2.786691,-0.9184359,6.970354
320,1715789549.3106873,2.964655,2.0708866,1.2842598,-2.555173,-1.0925325,6.9966216
321,1715789549.3123004,3.8410952,2.8484838,1.5542176,-2.555173,-1.0925325,6.9966216
322,1715789549.331499,5.541259,3.9035738,1.9410484,-2.555173,-1.0925325,6.9966216
323,1715789549.3345702,6.7942786,4.4727154,2.105543,-1.6474272,-2.473088,4.7785697
324,1715789549.346967,6.7942786,4.4727154,2.0682023,-1.6651423,-2.7546968,2.1555145
325,1715789549.349908,7.9640756,4.712166,2.0682023,-1.6651423,-2.7546968,2.1555145
326,1715789549.3768227,7.9640756,4.712166,2.0682023,-1.6651423,-0.3717115,-1.9091829
327,1715789549.3785934,5.6979437,2.6166294,2.565133,-4.065232,2.1303926,-2.978197
328,1715789549.3799925,4.181555,2.047213,3.3009658,-4.1165447,4.3832636,-2.919554
329,1715789549.3966956,3.6726954,1.8417171,3.7678778,-3.225903,5.3948565,-2.6917014
330,1715789549.4102306,3.6238842,1.5612953,4.06636,-1.4482851,5.7009,-2.7271316
331,1715789549.4115076,3.6238842,1.5612953,4.06636,0.60788727,5.184108,-3.0942616
332,1715789549.4191382,3.6643977,1.3472265,4.1476307,3.3121877,3.846313,-3.812639
333,1715789549.421164,3.6119251,1.0372738,3.730537,3.3121877,3.846313,-3.812639
334,1715789549.4489295,3.6119251,1.0372738,3.730537,5.5803304,2.3075435,-4.56889
335,1715789549.4499397,3.2106647,0.6746047,1.8658786,6.1105614,1.9000963,-4.906088
336,1715789549.4714534,3.2106647,0.6746047,0.08956901,3.7239108,3.052799,-6.1449227
337,1715789549.4724538,3.2060275,0.55037963,0.08956901,3.7239108,3.052799,-6.1449227
338,1715789549.4807813,3.2060275,0.55037963,0.08956901,2.6695576,3.709479,-6.577415
339,1715789549.482214,3.2358024,0.33435842,0.23307467,2.6695576,3.709479,-6.577415
340,1715789549.4959512,3.2358024,0.33435842,0.46883395,2.2804363,3.9336667,-6.976921
341,1715789549.4969935,3.3558788,0.119343996,0.46883395,2.2804363,3.9336667,-6.976921
342,1715789549.505904,3.3558788,-0.15253578,0.6055366,2.2260692,3.8847976,-7.3617663
343,1715789549.5075219,3.4107914,-0.15253578,0.6055366,2.2260692,3.8847976,-7.3617663
344,1715789549.5145135,3.429828,-0.48152497,0.71853507,2.344577,3.702149,-7.7185116
345,1715789549.5226462,3.4957235,-0.79638934,0.7729598,2.7007115,3.143207,-8.171163
346,1715789549.5357003,3.4757109,-0.94087124,0.7900438,2.9823205,2.795014,-8.387409
347,1715789549.5652626,3.5740962,-1.1815116,0.54867125,3.3940437,2.3649647,-8.496143
348,1715789549.571867,3.6834342,-1.2090901,0.55696917,3.4844518,2.4346035,-8.53585
349,1715789549.582183,3.7954564,-1.2505798,0.50815773,3.565086,2.4541512,-8.582886
350,1715789549.595282,3.7954564,-1.2505798,0.5020563,3.6561048,2.4541512,-8.684289
351,1715789549.595786,3.858423,-1.2483834,0.5020563,3.6561048,2.4541512,-8.684289
352,1715789549.6054113,3.9001567,-1.250824,0.4698102,3.7672822,2.2696698,-8.865716
353,1715789549.618981,3.8476846,-1.2518002,0.4183141,3.841197,1.9892827,-9.041646
354,1715789549.619486,3.6990538,-1.255949,0.41294485,3.8918989,1.5470163,-9.255448
355,1715789549.6323996,3.5784895,-1.2615625,0.43368974,3.9371028,1.2183707,-9.359906
356,1715789549.6458275,3.4986827,-1.2666876,0.4053791,3.9523745,1.0173961,-9.41244
357,1715789549.654539,3.3592954,-1.2312994,0.38561043,3.9523745,1.0173961,-9.41244
358,1715789549.6556423,3.3592954,-1.2312994,0.38561043,3.9267182,0.890947,-9.409997
359,1715789549.6621828,3.2777803,-1.2178762,0.39830142,3.9267182,0.890947,-9.409997
360,1715789549.6641695,3.2777803,-1.2178762,0.39830142,3.9199986,0.8622363,-9.378843
361,1715789549.676032,3.1008387,-1.2125069,0.4698102,4.025678,0.8042041,-9.354408
362,1715789549.68314,3.1008387,-1.2125069,0.58527976,4.2785764,0.6068946,-9.288435
363,1715789549.685173,2.8348165,-1.1944467,0.58527976,4.2785764,0.6068946,-9.288435
364,1715789549.6988552,2.8348165,-1.1761423,0.66874737,4.5943937,0.31306845,-9.168706
365,1715789549.7010078,2.6383502,-1.1761423,0.66874737,4.5943937,0.31306845,-9.168706
366,1715789549.7199755,2.3222656,-1.4550998,0.3790209,5.069647,-0.24587326,-8.982391
367,1715789549.7214155,2.1816885,-1.8705157,0.21135357,5.0873623,-0.25320363,-9.133275
368,1715789549.733323,2.076256,-2.6354215,0.01513155,4.8717265,-0.36926803,-9.315924
369,1715789549.7490027,2.076256,-2.6354215,0.01513155,3.946266,-0.74006325,-9.987876
370,1715789549.750997,1.413366,-3.7561631,-0.46712556,3.946266,-0.74006325,-9.987876
371,1715789549.764284,0.46785772,-4.2945533,-0.81225306,3.946266,-0.74006325,-9.987876
372,1715789549.7653272,-0.64068073,-5.147076,-1.0150646,1.1649964,-1.1145236,-9.907242
373,1715789549.7800107,-2.8719132,-7.5386844,0.55867755,-1.12697,-0.9239337,-8.489424
374,1715789549.7820415,-2.8719132,-7.5386844,0.55867755,-2.1293998,-0.42485678,-5.943948
375,1715789549.7967854,-3.5401723,-7.619712,1.4358193,-1.3639858,0.35643986,-2.7723355
376,1715789549.810989,-3.0820465,-7.0476103,1.4704754,-0.20028745,1.1273518,-0.1333977
377,1715789549.8326602,-3.0820465,-7.0476103,1.4704754,-0.20028745,2.1853704,5.834756
378,1715789549.8346844,-1.0885259,-5.908321,0.16303024,2.0971768,2.1853704,5.834756
379,1715789549.8464751,-0.27993366,-5.04628,-0.27456442,2.0971768,2.1853704,5.834756
380,1715789549.847721,-0.27993366,-5.04628,-0.27456442,1.7465401,2.201253,7.0265536
381,1715789549.8562539,0.4502856,-4.41829,-0.5032766,1.7465401,2.201253,7.0265536
382,1715789549.8573139,0.4502856,-4.41829,-0.5032766,1.3134366,2.1939225,7.628867
383,1715789549.8597167,0.9704022,-3.7920394,-0.6641103,1.3134366,2.1939225,7.628867
384,1715789549.8783164,1.4763328,-2.976858,-0.76246536,0.14912748,2.2568417,8.779126
385,1715789549.879963,2.064053,-2.2715018,-0.7832102,-0.5399285,2.1743748,9.6887045
386,1715789549.9015763,2.064053,-2.2715018,-0.769299,-0.5399285,2.1743748,9.6887045
387,1715789549.9025967,2.1982846,-2.1465445,-0.769299,-0.5399285,2.1743748,9.6887045
388,1715789549.9043639,3.1025472,-1.5068705,-0.5376886,-1.2699125,2.2751677,10.48344
389,1715789549.9200993,3.1025472,-1.5068705,-0.5376886,-1.4855479,2.1053472,10.493214
390,1715789549.9215174,3.5784895,-1.170285,-0.2962855,-1.4855479,2.1053472,10.493214
391,1715789549.9235442,3.8891742,-0.91036403,0.059794027,-1.3395511,1.5244142,10.288574
392,1715789549.9499624,3.8891742,-0.91036403,0.059794027,-1.181337,1.1908818,10.101649
393,1715789549.9510202,4.214503,-0.7368393,0.14545812,-1.0280099,0.77121735,9.725967
394,1715789549.9530466,4.214503,-0.7368393,0.14545812,-0.9779189,0.47128254,9.565921
395,1715789549.9530466,3.896252,-0.68070614,0.16717921,-0.9779189,0.47128254,9.565921
396,1715789549.9667473,3.6600044,-0.7075525,0.20159128,-1.0157925,0.5299256,10.145632
397,1715789549.9739912,3.6600044,-0.7075525,0.40171823,-1.0157925,0.5299256,10.145632
398,1715789549.976024,3.4056664,-0.8366587,0.40171823,-1.0157925,0.5299256,10.145632
399,1715789549.9839072,3.4056664,-0.8366587,0.40171823,-0.8160396,0.6246097,10.787041
400,1715789549.9860437,3.4017613,-0.88327366,0.5303669,-0.8160396,0.6246097,10.787041
401,1715789549.997241,3.6848981,-0.9394069,0.6548361,-0.5625305,0.5861252,11.097971
402,1715789550.0115523,4.600876,-0.8537427,0.61700726,0.16378824,0.5207626,11.010006
403,1715789550.0281675,4.600876,-0.45931572,0.27310005,0.16012305,1.0290025,9.43153
404,1715789550.0294237,4.4126773,-0.45931572,0.27310005,0.16012305,1.0290025,9.43153
405,1715789550.04819,4.4126773,-0.45931572,0.27310005,0.16012305,1.0290025,9.165804
406,1715789550.0501747,3.9575102,-0.43930307,0.33753118,0.0129045285,1.2721269,9.165804
407,1715789550.0633307,3.4308045,-0.47810817,0.27724904,-0.23755023,1.5720617,9.749791
408,1715789550.0783408,3.6700108,-0.47737598,0.024893839,-0.5930738,1.8958203,10.101039
409,1715789550.1008697,4.149339,-0.255772,-0.19329333,-1.0231229,2.1206186,9.882349
410,1715789550.102873,4.255504,0.026114125,-0.35095432,-1.598558,2.3099868,9.191461
411,1715789550.1198742,3.6697667,0.69461745,-0.53622425,-3.0725758,2.159714,7.5989347
412,1715789550.1348782,3.11353,1.0355655,-0.07809832,-3.6791651,1.7785342,7.0693145
413,1715789550.1508825,2.862151,1.076567,0.02757847,-4.3981533,1.1420126,6.263583
414,1715789550.1668863,2.6049144,1.0958476,0.08297946,-4.8007135,1.3753631,6.201275
415,1715789550.1910884,2.4325798,1.1497842,0.06711575,-5.142798,1.6313156,6.2721353
416,1715789550.1930912,2.7010732,1.1085385,0.74074423,-5.3901987,0.17256944,6.8384075
417,1715789550.2082045,3.8772154,2.2785795,3.0137105,-3.3248632,-0.84696466,6.8646746
418,1715789550.2160597,3.8772154,2.2785795,3.0137105,-0.5668066,-1.7767016,6.58612
419,1715789550.2170694,4.797342,3.114018,3.602407,-0.5668066,-1.7767016,6.58612
420,1715789550.22443,6.591956,4.383634,3.294132,-0.5668066,-1.7767016,6.58612
421,1715789550.2298944,6.591956,4.383634,3.294132,3.438026,-2.3832908,5.430363
422,1715789550.2316878,7.422239,4.5135036,2.02476,6.007936,-1.9752327,3.2850041
423,1715789550.2462769,7.5828586,4.260385,0.5633146,6.161263,-1.2183707,1.7450129
424,1715789550.2642314,7.4288282,4.138601,-0.880345,6.161263,-1.2183707,1.7450129
425,1715789550.266859,7.1264415,4.1085815,-1.5669085,3.6878698,0.057726767,-0.36796996
426,1715789550.2841024,7.1264415,4.1085815,-1.5669085,-4.1379247,3.9581013,-3.972075
427,1715789550.2856476,6.100394,3.0722842,-0.33118567,-4.1379247,3.9581013,-3.972075
428,1715789550.2971892,5.29473,2.2019455,0.8227475,-4.7109165,4.999016,-5.292155
429,1715789550.3055553,5.29473,2.2019455,0.8227475,-4.7109165,4.999016,-5.8865266
430,1715789550.3065603,4.428541,1.5669085,1.5019894,-4.3205733,5.1590624,-5.8865266
431,1715789550.3148854,3.7283406,1.1329442,1.9337265,-3.3089807,4.8218646,-6.202344
432,1715789550.3300836,2.8528767,0.5742972,2.0569754,-1.3187817,3.8200457,-6.056347
433,1715789550.3424082,2.8528767,0.5742972,2.0569754,0.32505667,2.930626,-5.7399187
434,1715789550.360677,2.8528767,0.5742972,2.0569754,2.1619284,2.1468859,-5.975102
435,1715789550.3631768,3.5077128,0.40098605,1.1912739,2.436818,2.0430388,-6.265263
436,1715789550.3730872,3.5584767,0.21403822,0.8500819,2.6029732,1.9727893,-6.8883457
437,1715789550.381106,3.4920628,-0.04148973,0.6872957,2.590756,2.006387,-7.444844
438,1715789550.4027915,3.3995647,-0.23673552,0.63775206,2.590756,2.006387,-7.444844
439,1715789550.4037771,3.439346,-0.48103684,0.5984589,2.5143976,2.1523838,-7.9488077
440,1715789550.412783,3.5409045,-0.69388527,0.5911371,2.5143976,2.1523838,-7.9488077
441,1715789550.413308,3.5409045,-0.69388527,0.5911371,2.5156195,2.1902573,-8.15528
442,1715789550.4272892,3.5409045,-0.69388527,0.5911371,2.5156195,2.1371121,-8.469265
443,1715789550.4289024,3.695637,-1.012868,0.6138345,2.617023,2.1371121,-8.469265
444,1715789550.4412215,3.837434,-1.2444785,0.7263449,2.617023,2.1371121,-8.469265
445,1715789550.4433534,3.9499447,-1.3560126,0.777841,3.2181144,1.8060231,-8.879155
446,1715789550.4562404,4.088325,-1.4873154,0.75392336,3.632892,1.565953,-9.075243
447,1715789550.4691281,4.1940017,-1.6288991,0.49421594,4.370817,0.64476824,-9.650067
448,1715789550.4880118,4.1940017,-1.6288991,0.49421594,4.472221,0.2434298,-9.829661
449,1715789550.4910123,4.1586137,-1.624018,0.36974674,4.472221,0.2434298,-9.829661
450,1715789550.4985638,4.1747212,-1.5883856,0.15839316,4.3286676,-0.32895094,-10.029415
451,1715789550.5005643,4.2393966,-1.5713016,-0.0012202862,4.3286676,-0.32895094,-10.029415
452,1715789550.5155675,4.2393966,-1.5713016,-0.0012202862,4.0391173,-0.6441574,-10.13937
453,1715789550.5185683,4.152756,-1.535181,-0.20744865,3.650607,-0.6056729,-10.164416
454,1715789550.5195684,4.1171236,-1.3818827,-0.27944556,2.7758482,-0.12186762,-10.110049
455,1715789550.5495749,4.1171236,-1.3818827,-0.27944556,1.4325553,0.60994893,-10.236498
456,1715789550.5505753,4.194246,-1.3569888,-0.087616555,1.4325553,0.60994893,-10.236498
457,1715789550.552576,4.045615,-1.4092171,0.08005078,1.4325553,0.60994893,-10.236498
458,1715789550.553576,4.045615,-1.4092171,0.08005078,1.275563,0.58123827,-10.387993
459,1715789550.5655785,4.045615,-1.4912204,0.23502712,1.2664,0.40775254,-10.466184
460,1715789550.567579,3.747377,-1.4912204,0.23502712,1.2664,0.40775254,-10.466184
461,1715789550.5785818,3.2658217,-1.5454315,0.49641246,1.552285,-0.032070424,-10.38616
462,1715789550.5991614,3.2658217,-1.5454315,0.49641246,1.552285,-0.032070424,-10.2114525
463,1715789550.601162,2.7572062,-1.5832604,0.6323828,2.399555,-0.8042041,-9.931676
464,1715789550.6021621,2.5295007,-1.6947945,0.6194478,2.8015044,-1.0980303,-9.753304
465,1715789550.628168,2.1687536,-1.8741766,0.5955302,3.1631365,-1.0577132,-9.578596
466,1715789550.6301687,1.7292067,-3.037872,0.110557936,3.0440178,-0.42546764,-9.235901
467,1715789550.6651766,0.27090356,-4.5867205,-0.43759465,1.2505175,0.024129177,-9.577374
468,1715789550.6671772,-0.56843984,-5.248604,-0.22624107,0.23953554,-0.024129177,-9.277439
469,1715789550.6681728,-1.6174284,-6.5170302,0.13862452,0.23953554,-0.024129177,-9.277439
470,1715789550.6791797,-1.6174284,-6.5170302,0.13862452,-0.5368742,0.025961773,-8.2682905
471,1715789550.68118,-3.0295742,-7.1376677,0.5760056,-0.5313764,-0.12492194,-6.220059
472,1715789550.6952069,-3.0295742,-7.1376677,0.5760056,-0.09827295,-0.11759156,-3.3202817
473,1715789550.6967328,-4.0092506,-7.1196074,0.92183477,-0.09827295,-0.11759156,-3.3202817
474,1715789550.7119195,-2.6117482,-6.6859183,0.5035206,0.49548808,1.6734654,3.2660675
475,1715789550.7353542,-0.8115209,-5.7921495,0.032215554,-0.2167808,2.5152376,5.680207
476,1715789550.7463567,-0.43198135,-5.336952,0.04881145,-0.4440227,2.4791965,6.1346908
477,1715789550.7533581,0.010494461,-4.8832498,0.15790504,-0.45196393,2.228742,6.7095146
478,1715789550.7623603,0.010494461,-4.8832498,0.20403185,-0.16119206,1.9489655,7.047934
479,1715789550.7633605,0.36266908,-4.472471,0.20403185,-0.16119206,1.9489655,7.047934
480,1715789550.7713623,0.5645349,-3.891859,0.10982577,0.46066874,1.4559973,7.655134
481,1715789550.7953916,0.5645349,-3.891859,0.10982577,0.46066874,1.4559973,9.587301
482,1715789550.7969172,1.4978098,-2.9107182,-0.44882128,0.6885215,1.0186177,9.587301
483,1715789550.8109448,1.4978098,-2.9107182,-0.44882128,0.33299792,1.1707232,10.2048855
484,1715789550.811945,1.9918122,-2.6249273,-0.58430356,0.33299792,1.1707232,10.2048855
485,1715789550.8139455,2.623951,-2.3142118,-0.6838789,-0.1923462,1.2800682,10.660591
486,1715789550.8269484,2.623951,-2.3142118,-0.6838789,-0.1923462,1.2800682,10.968468
487,1715789550.828949,3.5540836,-1.7726487,-0.5206046,-1.1648437,1.2678508,10.968468
488,1715789550.8409514,3.5540836,-1.7726487,-0.5206046,-1.5600735,1.2318097,10.989237
489,1715789550.842952,3.951653,-1.4826783,-0.21159762,-1.5600735,1.2318097,10.989237
490,1715789550.8439522,4.2271934,-1.3445419,-0.0053692595,-1.7280614,1.1322387,10.98435
491,1715789550.8629565,4.2271934,-1.2579015,0.1666911,-1.9675206,1.0137309,11.002065
492,1715789550.864957,4.4065757,-1.2579015,0.1666911,-1.9675206,1.0137309,11.002065
493,1715789550.8829846,4.4065757,-1.2579015,0.1666911,-2.2405775,0.87995136,11.375303
494,1715789550.8859854,4.445869,-1.4097052,0.4058672,-2.2405775,0.87995136,11.375303
495,1715789550.9035418,4.445869,-1.4097052,0.4058672,-2.2405775,0.5513059,11.273289
496,1715789550.9055421,4.92474,-1.4853629,0.66996765,-2.1489475,0.5513059,11.273289
497,1715789550.9125438,4.92474,-1.4853629,0.66996765,-1.7030159,0.21960606,10.89272
498,1715789550.9145443,4.9628124,-1.3630903,0.8666778,-1.7030159,0.21960606,10.89272
499,1715789550.9205456,4.9628124,-1.3133025,0.8247,-1.1874456,-0.046120327,10.650817
500,1715789550.9215457,4.7126536,-1.3133025,0.8247,-1.1874456,-0.046120327,10.650817
501,1715789550.9455512,4.741697,-1.3379524,0.69559366,-1.1874456,-0.046120327,10.650817
502,1715789550.9465513,4.7653704,-1.2496036,0.56892794,-0.73235106,-0.21533,10.314841
503,1715789550.9775586,4.6096616,-1.1095147,0.47347105,-0.98036236,0.074830994,10.068052
504,1715789550.9785585,4.6047807,-0.7358631,0.42246306,-1.3926964,0.68875057,9.666714
505,1715789550.9845836,4.6047807,-0.7358631,0.42246306,-1.9229274,1.3252722,9.196347
506,1715789550.9855838,4.647247,-0.5013241,0.23942018,-1.9229274,1.3252722,9.196347
507,1715789550.9955862,4.560118,-0.20769271,0.102992155,-2.550286,2.0442605,8.664284
508,1715789551.015141,4.560118,-0.20769271,0.102992155,-3.2833242,2.708271,7.986223
509,1715789551.0171413,4.2057166,0.23917611,0.16986385,-3.8269944,2.8842003,7.3289323
510,1715789551.0181415,4.2057166,0.23917611,0.16986385,-4.213672,2.2317963,6.032676
511,1715789551.034145,3.4242148,0.70218325,0.88522613,-4.0371323,1.244027,5.348507
512,1715789551.0471478,2.9319513,0.91402483,1.2649792,-3.461697,0.038789943,4.518341
513,1715789551.0671525,2.369613,1.0477682,1.2415497,-3.461697,0.038789943,4.518341
514,1715789551.069153,1.8663669,1.3240411,1.187369,-3.2124639,0.1554652,4.3301945
515,1715789551.0701532,1.8663669,1.3240411,1.187369,-3.4024432,0.9966267,4.895245
516,1715789551.0761547,2.029397,1.8197519,1.3411251,-3.4024432,0.9966267,4.895245
517,1715789551.088181,2.029397,1.8197519,1.3411251,-3.458032,1.1829406,5.537875
518,1715789551.1157389,3.3832133,3.305603,2.2998126,-1.3963616,-0.22510384,5.598962
519,1715789551.1277413,3.3832133,3.305603,2.2998126,0.8235227,-0.46028697,4.7669635
520,1715789551.1297421,4.4966326,4.811741,2.803333,0.8235227,-0.46028697,4.7669635
521,1715789551.130742,5.3279223,5.467035,2.6725185,2.9597185,-0.9636399,3.476205
522,1715789551.1467457,5.3279223,5.467035,2.6725185,2.9597185,-0.9636399,2.1628447
523,1715789551.1477458,6.058904,5.5754266,2.06747,4.262083,-1.3863586,2.1628447
524,1715789551.153747,6.5170302,5.247139,0.9762595,4.262083,-1.3863586,2.1628447
525,1715789551.1547475,6.5170302,5.247139,0.9762595,4.8509574,-2.0131063,0.42248967
526,1715789551.1787534,6.3695893,4.8088126,-0.15766099,4.2064943,-2.218968,-1.0075458
527,1715789551.179753,5.662555,3.7078397,-1.3955499,-0.5796348,-0.6221663,-2.802268
528,1715789551.1957805,5.662555,3.7078397,-0.47469133,-0.5796348,-0.6221663,-2.802268
529,1715789551.1973066,5.450195,2.5229113,-0.47469133,-4.1990113,1.8530598,-3.68619
530,1715789551.2283378,5.450195,2.5229113,-0.47469133,-4.1990113,1.8530598,-4.980613
531,1715789551.2293382,3.4366617,1.0685132,2.1052988,-2.2876139,2.572659,-4.980613
532,1715789551.2663465,3.4366617,0.7773528,1.323309,0.08437576,1.6673567,-5.378287
533,1715789551.2673466,3.2558153,0.7773528,1.323309,0.08437576,1.6673567,-5.378287
534,1715789551.3009298,3.1721036,0.69510555,1.0333688,0.08437576,1.6673567,-5.378287
535,1715789551.3029299,2.9949179,0.47078642,0.75514364,0.04466952,2.1181753,-5.992817
536,1715789551.304931,2.9548926,0.38439015,0.75734013,-0.18745928,2.4016168,-6.49617
537,1715789551.3129325,2.9231653,0.23307467,0.72414833,-0.19540052,2.5329528,-6.726466
538,1715789551.3329368,2.9231653,0.23307467,0.72414833,-0.15752688,2.9043589,-7.0380077
539,1715789551.3349373,2.9939418,-0.18133454,0.5760056,-0.12331842,3.1413746,-7.1669
540,1715789551.3499408,2.9939418,-0.18133454,0.5760056,0.0037415496,3.447418,-7.345273
541,1715789551.3519413,3.1218278,-0.6155429,0.5901609,0.0037415496,3.447418,-7.345273
542,1715789551.3579428,3.1218278,-0.6155429,0.5901609,0.2541963,3.6587775,-7.4100246
543,1715789551.3799474,3.4161608,-0.999689,0.6838789,2.0342577,3.5995235,-7.5089846
544,1715789551.397501,3.4161608,-0.999689,0.6838789,2.7147615,3.4052682,-7.5584645
545,1715789551.3995256,3.480348,-1.0711977,0.61017364,2.7147615,3.4052682,-7.5584645
546,1715789551.4125283,3.7354183,-1.1566178,0.26553428,3.904727,2.6435194,-7.9530835
547,1715789551.4325335,3.7761757,-1.1693088,0.09567044,4.0837107,2.3356433,-8.170551
548,1715789551.4335332,3.7532341,-1.1566178,-0.045638707,4.155182,1.9007072,-8.502252
549,1715789551.445536,3.7532341,-1.1566178,-0.045638707,4.072104,1.6740762,-8.7863035
550,1715789551.4465363,3.6861184,-1.1727256,-0.17840585,4.072104,1.6740762,-8.7863035
551,1715789551.4605393,3.594841,-1.1666241,-0.2853029,4.072104,1.6740762,-8.7863035
552,1715789551.4625401,3.4530132,-1.1265987,-0.3841461,3.6109009,1.5958854,-8.97445
553,1715789551.4875693,3.4530132,-1.1265987,-0.3841461,3.6109009,1.4242324,-9.055696
554,1715789551.4885695,3.2782686,-1.131724,-0.36584184,2.9291751,1.4242324,-9.055696
555,1715789551.5141265,2.6134565,-1.1475877,-0.055400997,2.6567292,0.79381937,-8.934134
556,1715789551.5321305,2.2485604,-1.2076257,0.14057697,2.8222737,0.39858958,-8.446663
557,1715789551.5621374,2.1409314,-1.5554379,0.27480847,2.8222737,0.39858958,-8.446663
558,1715789551.5631375,1.8829627,-2.0311053,0.36632994,3.4936147,0.5885687,-9.039813
559,1715789551.564138,1.3989667,-2.5875864,0.40440285,3.9517636,0.68752885,-9.502849
560,1715789551.5801413,1.3989667,-2.5875864,0.40440285,4.235816,0.27214047,-9.6519
561,1715789551.5821419,-1.1556416,-4.677754,-0.54891527,4.235816,0.27214047,-9.6519
562,1715789551.5881672,-1.1556416,-4.677754,-0.54891527,3.5925748,-0.4071417,-9.134497
563,1715789551.596169,-2.0984652,-5.2820396,-0.5413495,3.5925748,-0.4071417,-9.134497
564,1715789551.5976949,-2.0984652,-5.2820396,-0.5413495,2.576095,-1.058324,-7.8981056
565,1715789551.6287262,-2.6224866,-5.679395,-0.2677308,1.8516089,-1.6081028,-6.3477297
566,1715789551.6297264,-3.2411718,-5.757982,0.264314,0.60605466,-0.31856623,-1.2482268
567,1715789551.6487305,-3.2411718,-5.757982,0.264314,0.60605466,1.88849,2.7633252
568,1715789551.6507313,-2.6454282,-5.3425655,0.2923806,-0.25465444,1.88849,2.7633252
569,1715789551.6617339,-2.6454282,-5.3425655,0.2923806,-0.25465444,2.3203716,5.1011066
570,1715789551.6627338,-0.27871338,-4.9022865,-0.00707766,-1.6779705,2.3203716,5.1011066
571,1715789551.6857634,0.42392743,-4.234515,0.18353106,-2.3908503,1.9025398,5.1285954
572,1715789551.694765,0.42392743,-3.7378588,0.5118186,-2.3908503,1.9025398,5.1285954
573,1715789551.695765,0.3943965,-3.7378588,0.5118186,-1.9840139,1.6392568,5.4444127
574,1715789551.7153215,0.3572998,-3.4576504,0.63457936,-1.3193926,1.3081679,5.972811
575,1715789551.7183223,0.48713827,-3.1559958,0.63604367,-0.5613088,0.8921687,6.676528
576,1715789551.736326,1.8785696,-2.2370899,-0.16107778,0.64331746,0.55863625,8.870145
577,1715789551.744328,1.8785696,-2.2370899,-0.16107778,0.64331746,0.49021935,9.423589
578,1715789551.7463286,1.8785696,-2.2370899,-0.16107778,0.55229855,0.49021935,9.423589
579,1715789551.7603316,1.8785696,-2.2370899,-0.16107778,0.22853996,0.3295618,9.83348
580,1715789551.762332,2.8826518,-1.7428739,-0.37609223,-0.13125966,0.2171626,10.11631
581,1715789551.7753348,3.2929118,-1.4956133,-0.35022214,-0.13125966,0.2171626,10.11631
582,1715789551.7763357,3.2929118,-1.4956133,-0.35022214,-0.6840927,0.14935656,10.551857
583,1715789551.78336,3.2929118,-1.4956133,-0.35022214,-1.2595278,0.17562376,10.993513
584,1715789551.7853618,3.5855672,-1.3213564,-0.31312546,-1.2595278,0.17562376,10.993513
585,1715789551.7953634,3.8908825,-1.2525322,-0.20769271,-1.933923,0.30879238,11.540237
586,1715789551.8039145,3.8908825,-1.2525322,-0.20769271,-2.4134521,0.46089783,11.956847
587,1715789551.8049147,3.9631233,-1.2903612,-0.15204766,-2.4134521,0.46089783,11.956847
588,1715789551.8289201,3.9802074,-1.434355,-0.08932495,-2.8960357,0.5714644,12.415607
589,1715789551.8309207,4.096379,-1.7221289,0.01415532,-4.2558217,0.12980886,13.425367
590,1715789551.8319209,4.4051113,-2.114573,-0.018060237,-4.2558217,0.12980886,13.425367
591,1715789551.8449237,4.72925,-2.2632039,-0.05296042,-4.914335,-0.112704635,13.396657
592,1715789551.854926,4.852255,-2.383768,-0.067359805,-5.5581865,-0.20372356,13.206067
593,1715789551.8769312,4.852255,-2.383768,-0.067359805,-5.5581865,0.022296581,12.648347
594,1715789551.8789313,4.934014,-2.5507338,-0.0134231495,-7.3797865,0.022296581,12.648347
595,1715789551.8949585,4.934014,-2.5753837,0.3533949,-7.3797865,0.022296581,12.648347
596,1715789551.8959591,4.6899567,-2.567818,0.65215147,-8.4084835,0.0070249503,11.935467
597,1715789551.9285178,4.622353,-1.6511083,2.8809433,-4.6913686,-2.6367998,10.164569
598,1715789551.9545236,5.084109,-0.19744232,2.0896792,-0.053068917,-3.8676932,6.747999
599,1715789551.9565244,4.479305,0.17352471,1.5737422,0.61888283,-3.8976257,5.564142
600,1715789551.9815297,4.479305,0.17352471,1.5737422,0.6738607,-3.6007452,4.9917617
601,1715789551.9835544,2.3203132,0.81640196,0.68119425,-1.0640509,-1.5549575,5.0821695
602,1715789552.0041082,2.3203132,0.81640196,0.68119425,-1.9272035,-0.7247916,5.503056
603,1715789552.0061088,2.9334157,0.81884265,0.9552705,-2.632753,-0.30573806,5.828647
604,1715789552.0271134,4.0910096,1.4502187,2.0159738,-2.356031,-1.5519031,5.5226035
605,1715789552.0331151,4.0910096,1.4502187,2.0159738,-2.356031,-3.4639113,5.23061
606,1715789552.0351152,4.6858077,2.3073783,2.904861,-0.7176903,-3.4639113,5.23061
607,1715789552.044117,5.390645,2.89217,3.2584999,-0.7176903,-3.4639113,5.23061
608,1715789552.0461175,5.390645,2.89217,3.2584999,0.92675894,-4.8988338,4.898299
609,1715789552.0554395,5.390645,3.2487376,3.0093174,2.6469555,-6.061921,4.039423
610,1715789552.0564654,6.567062,3.2487376,3.0093174,2.6469555,-6.061921,4.039423
611,1715789552.06357,7.625813,3.3329375,2.2107315,3.3543375,-6.180429,2.651537
612,1715789552.0825741,7.6646175,1.9688708,0.00073217176,2.4936283,-4.4730606,-0.6098726
613,1715789552.0845985,7.6646175,1.9688708,0.00073217176,0.6097199,-1.8035797,-2.0350213
614,1715789552.1091568,6.2221785,0.83885527,0.20232345,0.6097199,-1.8035797,-2.0350213
615,1715789552.1151583,5.2561693,0.2633378,0.8195747,-3.108006,3.8658607,-3.355712
616,1715789552.1171594,4.657985,0.011470691,1.4758446,-3.4048865,5.1242433,-3.0814333
617,1715789552.127161,4.181799,-0.0370967,2.530233,-2.4158957,5.4938164,-2.7503445
618,1715789552.1391635,4.0985756,0.024649782,2.7452474,-2.4158957,5.4938164,-2.7503445
619,1715789552.1421645,4.131035,0.059305906,2.6429875,-0.23571762,4.7668867,-3.0020208
620,1715789552.1431649,4.131035,0.059305906,2.6429875,1.0629818,4.2421536,-3.4540613
621,1715789552.1781723,3.9833803,0.077122085,2.2390423,2.7654634,3.360675,-4.338594
622,1715789552.1791725,3.516499,0.025137896,1.5529974,4.1105886,2.1407773,-5.2530594
623,1715789552.1811733,3.1647818,0.025870068,0.7514828,4.3017893,1.4920384,-5.8877482
624,1715789552.2047517,3.1413524,0.029530926,0.2801777,3.365333,2.182927,-6.2805347
625,1715789552.2177548,3.1413524,0.029530926,0.2801777,3.365333,3.7534616,-6.7948833
626,1715789552.2197552,3.1154823,0.012446919,0.17987019,2.1924717,3.7534616,-6.7948833
627,1715789552.2207553,3.1291497,-0.07004443,0.14863087,2.1924717,3.7534616,-6.7948833
628,1715789552.232758,3.1974854,-0.27846932,0.21013328,1.7801377,4.254982,-7.1656785
629,1715789552.249762,3.1974854,-0.27846932,0.21013328,1.7056121,4.4058657,-7.439346
630,1715789552.2507622,3.2318976,-0.4322254,0.30067852,1.7056121,4.4058657,-7.439346
631,1715789552.2627652,3.2318976,-0.4322254,0.30067852,1.7893007,4.364938,-7.7453895
632,1715789552.2647653,3.5189395,-0.96356845,0.3746279,1.9456822,4.180456,-7.9860706
633,1715789552.271767,3.5189395,-0.96356845,0.3648656,2.3421338,3.8835757,-8.390463
634,1715789552.2737632,3.6685464,-1.2205608,0.3648656,2.3421338,3.8835757,-8.390463
635,1715789552.3003464,3.7942362,-1.5612953,0.38975942,3.01714,3.360675,-8.717277
636,1715789552.3073483,3.8581789,-1.666972,0.41807005,3.333568,3.1670308,-8.825399
637,1715789552.3193507,3.8581789,-1.666972,0.41807005,3.5809684,3.0100386,-8.878545
638,1715789552.3213515,4.105165,-1.7123666,0.28725538,3.8332558,2.7394252,-8.996442
639,1715789552.347357,4.253552,-1.7431179,0.1803583,3.9071705,2.5616634,-9.218797
640,1715789552.3493578,4.310417,-1.7736249,0.029530926,3.827147,2.4987442,-9.409387
641,1715789552.3503585,4.344829,-1.7994951,0.0012202862,3.827147,2.4987442,-9.409387
642,1715789552.352358,4.344829,-1.7994951,0.0012202862,3.5992944,2.5170703,-9.629298
643,1715789552.395392,4.344829,-1.7994951,0.0012202862,3.5235472,2.6209173,-9.8485985
644,1715789552.396392,4.1488514,-1.8148707,0.14741059,3.510108,2.5830436,-10.014754
645,1715789552.3973927,3.9382298,-1.9722877,0.19500175,3.4728453,2.3185391,-10.235888
646,1715789552.414948,3.9382298,-1.9722877,0.19500175,3.5211036,2.1670444,-10.318965
647,1715789552.4169488,3.4151847,-2.0696664,0.28701133,3.5870771,1.9788979,-10.296973
648,1715789552.4449549,3.4151847,-2.0696664,0.28701133,3.6982546,1.815797,-10.04041
649,1715789552.445955,2.5546386,-2.169242,0.45858356,3.9041162,1.629483,-9.728869
650,1715789552.4469554,2.2671087,-2.3630233,0.72878546,4.4141884,1.2965615,-9.638461
651,1715789552.4679604,1.9766805,-2.619802,0.914269,4.9957323,1.0998629,-9.692217
652,1715789552.469961,0.90963185,-4.1119986,0.5794224,5.872935,0.99296147,-9.926178
653,1715789552.470961,0.90963185,-4.1119986,0.5794224,7.2705946,0.54458636,-10.16014
654,1715789552.4829636,0.10348027,-4.884714,-0.067847915,7.5338774,0.003970624,-10.035523
655,1715789552.4949903,0.10348027,-4.884714,-0.067847915,6.7348657,-1.0228939,-9.367847
656,1715789552.4959903,-1.3184278,-5.4223723,-1.0062785,6.7348657,-1.0228939,-9.367847
657,1715789552.5145445,-1.3184278,-5.4223723,-1.0062785,6.7348657,-1.0228939,-7.513261
658,1715789552.516545,-2.5507338,-5.7745776,-1.456076,4.682969,-2.0967948,-7.513261
659,1715789552.5175452,-2.8004043,-6.0135093,-1.4843867,2.9132926,-2.1224513,-5.7967296
660,1715789552.5345488,-2.8004043,-6.0135093,-1.4843867,-2.2656229,1.8133535,-0.15905404
661,1715789552.5365493,-2.7669685,-6.166045,-0.50669336,-2.2656229,1.8133535,-0.15905404
662,1715789552.5515528,-2.6464043,-6.2097316,-0.22355644,-3.2167401,2.980106,1.5122733
663,1715789552.5535533,-1.910541,-6.216565,0.70267135,-3.3841171,3.7626245,3.7413206
664,1715789552.5835598,-0.54842716,-4.8312654,0.66825926,1.9572886,1.5745052,6.4431777
665,1715789552.609145,-0.54842716,-4.8312654,0.66825926,2.8424323,1.2165382,7.177438
666,1715789552.6101449,0.4915313,-3.6692786,-0.77344793,3.2669837,0.8542951,7.9972186
667,1715789552.6121454,0.4915313,-3.6692786,-0.77344793,3.1362586,0.5543602,8.677723
668,1715789552.6371512,1.102437,-3.1559958,-1.1134197,3.1362586,0.5543602,8.677723
669,1715789552.6381512,1.8275617,-2.6810603,-1.1734577,1.1570551,0.16768251,10.34905
670,1715789552.645153,1.8275617,-2.6810603,-1.1734577,1.1570551,0.32406402,10.981296
671,1715789552.6461527,2.4150076,-2.3471596,-1.0504528,-0.19967657,0.32406402,10.981296
672,1715789552.6551552,2.7899098,-2.072839,-0.76368564,-0.9919688,0.45906523,11.461435
673,1715789552.6741593,3.191384,-1.8561163,-0.40611124,-0.9919688,0.45906523,11.461435
674,1715789552.67616,4.627722,-1.4865832,-0.0353883,-1.7262288,0.6227771,12.19875
675,1715789552.6931875,4.627722,-1.4865832,-0.0353883,-1.7262288,0.6227771,12.195696
676,1715789552.6941879,4.8734875,-1.3098857,0.08346757,-1.9455295,0.9483683,12.195696
677,1715789552.7017393,4.8734875,-1.3098857,0.08346757,-2.700559,1.6905695,11.9892235
678,1715789552.727745,4.8734875,-1.3098857,0.5125507,-3.194138,1.185384,10.705184
679,1715789552.7297459,5.276426,-0.96674126,0.5125507,-3.194138,1.185384,10.705184
680,1715789552.735858,4.840296,-0.79614526,0.75734013,-3.112282,0.6056729,10.088821
681,1715789552.7418833,4.840296,-0.79614526,0.75734013,-2.9601767,0.1908954,9.815154
682,1715789552.7438838,4.543766,-0.79199624,0.81396145,-2.9601767,0.1908954,9.815154
683,1715789552.7561402,4.2235327,-0.7856508,0.78394234,-2.8147907,-0.046120327,9.662437
684,1715789552.758887,4.2235327,-0.7856508,0.78394234,-2.8483882,-0.08032878,9.703977
685,1715789552.7668886,4.006566,-0.7761325,0.6641103,-2.8483882,-0.08032878,9.703977
686,1715789552.7729704,4.006566,-0.7761325,0.6641103,-2.8483882,0.19150625,9.820651
687,1715789552.7758913,3.7669015,-0.846421,0.39830142,-3.4256558,0.19150625,9.820651
688,1715789552.7969196,3.5801978,-0.86838615,0.4144092,-4.4427466,0.7266242,9.799882
689,1715789552.8124743,3.594841,-0.8593561,0.41416514,-4.984584,1.0094548,9.632505
690,1715789552.8294756,3.4312925,-0.78198993,0.48640612,-5.974797,1.6221527,8.928177
691,1715789552.8444796,3.4486203,-0.33509058,0.6121261,-6.3339853,1.0112875,7.497531
692,1715789552.8604836,3.305603,-0.18206671,0.5801546,-6.539236,0.68752885,6.8048096
693,1715789552.863485,3.049831,-0.10592084,0.5533083,-6.539236,0.68752885,6.8048096
694,1715789552.864487,3.049831,-0.10592084,0.5533083,-6.8318405,0.473726,6.281298
695,1715789552.8774884,3.049831,-0.10592084,0.5533083,-7.6577306,0.39370266,5.503056
696,1715789552.8794932,2.710103,-0.10689708,0.7485541,-7.6577306,0.39370266,5.503056
697,1715789552.8824873,2.4872484,-0.2706595,1.2415497,-8.015086,0.3753767,5.0375767
698,1715789552.9050732,2.3476477,-0.23331872,2.8680084,-6.576499,-1.072374,4.7437506
699,1715789552.9120708,2.3476477,-0.23331872,2.8680084,-4.986417,-2.4058928,4.8970776
700,1715789552.9130714,2.4884686,-0.013911263,3.4412985,-4.986417,-2.4058928,4.8970776
701,1715789552.9260736,2.9331715,0.54745096,3.7700744,-2.024331,-4.421748,5.37172
702,1715789552.9330792,2.9331715,0.54745096,3.7700744,-2.024331,-4.421748,5.7638955
703,1715789552.9340806,3.917729,1.3547924,3.6783087,0.21510093,-5.772982,5.7638955
704,1715789552.941077,4.9872184,1.9603289,3.3895586,0.21510093,-5.772982,5.7638955
705,1715789552.9430816,4.9872184,1.9603289,3.3895586,1.5748869,-6.3771276,5.6258397
706,1715789552.964082,6.470873,2.538775,2.977834,1.5748869,-6.3771276,5.6258397
707,1715789552.9650826,7.5435653,2.9924774,2.6759353,2.6872725,-5.614157,3.1695507
708,1715789552.9720871,7.962612,2.8367689,2.0418441,1.9969949,-2.8139508,0.08407033
709,1715789552.9800856,7.4856935,2.2073147,1.6562335,1.0739775,-0.91904676,-1.2439507
710,1715789552.9921083,7.4856935,2.2073147,1.6562335,1.0739775,-0.91904676,-2.0142517
711,1715789552.993109,6.4611106,1.7028486,1.517853,-0.09582949,0.8268061,-2.0142517
712,1715789553.0126574,6.4611106,1.7028486,1.517853,-2.033494,2.7895162,-2.0887773
713,1715789553.0146577,4.7582927,1.4677907,1.6264585,-2.033494,2.7895162,-2.0887773
714,1715789553.0226595,4.6260138,1.3840791,1.7631307,-2.632753,3.7418551,-2.086334
715,1715789553.0386631,4.4851623,1.2466749,2.0445285,-2.881986,5.232366,-2.480342
716,1715789553.0516698,4.4851623,1.2466749,2.3720534,-2.2387447,6.2928286,-3.2524757
717,1715789553.0536702,3.7693422,0.6477585,2.5809968,-0.8801805,6.347195,-3.8694496
718,1715789553.063669,3.4798596,0.5103542,2.556591,0.41485387,5.7974167,-4.165108
719,1715789553.0716705,3.4798596,0.3287451,2.293223,2.2022455,4.594623,-4.537736
720,1715789553.0726714,3.3070672,0.3287451,2.293223,2.2022455,4.594623,-4.537736
721,1715789553.0826733,3.3070672,0.3287451,2.293223,3.4978907,3.6508362,-4.965953
722,1715789553.083674,3.2243319,0.2169669,1.8202399,3.4978907,3.6508362,-4.965953
723,1715789553.102253,3.2660656,0.15302388,1.417515,3.4978907,3.6508362,-4.965953
724,1715789553.1042538,3.3829691,0.01415532,1.0006652,4.022624,3.3356297,-5.762521
725,1715789553.1202571,3.4474,-0.43954712,0.7285414,3.4777322,4.396092,-6.724023
726,1715789553.137264,3.4474,-0.43954712,0.7285414,3.4777322,4.396092,-6.9036174
727,1715789553.1392648,3.4844968,-0.6738726,0.78394234,3.3714416,4.831028,-6.9036174
728,1715789553.150267,3.4844968,-1.0116477,0.88156533,3.4661257,5.4040194,-7.0215144
729,1715789553.1532676,3.8039985,-1.2107985,0.94404393,3.4661257,5.4040194,-7.0215144
730,1715789553.1542685,3.8039985,-1.2107985,0.94404393,3.678707,5.5066447,-7.04656
731,1715789553.1642704,4.051472,-1.4223962,1.0099394,4.058054,5.4266214,-7.11742
732,1715789553.1752727,4.051472,-1.4223962,1.0863293,4.7904816,5.083926,-7.3477163
733,1715789553.1772733,4.477108,-1.6650196,1.0863293,4.7904816,5.083926,-7.3477163
734,1715789553.183721,4.8307776,-1.8824744,1.0921867,5.554674,4.5701885,-7.8113627
735,1715789553.2027645,4.917906,-2.0071878,0.95917547,6.3225317,3.9361103,-8.330599
736,1715789553.2135181,4.917906,-2.0071878,0.95917547,6.3225317,3.9361103,-8.631145
737,1715789553.2158217,5.012112,-2.1721706,0.5042528,6.764798,3.4352007,-8.866938
738,1715789553.2288105,5.012112,-2.1721706,0.5042528,6.764798,3.5347717,-9.628077
739,1715789553.2307572,4.8864226,-2.2678409,-0.030507157,6.0696335,3.5347717,-9.628077
740,1715789553.2422109,4.8864226,-2.2678409,-0.030507157,6.0696335,3.623958,-9.801562
741,1715789553.244223,4.7126536,-2.2344053,-0.060770255,5.766033,3.623958,-9.801562
742,1715789553.2617314,4.1664233,-2.272722,0.067359805,5.2132006,3.4840698,-10.144868
743,1715789553.2761705,3.6995418,-2.3693688,0.25308737,5.2132006,3.4840698,-10.144868
744,1715789553.2771816,3.6995418,-2.3693688,0.25308737,5.196707,3.0656273,-10.268263
745,1715789553.2793112,3.4166489,-2.3891375,0.302631,5.3402605,2.613587,-10.303082
746,1715789553.3101301,3.4166489,-2.3891375,0.302631,5.497864,1.9581286,-10.248715
747,1715789553.3115678,2.6190698,-2.4194005,0.19085276,5.5302396,1.4156802,-10.106383
748,1715789553.3128085,2.2910264,-2.4933498,0.1867038,5.489311,1.0332786,-9.964052
749,1715789553.330993,1.8880879,-2.5402393,0.25528386,5.489311,1.0332786,-9.964052
750,1715789553.3333395,1.3057368,-2.6183376,0.3184947,5.6976166,0.4999932,-9.554772
751,1715789553.351853,0.67094386,-2.892658,0.37975308,5.6976166,0.4999932,-9.554772
752,1715789553.3528595,0.67094386,-2.892658,0.37975308,6.0775747,0.3827071,-9.159542
753,1715789553.3648043,0.28286234,-3.281197,0.27554062,6.374455,0.30573806,-8.78325
754,1715789553.367633,-0.16644704,-3.662201,0.010738519,6.612693,0.14752395,-8.249353
755,1715789553.3748727,-0.16644704,-3.662201,0.010738519,6.612693,0.14752395,-6.9249973
756,1715789553.375984,-1.3616259,-4.377533,-1.16638,5.5082483,-1.0326678,-6.9249973
757,1715789553.3831873,-2.2312322,-4.7661023,-1.5993681,3.4930038,-1.3900238,-5.6446238
758,1715789553.3932827,-2.2312322,-4.7661023,-1.5993681,1.9927188,-1.2971723,-4.5530076
759,1715789553.3947165,-2.4733372,-5.0997286,-1.5427469,1.9927188,-1.2971723,-4.5530076
760,1715789553.4119759,-2.4733372,-5.0997286,-1.5427469,0.07765625,-0.7290677,-2.7717247
761,1715789553.41304,-2.6022298,-5.6415663,-1.0868174,0.07765625,-0.7290677,-2.7717247
762,1715789553.415056,-2.8936343,-5.7921495,-0.5386648,-0.6932557,-0.09193522,-1.4730252
763,1715789553.4205773,-3.216766,-5.662555,0.30677995,-0.94309956,0.98807454,1.626505
764,1715789553.4373064,-2.8267624,-5.682568,0.5645349,-0.478842,1.5396858,3.3864079
765,1715789553.4460506,-1.943733,-5.6198454,0.51596755,0.4789947,1.9428569,5.1878495
766,1715789553.4650316,-1.943733,-5.6198454,0.51596755,1.596878,1.8451185,6.4651685
767,1715789553.467203,-0.9215907,-5.1995482,-0.033191785,1.596878,1.8451185,6.4651685
768,1715789553.468583,-0.9215907,-5.1995482,-0.033191785,1.915139,1.2458596,7.3368735
769,1715789553.4739594,-0.5930896,-4.678486,-0.55184394,1.915139,1.2458596,7.3368735
770,1715789553.487396,-0.5930896,-4.678486,-0.55184394,1.7703638,0.79626286,8.077242
771,1715789553.489611,-0.27432033,-4.3035836,-0.80517536,1.7703638,0.79626286,8.077242
772,1715789553.4957745,0.18206671,-3.9877734,-0.92232287,1.7703638,0.79626286,8.077242
773,1715789553.497134,0.18206671,-3.9877734,-0.92232287,1.4728725,0.5458081,8.770575
774,1715789553.5183706,1.3342915,-3.2741196,-0.9967603,0.3226132,0.5525276,10.142577
775,1715789553.5317545,3.1813776,-2.4718728,-0.49985978,-1.8135825,0.795652,11.26718
776,1715789553.5442283,3.7534783,-2.1350737,0.039537273,-2.419561,0.89827734,11.284896
777,1715789553.5629401,3.7534783,-2.1350737,0.039537273,-2.419561,0.8268061,10.994123
778,1715789553.5644736,4.49886,-1.7631307,0.86423725,-2.5154667,0.8268061,10.994123
779,1715789553.582109,4.8073483,-1.620357,1.3516195,-0.5912412,0.24709499,10.215881
780,1715789553.583395,4.730714,-1.4053122,1.6332921,-0.5912412,0.24709499,10.215881
781,1715789553.5929449,4.730714,-1.4053122,1.6332921,-0.5912412,0.1518,10.033233
782,1715789553.593945,4.795389,-1.3608937,1.4860951,-0.015195273,0.1518,10.033233
783,1715789553.6052823,4.879101,-1.2737653,1.2871884,0.53763777,0.13041973,9.542707
784,1715789553.6326547,4.1508036,-0.88376176,0.37609223,0.20044015,0.52381694,8.908019
785,1715789553.6340995,3.9230983,-0.8359266,0.06980037,-0.8056549,1.0027353,8.953834
786,1715789553.6440566,3.9230983,-0.8359266,-0.106164895,-1.8551214,1.4737124,9.035689
787,1715789553.6453428,3.836458,-0.8681421,-0.106164895,-1.8551214,1.4737124,9.035689
788,1715789553.6550229,3.8140047,-0.90694726,-0.12129646,-2.8569405,1.8811595,9.045464
789,1715789553.6784837,3.8171773,-0.94209146,0.09835507,-4.231998,2.4162774,8.908629
790,1715789553.6798027,3.730537,-0.9926113,1.1942025,-5.366986,2.6166413,8.039979
791,1715789553.6962564,3.730537,-0.9926113,1.1942025,-5.366986,2.3802364,7.577554
792,1715789553.6985118,3.5287018,-0.7836983,1.5644679,-4.8117094,2.3802364,7.577554
793,1715789553.705225,3.5287018,-0.7836983,1.5644679,-4.3120213,2.2061398,7.3515344
794,1715789553.706427,3.344896,-0.6228646,1.5595868,-4.3120213,2.2061398,7.3515344
795,1715789553.7145844,3.2343383,-0.4971446,1.3779777,-3.82394,2.0680842,7.151781
796,1715789553.7491295,3.2343383,-0.4971446,1.3779777,-3.5960875,2.0186043,6.794425
797,1715789553.7501633,2.9402492,-0.0622346,0.50010383,-3.8990765,1.9917262,6.531753
798,1715789553.7525642,2.421109,0.345341,0.51523536,-4.652884,1.8891008,6.0485587
799,1715789553.7650332,2.421109,0.345341,0.5899168,-5.156848,1.9727893,5.832312
800,1715789553.766473,2.186082,0.58869654,0.5899168,-5.5539103,2.1798725,5.739461
801,1715789553.7846518,2.186082,0.58869654,0.2660224,-7.6497893,3.289204,6.015572
802,1715789553.7866907,1.6306075,1.1639395,0.2660224,-7.6497893,3.289204,6.015572
803,1715789553.7968948,1.910541,1.1012168,0.22697324,-8.958262,3.3954945,6.3179502
804,1715789553.8113422,1.910541,1.1012168,0.22697324,-8.958262,3.3954945,6.4621143
805,1715789553.8126562,3.2865665,1.4790175,1.3052487,-11.03887,1.9367483,6.327724
806,1715789553.8223307,4.7570724,2.0110927,3.374427,-11.4664755,-0.1328632,5.2886424
807,1715789553.8322616,5.5158772,2.157039,5.206382,-10.770089,-0.98746365,4.2856016
808,1715789553.8445983,6.5702343,1.9893718,7.8069034,-7.715152,-2.032654,2.2385921
809,1715789553.8620853,6.5702343,1.9893718,7.9918985,-7.715152,-2.032654,2.2385921
810,1715789553.8649416,7.042974,1.7916852,7.9918985,-4.5783587,-1.865277,0.71814847
811,1715789553.8665948,6.883848,1.1707731,7.821791,-0.5985716,0.087659165,-1.5921439
812,1715789553.8782928,4.8256526,-0.039537273,4.8683624,2.1222222,4.7033567,-3.1999412
813,1715789553.904657,4.8256526,-0.039537273,4.8683624,2.1295526,5.795584,-2.6819274
814,1715789553.9062574,3.8352377,-0.3961049,3.291936,1.9365191,6.1034603,-2.1297054
815,1715789553.9285183,3.8042424,-0.26162934,3.1159704,1.9365191,6.1034603,-2.1297054
816,1715789553.9298334,4.0109587,-0.2362474,3.1455011,3.0770047,4.2116103,-2.6910906
817,1715789553.9571874,3.7424958,-0.35461518,2.7801476,3.0770047,4.2116103,-2.6910906
818,1715789553.9584646,3.4373937,-0.48176903,2.391578,3.827147,4.1205916,-3.994066
819,1715789553.9608064,3.4373937,-0.48176903,2.391578,3.6664896,4.3954806,-4.329431
820,1715789553.961984,3.1152382,-0.6477585,2.0254922,3.6664896,4.3954806,-4.329431
821,1715789553.9840033,2.5617166,-0.8774163,1.8107218,3.3671656,4.751004,-4.50536
822,1715789553.9864857,2.5617166,-0.8774163,1.8107218,3.1258738,5.0943108,-4.5187993
823,1715789554.0169349,2.4545448,-0.96869373,1.8751528,3.1258738,5.0943108,-4.5187993
824,1715789554.0182939,2.4213529,-1.0533816,1.935679,3.3775504,5.479767,-4.3740244
825,1715789554.019722,2.683989,-1.3203802,2.0467253,3.7611737,5.522527,-4.275675
826,1715789554.0209622,2.683989,-1.3203802,2.0467253,4.765436,5.3899693,-4.1987057
827,1715789554.052229,3.225552,-1.8439136,1.8392764,6.506402,4.744285,-4.5261297
828,1715789554.0537286,3.225552,-1.8439136,1.8392764,7.4416366,4.191452,-4.82301
829,1715789554.063076,3.3944397,-1.973996,1.6879609,8.1905575,3.6630535,-5.1339407
830,1715789554.0760934,3.5675068,-2.1760755,1.3442978,9.189933,2.7974575,-5.8101683
831,1715789554.099894,3.572388,-2.2959075,0.71292174,9.634032,2.1242838,-6.6812625
832,1715789554.1254733,3.5689712,-2.2859013,0.48103684,9.634032,2.1242838,-6.6812625
833,1715789554.1266904,3.4781513,-2.2063386,-0.088836834,8.417189,1.9117028,-7.6812487
834,1715789554.1392384,3.3341577,-2.130437,-0.30751213,7.1899605,2.0546453,-7.9817944
835,1715789554.1526647,3.3341577,-2.130437,-0.30751213,7.1899605,2.2464569,-8.092361
836,1715789554.1541145,2.9841795,-1.9366553,-0.122516744,5.633476,2.368019,-8.132068
837,1715789554.1621273,2.7720938,-1.8753968,0.04148973,5.20587,2.4932466,-8.124737
838,1715789554.1778147,2.508756,-1.8368357,0.19915071,4.887609,2.6233609,-8.046546
839,1715789554.1839275,2.508756,-1.8368357,0.19915071,4.887609,2.6233609,-8.012948
840,1715789554.1852386,2.3032293,-1.867831,0.33142975,4.883333,2.6184738,-8.012948
841,1715789554.1989708,2.267597,-1.8788137,0.35485923,4.883333,2.6184738,-8.012948
842,1715789554.2055478,2.0193906,-2.0218313,0.41172457,5.3708034,2.2110267,-8.022722
843,1715789554.2135096,1.802912,-2.255394,0.40635532,5.722662,1.9117028,-8.06304
844,1715789554.222663,1.4180031,-2.442586,0.4288086,6.417216,1.4144585,-8.022722
845,1715789554.2311544,0.80371106,-2.623951,0.36047253,7.1899605,0.79137594,-7.628714
846,1715789554.2481942,0.80371106,-2.623951,0.36047253,7.777002,0.1572978,-7.0514464
847,1715789554.2511275,0.3145898,-2.837257,0.16473864,7.777002,0.1572978,-7.0514464
848,1715789554.262662,-0.36242503,-3.2687502,-0.33020946,8.244313,-0.59956425,-6.193181
849,1715789554.2783456,-1.1685766,-3.696613,-1.1812676,7.6505527,-1.4309518,-5.341024
850,1715789554.2846243,-1.8453778,-4.0646515,-1.8099896,6.3732333,-1.8084666,-4.7942996
851,1715789554.301283,-2.7130318,-4.6884923,-2.1592355,2.077629,-1.4419475,-2.589076
852,1715789554.3288333,-2.7130318,-5.288385,-1.3530838,-1.2607495,-0.04062254,0.44448084
853,1715789554.3298328,-2.8575137,-5.288385,-1.3530838,-1.2607495,-0.04062254,0.44448084
854,1715789554.349092,-2.8575137,-5.288385,-0.12495731,-2.3627503,1.9178114,5.154863
855,1715789554.3501408,-2.3849885,-5.09802,-0.12495731,-2.3627503,1.9178114,5.154863
856,1715789554.3571792,-2.3849885,-5.09802,-0.12495731,-2.1892648,2.0143282,6.0302324
857,1715789554.358459,-1.8753968,-4.9166856,-0.10640897,-2.1892648,2.0143282,6.0302324
858,1715789554.3645878,-1.3782218,-4.666283,-0.2362474,-2.011503,1.8170186,6.4932685
859,1715789554.3796055,-0.5296347,-3.8777037,-0.6973021,-2.22836,0.1255328,7.2727327
860,1715789554.4023972,-0.10030753,-3.5609171,-0.7290295,-2.8263972,-0.3454443,7.9062
861,1715789554.404502,0.16010156,-3.425679,-0.66996765,-2.8263972,-0.3454443,7.9062
862,1715789554.4105628,0.16010156,-3.425679,-0.66996765,-2.8263972,-0.44135013,8.355797
863,1715789554.4117749,0.16010156,-3.425679,-0.66996765,-3.239342,-0.44135013,8.355797
864,1715789554.4129267,1.0636319,-3.2833939,-0.3521746,-4.232609,-0.25992316,9.468183
865,1715789554.4294887,2.3984118,-3.1450133,0.3533949,-5.2051063,0.2593123,10.487717
866,1715789554.450151,3.152823,-3.0071208,0.82250345,-4.8318677,-0.410196,10.579957
867,1715789554.4729671,3.8813646,-2.6137006,1.4402124,-4.33218,-0.9673051,10.523757
868,1715789554.47546,4.404623,-2.3864527,1.7543446,-2.785469,-2.0790799,10.667311
869,1715789554.4866116,4.9376745,-2.2063386,1.5644679,-1.7702111,-2.4058928,10.788262
870,1715789554.4988155,5.2090664,-1.9969374,1.3464943,-1.3878095,-2.310598,10.74428
871,1715789554.5133364,5.2215133,-1.7716725,1.2083579,-1.1917217,-1.9159788,10.663034
872,1715789554.5384257,5.2215133,-1.7716725,1.2083579,-1.1917217,-1.9159788,10.345996
873,1715789554.5409257,5.0126004,-0.9264718,0.90182203,-2.2717314,-0.09743301,9.272095
874,1715789554.5718768,4.088325,-0.6194478,0.8981612,-3.0744085,0.24037547,7.9074216
875,1715789554.5942519,3.6653736,-0.4087959,0.71096927,-3.0744085,0.24037547,7.9074216
876,1715789554.595237,3.364909,-0.27602875,0.6353115,-4.1147118,0.6881397,7.4963093
877,1715789554.609546,3.364909,-0.27602875,0.6353115,-4.4372487,0.63438356,7.32038
878,1715789554.611566,3.2611845,-0.1901206,0.6921768,-4.4372487,0.63438356,7.32038
879,1715789554.611566,3.2397072,-0.18914436,0.8254321,-4.703586,0.39370266,7.016169
880,1715789554.6212897,3.2397072,-0.036852647,1.2169,-4.6913686,-0.1731803,6.377204
881,1715789554.6222703,3.1093807,-0.036852647,1.2169,-4.6913686,-0.1731803,6.377204
882,1715789554.6323264,2.833596,0.19158493,1.3035402,-4.517272,-0.31856623,5.9893045
883,1715789554.6415339,2.5439003,0.400742,1.2710807,-4.467181,-0.2434298,5.762674
884,1715789554.6537652,2.5439003,0.400742,1.2571694,-4.5032225,0.21838433,5.6948676
885,1715789554.6563416,2.170706,0.74367297,1.2571694,-4.5032225,0.21838433,5.6948676
886,1715789554.6629446,2.170706,0.74367297,1.2571694,-4.5032225,0.528093,5.621564
887,1715789554.6643367,2.028909,0.9960281,1.2120188,-4.6015716,0.528093,5.621564
888,1715789554.6764283,1.7667913,1.3010997,1.2325196,-4.907615,0.9306532,5.374163
889,1715789554.6981795,1.7667913,1.5781351,1.6664839,-4.7573423,-0.07666359,5.4511323
890,1715789554.7004273,2.1995049,1.5781351,1.6664839,-4.7573423,-0.07666359,5.4511323
891,1715789554.7054348,2.8150477,2.0059676,2.0311053,-4.272926,-1.1652255,5.4040956
892,1715789554.7295053,4.480281,3.6534152,2.9346359,-2.3138812,-3.1340442,4.5946994
893,1715789554.7305076,4.480281,3.6534152,2.9346359,-1.4055246,-3.3423493,3.431001
894,1715789554.732506,5.7313795,4.363377,3.2687502,-1.4055246,-3.3423493,3.431001
895,1715789554.7453375,6.697633,4.4927278,3.3204904,-0.5564219,-2.7278187,1.1909581
896,1715789554.7546253,7.0927615,4.222556,3.0442176,-0.58818686,-1.887879,-0.24396431
897,1715789554.76234,7.0297947,3.6748922,2.569282,-1.1996629,-0.41141775,-1.813888
898,1715789554.7695434,6.334933,2.5626926,1.9654541,-2.972394,2.0796907,-3.5169804
899,1715789554.7885156,5.1082706,1.3750491,2.08553,-4.7017536,4.681366,-4.3453135
900,1715789554.8098218,4.101748,0.5184081,2.705222,-4.7017536,4.681366,-4.3453135
901,1715789554.8111012,3.5111296,0.2608972,3.9560459,-4.866687,6.6446867,-3.7759871
902,1715789554.812453,3.5111296,0.2608972,3.9560459,-3.643735,6.3630776,-3.3764813
903,1715789554.8208542,3.5111296,0.2608972,3.9560459,-1.2851841,5.2732944,-3.3257794
904,1715789554.8222418,3.6807494,0.200371,4.3284774,-1.2851841,5.2732944,-3.3257794
905,1715789554.8314006,3.8215706,0.07980672,3.8652568,1.198594,4.171904,-3.7484982
906,1715789554.8445947,3.6478016,0.011470691,3.0310385,1.198594,4.171904,-3.7484982
907,1715789554.845717,3.6478016,0.011470691,3.0310385,2.4826326,3.7394116,-4.1956515
908,1715789554.854754,3.2955966,-0.01952458,2.4379487,2.4826326,3.7394116,-4.1956515
909,1715789554.8569942,3.2955966,-0.01952458,2.4379487,3.1173217,3.7400224,-4.429613
910,1715789554.864214,3.1323223,-0.07590181,1.9466617,3.1258738,3.9629884,-4.4864235
911,1715789554.8836126,2.8826518,-0.127886,1.383347,2.386116,4.8365254,-4.5438447
912,1715789554.8917398,2.8101666,-0.13569583,1.3950617,2.386116,4.8365254,-4.5438447
913,1715789554.900091,2.8101666,-0.13569583,1.3950617,2.1930826,5.2103753,-4.5438447
914,1715789554.9130473,2.7989402,-0.18353106,1.4543676,2.1930826,5.2103753,-4.5438447
915,1715789554.9150238,2.8204172,-0.2706595,1.5171208,2.376342,5.7797017,-4.5902705
916,1715789554.9303255,3.196021,-0.735619,1.5886296,3.6206746,5.918368,-4.9024224
917,1715789554.946094,3.2960846,-0.99407566,1.500769,4.5290313,5.6251526,-5.2329006
918,1715789554.9522362,3.4398346,-1.2151915,1.4170269,4.5290313,5.6251526,-5.2329006
919,1715789554.9582975,3.4398346,-1.2151915,1.4170269,5.367749,5.1175237,-5.5817046
920,1715789554.9649997,3.4398346,-1.2151915,1.4170269,6.099566,4.5622473,-5.899966
921,1715789554.9673588,3.4827886,-1.3784659,1.3423454,6.099566,4.5622473,-5.899966
922,1715789554.977177,3.477175,-1.6142557,1.131724,6.099566,4.5622473,-5.899966
923,1715789554.9784334,3.4574065,-1.8148707,0.77149546,7.5821357,3.3429601,-6.5438175
924,1715789554.9949265,3.4574065,-1.8148707,0.77149546,7.7281327,3.0906727,-6.7454033
925,1715789554.9965763,3.4364176,-1.8714919,0.48616204,7.7281327,3.0906727,-6.7454033
926,1715789555.0088964,3.425435,-1.8595332,0.27846932,7.62734,2.9739974,-6.9066715
927,1715789555.015608,3.3807724,-1.8202399,0.10909359,7.404985,2.8933632,-7.0282335
928,1715789555.0236585,3.2336059,-1.7331116,0.025381953,6.734255,2.7907379,-7.2053847
929,1715789555.0382357,3.2336059,-1.7331116,0.025381953,6.734255,2.7754662,-7.2347064
930,1715789555.0395334,3.1415963,-1.6611147,0.061502427,6.470972,2.7754662,-7.2347064
931,1715789555.0474682,3.071308,-1.5771589,0.13374338,5.98228,2.627026,-7.3019013
932,1715789555.069891,2.9361002,-1.5400622,0.281398,5.6750145,2.4529295,-7.435681
933,1715789555.0713897,2.9361002,-1.5400622,0.281398,5.6249237,2.3991733,-7.4796634
934,1715789555.0724454,2.615897,-1.5425028,0.41343296,5.569946,2.119397,-7.5181475
935,1715789555.0830913,2.615897,-1.5425028,0.41343296,5.569946,2.119397,-7.4778304
936,1715789555.084625,2.4845638,-1.5717896,0.44930938,5.640806,1.9391917,-7.4778304
937,1715789555.1028538,2.328123,-1.6281669,0.45199403,5.9230256,1.4602734,-7.3593225
938,1715789555.1041942,2.2114637,-1.6620909,0.42807645,5.9230256,1.4602734,-7.3593225
939,1715789555.1122777,2.2114637,-1.683568,0.41587353,6.058027,1.2220359,-7.300069
940,1715789555.114433,2.0010865,-1.683568,0.41587353,6.058027,1.2220359,-7.300069
941,1715789555.1346264,1.4214199,-1.794614,0.51011014,6.83688,0.23915374,-7.05389
942,1715789555.1457794,1.2669317,-1.9852226,0.4966565,7.23211,0.015577064,-7.130248
943,1715789555.1608558,0.7773528,-2.7913742,0.10201593,7.9767547,-0.26053402,-7.530365
944,1715789555.1706686,-0.298482,-3.3985887,-0.8659456,7.9767547,-0.26053402,-7.530365
945,1715789555.1727974,-0.298482,-3.3985887,-0.8659456,7.589466,-0.64476824,-7.421631
946,1715789555.1971602,-1.3091536,-4.1200523,-1.9273812,2.4893522,-1.3503176,-5.445482
947,1715789555.2126584,-1.3091536,-4.1200523,-1.9273812,2.4893522,0.011301007,-4.34959
948,1715789555.214823,-1.7748454,-5.1068068,-1.1837082,-1.3236686,0.011301007,-4.34959
949,1715789555.2267308,-1.7748454,-5.6591387,0.061746486,-1.3236686,0.011301007,-4.34959
950,1715789555.228232,-2.7342649,-5.6591387,0.061746486,-2.409176,0.98746365,-2.3752732
951,1715789555.229275,-3.1145062,-5.6171603,0.7666143,-1.7451657,1.4132367,-0.030161472
952,1715789555.2463257,-3.1145062,-5.6171603,0.7666143,-0.4611269,1.493871,2.0608304
953,1715789555.261327,-2.2922466,-5.2949743,0.8012705,0.6353762,1.3655893,3.5122461
954,1715789555.2743318,-0.9159773,-4.4692984,-0.42075467,1.488755,1.248914,5.815819
955,1715789555.2903404,-0.57624966,-4.015352,-0.73854774,0.9237046,1.2104294,6.5598526
956,1715789555.3048553,-0.076633975,-3.5269935,-0.90182203,-0.40737075,1.2012665,7.552509
957,1715789555.321859,-0.076633975,-2.38328,-0.530611,-1.6040558,1.1365148,8.184143
958,1715789555.3233564,1.1841964,-2.38328,-0.530611,-1.6040558,1.1365148,8.184143
959,1715789555.3258133,1.1841964,-2.38328,-0.530611,-2.6895633,1.0418307,8.661229
960,1715789555.3421834,1.5991242,-2.0533147,-0.10372432,-3.4849098,1.0491611,9.145645
961,1715789555.3572953,1.5991242,-2.0533147,-0.10372432,-3.770184,0.88361657,9.498726
962,1715789555.3585544,2.3049376,-1.6166962,0.6819264,-3.615024,0.54153204,9.676487
963,1715789555.3705025,2.3049376,-1.6166962,0.6819264,-3.2595005,0.13469578,9.755289
964,1715789555.371725,2.5626926,-1.4621775,0.90231013,-3.2595005,0.13469578,9.755289
965,1715789555.3728921,2.8987594,-1.289385,0.99383163,-2.5105798,-0.5140431,9.774837
966,1715789555.3817077,3.2214031,-1.1480758,0.7473338,-1.6052775,-1.2623531,9.746126
967,1715789555.39657,3.2897391,-1.080228,0.509378,-1.2668581,-1.6606371,9.910449
968,1715789555.4122095,3.618759,-1.1898096,0.04368625,-1.3566554,-1.8060231,10.4425125
969,1715789555.4337277,3.618759,-1.2784024,-0.067359805,-1.3566554,-1.8060231,10.4425125
970,1715789555.4361997,4.2945533,-1.2068936,0.07004443,-2.38352,-1.0986412,11.331932
971,1715789555.443253,4.2945533,-1.2068936,0.07004443,-2.38352,-0.7706065,11.295891
972,1715789555.4445558,4.7019157,-1.1109791,0.18865626,-2.6700156,-0.7706065,11.295891
973,1715789555.456202,4.9374304,-0.9889505,0.2550398,-2.9717832,-0.46883908,10.911656
974,1715789555.4684136,5.0609236,-0.841784,0.3053156,-3.24484,-0.26725355,10.357602
975,1715789555.4697628,4.9071674,-0.65337175,0.47737598,-3.583259,-0.026572637,9.394267
976,1715789555.501735,4.5259504,-0.6018757,0.7583164,-3.688328,0.013744468,8.743696
977,1715789555.5035906,4.2498913,-0.4886026,1.2593659,-3.2295682,-0.2660318,7.999051
978,1715789555.5046523,3.9733741,-0.28237423,1.5019894,-2.6559658,-0.52442783,7.6117625
979,1715789555.5132525,3.6805053,-0.08688438,1.5976598,-1.8716147,-0.77182823,7.2397456
980,1715789555.5205107,3.2021227,0.2882316,1.5066264,-1.8716147,-0.77182823,7.2397456
981,1715789555.5215173,3.2021227,0.2882316,1.5066264,-0.58879775,-0.7516697,6.823136
982,1715789555.5337727,3.2021227,0.2882316,1.5066264,-0.051847186,-0.2648101,6.581233
983,1715789555.5362854,2.9290226,0.573565,1.1710172,-0.051847186,-0.2648101,6.581233
984,1715789555.5468466,2.9290226,0.573565,1.1710172,-0.051847186,0.24953845,6.448675
985,1715789555.5483842,2.786005,0.7273211,0.83324194,-0.042073343,0.24953845,6.448675
986,1715789555.5598137,2.786005,0.7273211,0.83324194,-0.042073343,0.24953845,5.918444
987,1715789555.562205,2.6429875,0.9984687,0.2186753,-0.9938014,1.8787161,5.918444
988,1715789555.5755959,2.4782183,1.0694894,0.61188203,-1.3975834,2.2122486,5.0760612
989,1715789555.5821748,2.4782183,1.0694894,0.61188203,-1.3975834,1.7009543,4.812778
990,1715789555.583537,2.0286648,1.1327002,0.8359266,-1.1648437,1.7009543,4.812778
991,1715789555.5904255,1.5029656,1.0741265,0.6655746,-1.1648437,1.7009543,4.812778
992,1715789555.5914357,1.5029656,1.0741265,0.6655746,-0.9938014,0.7498371,5.140813
993,1715789555.6037886,1.5029656,1.0741265,0.6655746,-1.0903181,0.40103304,5.9990783
994,1715789555.6052654,1.3711442,1.0455717,0.57966644,-1.0903181,0.40103304,5.9990783
995,1715789555.6188414,1.3711442,1.0455717,0.6194478,-1.0903181,0.40103304,5.9990783
996,1715789555.621374,2.7071745,1.9793652,0.5296347,-1.158735,0.82619524,7.494477
997,1715789555.6223722,2.7071745,1.9793652,0.5296347,-1.2693017,1.3106114,8.553106
998,1715789555.6307845,2.7071745,1.9793652,0.5296347,-1.2693017,1.7015651,9.0527935
999,1715789555.6330833,3.3339133,2.5502458,0.55086774,-1.2784646,1.7015651,9.0527935
1000,1715789555.6462958,3.3339133,2.5502458,0.55086774,-1.0377837,1.7211128,9.214063
