id,timestamp,acc_x,acc_y,acc_z,gyro_x,gyro_y,gyro_z
0,1715789534.477247,0.30507156,-0.014399378,1.0026177,0.29084823,0.0021380284,0.070631295
1,1715789534.5018024,0.27017137,-0.022941383,0.95551467,0.33360878,0.01985312,0.054137934
2,1715789534.5038028,0.26651052,-0.008542004,0.94453204,0.35132387,-0.0033597588,0.0687987
3,1715789534.509804,0.2818861,0.009274175,0.90743536,0.33177617,-0.0290161,0.08345947
4,1715789534.5320635,0.32898918,0.026846299,0.88205343,0.33177617,-0.0290161,0.08345947
5,1715789534.5338094,0.3990336,0.04075756,0.8739995,0.23098342,-0.13713925,0.00038179077
6,1715789534.5648162,0.3990336,0.025137896,0.8866905,0.28046352,-0.19761491,-0.48708868
7,1715789534.566841,0.5559929,0.025137896,0.8866905,0.28046352,-0.19761491,-0.48708868
8,1715789534.5778434,0.5559929,0.032215554,0.85862386,0.33788484,-0.2574797,-0.685009
9,1715789534.579844,0.54915935,0.032215554,0.85862386,0.33788484,-0.2574797,-0.685009
10,1715789534.5943992,0.54915935,0.032215554,0.85862386,0.33788484,-0.25870144,-0.78641266
11,1715789534.5963998,0.5025444,-0.07443746,0.9540503,0.51809007,-0.2837469,-0.79862994
12,1715789534.6104028,0.5198724,-0.063943,0.8879108,0.6341545,-0.22021692,-0.8444449
13,1715789534.6124036,0.58650005,0.029774986,0.8002942,0.6622543,-0.28069258,-0.9592875
14,1715789534.623406,0.58650005,0.15033926,0.74391705,0.6622543,-0.28069258,-0.9592875
15,1715789534.6254065,0.6353115,0.15033926,0.74391705,0.5724571,-0.40653083,-1.0936779
16,1715789534.6334083,0.6397045,0.21086545,0.65312773,0.38553232,-0.56596667,-1.2317334
17,1715789534.646411,0.718291,0.21281794,0.62725765,0.15767959,-0.68752885,-1.4229342
18,1715789534.6534126,0.718291,0.21281794,0.61188203,0.017180584,-0.70646566,-1.6080264
19,1715789534.6554132,0.70096296,0.18645974,0.61188203,0.017180584,-0.70646566,-1.6080264
20,1715789534.6784425,0.5896728,0.15497635,0.5908931,0.017180584,-0.70646566,-1.6080264
21,1715789534.6809692,0.59821486,0.17084008,0.57869023,-0.22960897,-0.22632557,-1.7601318
22,1715789534.682994,0.63043034,0.24649782,0.5701482,-0.39759693,0.053450707,-1.6349045
23,1715789534.695997,0.67972994,0.33191785,0.5601419,-0.62483877,0.46578476,-1.4858533
24,1715789534.7029986,0.72756517,0.43076107,0.5669755,-0.82031566,0.8200866,-1.3942236
25,1715789534.7300043,1.238377,0.94233555,0.9965162,-1.5961145,1.0693196,-2.086334
26,1715789534.7520096,1.362358,1.1043895,1.3013438,-1.5600735,0.7339546,-2.4473553
27,1715789534.7540102,1.3115941,1.2888968,1.5722778,-1.4531721,0.0021380284,-2.6666558
28,1715789534.7780395,1.3115941,1.2888968,1.5722778,0.47532952,-2.5702155,-1.8053359
29,1715789534.7800403,1.1844403,2.459426,3.2387311,0.47532952,-2.5702155,-1.8053359
30,1715789534.801597,1.1844403,2.459426,3.2387311,2.0367012,-4.8762317,-3.4620025
31,1715789534.803598,2.8655677,1.3950617,3.8357258,2.0367012,-4.8762317,-3.4620025
32,1715789534.8286035,2.7245026,1.149052,4.442696,3.125263,-5.1401258,-5.453423
33,1715789534.835605,2.7245026,1.149052,4.353615,3.0043116,-4.3612723,-6.0728407
34,1715789534.838588,2.986376,0.85447496,4.353615,3.0043116,-4.3612723,-6.0728407
35,1715789534.8586118,2.986376,0.85447496,4.353615,2.5351672,-2.4199426,-7.2731905
36,1715789534.8861942,2.9832032,0.29530928,4.5391293,2.5351672,-2.4199426,-7.2731905
37,1715789534.8931937,1.7929054,-0.90597105,4.275517,3.410537,0.5317582,-7.5554104
38,1715789534.9061875,1.6208452,-1.234228,4.2611175,3.410537,0.5317582,-7.5554104
39,1715789534.909198,1.4407004,-1.434355,3.8896623,5.252907,0.6252206,-7.438124
40,1715789534.9212003,1.4407004,-1.434355,3.8896623,5.252907,0.6252206,-7.303734
41,1715789534.924201,1.1580821,-1.6857644,3.3036506,6.4673066,0.3155119,-7.303734
42,1715789534.9502115,1.1580821,-1.6857644,3.3036506,7.1343718,-0.056505036,-7.078325
43,1715789534.9532092,0.92744803,-1.8092574,2.1057868,7.929107,-0.89888823,-6.6733212
44,1715789534.9642112,0.92744803,-1.8092574,1.9434888,7.929107,-0.89888823,-6.6733212
45,1715789534.96621,1.02922,-1.7794824,1.9434888,8.119086,-1.2140946,-6.5994062
46,1715789534.9742346,1.3303866,-1.7470227,1.7631307,8.398252,-1.5800029,-6.7576203
47,1715789534.9817624,1.5183411,-1.7133428,1.5783793,8.398252,-1.5800029,-6.7576203
48,1715789534.9837863,1.5932667,-1.717492,1.4394802,8.689024,-2.5537221,-7.6378775
49,1715789534.996789,1.6232858,-1.7333556,1.3777337,8.6114435,-3.0460796,-8.042881
50,1715789535.0037901,1.6232858,-1.7333556,1.3826149,8.502099,-3.3545666,-8.328155
51,1715789535.004791,1.6052256,-1.738969,1.3826149,8.502099,-3.3545666,-8.328155
52,1715789535.0117948,1.6052256,-1.738969,1.3826149,8.160014,-3.4901786,-8.597547
53,1715789535.013793,1.5527532,-1.7043128,1.2874324,8.160014,-3.4901786,-8.597547
54,1715789535.0317965,1.5820401,-1.5324965,0.8449567,6.515565,-2.8225029,-8.520577
55,1715789535.0437994,1.5820401,-1.5324965,0.8449567,6.515565,-2.4260514,-8.349535
56,1715789535.045782,1.5173649,-1.4421648,0.8117649,5.757481,-2.4260514,-8.349535
57,1715789535.0518014,1.4814581,-1.3352678,0.85740364,5.1899877,-2.205529,-8.146117
58,1715789535.0598037,1.4814581,-1.3352678,0.85740364,4.555909,-2.0693061,-7.647651
59,1715789535.0618048,1.4170269,-1.1812676,1.119277,4.555909,-2.0693061,-7.647651
60,1715789535.0728285,1.4170269,-1.1812676,1.119277,4.420297,-1.9110919,-7.153461
61,1715789535.0758305,1.3806623,-1.0421549,1.2571694,4.420297,-1.9110919,-7.153461
62,1715789535.0973854,1.3806623,-1.0421549,1.1336764,4.357378,-1.5628988,-6.7344074
63,1715789535.0993865,1.5793555,-0.93525785,1.1336764,4.357378,-1.5628988,-6.7344074
64,1715789535.105386,1.6271906,-0.9747952,1.1280631,4.3873105,-1.2635747,-6.749679
65,1715789535.1243918,1.5232222,-1.2273945,1.1856606,4.728784,-0.999681,-7.0648856
66,1715789535.1273909,1.2947541,-1.6225536,1.2461867,5.5424566,-1.2507466,-7.666588
67,1715789535.136393,0.6575208,-2.4718728,1.1756543,6.5399995,-1.8738291,-8.2737875
68,1715789535.1483958,0.6575208,-2.4718728,1.1756543,6.5399995,-2.3845124,-8.504695
69,1715789535.1513996,0.08371163,-2.926826,0.9799203,7.1484213,-2.3845124,-8.504695
70,1715789535.152397,-0.49690056,-3.5335827,0.66362214,7.4831758,-3.0552425,-8.496754
71,1715789535.1653996,-1.3730966,-4.1242013,0.13179092,7.249214,-3.700927,-8.078922
72,1715789535.1734269,-1.3730966,-4.6079535,-0.42246306,5.111186,-2.5867088,-5.972048
73,1715789535.175429,-2.0359864,-4.6079535,-0.42246306,5.111186,-2.5867088,-5.972048
74,1715789535.1979837,-2.0359864,-4.6079535,-0.42246306,5.111186,0.79381937,-2.081447
75,1715789535.199986,-2.5248637,-4.858356,0.3863426,2.467361,0.79381937,-2.081447
76,1715789535.2079864,-2.6556783,-4.9147334,0.7148742,2.0715203,1.951409,-0.42111522
77,1715789535.2099912,-2.6556783,-4.9147334,0.7148742,1.9432387,3.0955596,2.2147684
78,1715789535.2169883,-2.5065596,-4.9064355,0.91817385,1.9432387,3.0955596,2.2147684
79,1715789535.22299,-1.6728295,-4.820039,0.6162751,1.7196621,4.01369,4.6692247
80,1715789535.2369938,-0.77442414,-4.5952625,0.2767609,1.2633457,4.740009,5.847584
81,1715789535.2509959,-0.77442414,-4.5952625,0.2767609,1.2633457,4.785213,6.3601
82,1715789535.2530444,0.28725538,-4.047323,-0.16986385,0.13935363,4.785213,6.3601
83,1715789535.2627141,0.45419052,-3.6011868,-0.32898918,0.13935363,4.785213,6.3601
84,1715789535.2644782,0.45419052,-3.6011868,-0.32898918,-0.5997933,4.1993933,6.387589
85,1715789535.278565,0.38756293,-3.3209784,-0.29116032,-1.2815189,3.8304305,6.6826367
86,1715789535.2806404,0.4886026,-3.101571,-0.25601605,-1.7360027,3.6685512,7.130401
87,1715789535.3051682,0.4886026,-3.101571,-0.25601605,-2.7989082,3.2036827,8.225682
88,1715789535.306175,1.1058539,-2.6251714,-0.3499781,-2.7989082,3.2036827,8.225682
89,1715789535.3146276,1.5551938,-2.268573,-0.3128814,-3.8538725,3.2195654,9.2623205
90,1715789535.3223817,1.5551938,-2.268573,-0.3128814,-3.8538725,3.2195654,9.796827
91,1715789535.324595,1.9393399,-2.0747917,-0.14277348,-4.3437862,3.1334333,9.796827
92,1715789535.3315678,2.429651,-1.8890641,0.07736614,-4.84042,2.6881125,10.4425125
93,1715789535.364916,4.0402455,-1.6772224,0.298482,-6.044435,0.97097033,11.367973
94,1715789535.374238,4.633091,-1.6486678,0.5747853,-6.332153,0.3191771,11.354534
95,1715789535.3808012,4.633091,-1.5964395,0.956979,-6.1788254,-0.3436117,11.064373
96,1715789535.3827977,4.979164,-1.5964395,0.956979,-6.1788254,-0.3436117,11.064373
97,1715789535.4032605,5.108027,-1.4177591,1.620113,-6.1788254,-0.3436117,11.064373
98,1715789535.4048038,4.9874625,-1.2744975,1.9115173,-4.1531963,-1.7528778,10.356991
99,1715789535.4136662,4.7412086,-1.1517366,1.850259,-2.105576,-2.408947,10.255588
100,1715789535.4216702,4.575982,-1.1231819,1.4804819,-1.0603857,-2.496301,10.294072
101,1715789535.433974,4.2430573,-1.1239141,0.8842499,-1.0603857,-2.496301,10.294072
102,1715789535.4350517,4.2430573,-1.1239141,0.8842499,-0.72563154,-2.1621575,10.568961
103,1715789535.4587104,4.13494,-1.1597905,0.5979708,-0.72563154,-2.1621575,10.568961
104,1715789535.4616077,4.1361604,-1.2037208,0.4217309,-1.6901878,-1.3319917,11.1083555
105,1715789535.4631803,4.3074884,-1.2688842,0.37267542,-2.8202884,-0.6765333,11.223198
106,1715789535.4833126,4.366794,-1.2100663,0.3277689,-4.718858,0.41813725,10.846294
107,1715789535.5007844,4.3716755,-1.0570425,0.33899552,-4.718858,0.41813725,10.846294
108,1715789535.5031538,4.3716755,-1.0570425,0.33899552,-5.469611,0.8744536,10.444956
109,1715789535.5043151,4.2957735,-0.8273846,0.4915313,-5.842239,1.0564915,9.928775
110,1715789535.526494,4.204008,-0.5132829,0.68924814,-5.842239,1.0564915,9.928775
111,1715789535.5279956,4.204008,-0.5132829,0.68924814,-5.4635024,-0.09621128,8.061971
112,1715789535.5302353,3.8018017,0.27456442,0.9538062,-5.111033,-0.8567385,7.229361
113,1715789535.5465932,3.8018017,0.27456442,0.9538062,-5.111033,-1.212262,6.2128816
114,1715789535.549205,3.7280965,0.52768224,0.8774163,-4.963204,-1.212262,6.2128816
115,1715789535.5563486,3.7280965,0.52768224,0.7500184,-4.963204,-1.212262,6.2128816
116,1715789535.559943,3.5123498,0.67631316,0.7500184,-5.138522,-1.1597277,5.5018344
117,1715789535.5611575,2.846287,0.6404367,0.603096,-6.0737567,-0.90010995,4.6692247
118,1715789535.5781703,2.4323354,0.2967736,1.03825,-7.315035,-0.4297437,4.67289
119,1715789535.5803375,2.4916415,0.053204484,1.7443382,-7.515399,-0.44868052,4.869589
120,1715789535.5948644,2.5807528,0.16058967,3.059349,-6.5386252,-0.94042706,5.374774
121,1715789535.6049898,2.8826518,0.69534963,3.9457955,-6.5386252,-0.94042706,5.374774
122,1715789535.6060114,2.8826518,0.69534963,3.9457955,-4.9821405,-1.5103643,5.8365884
123,1715789535.61309,4.2733207,1.769476,4.198639,-1.1746175,-3.2727106,6.1566815
124,1715789535.623576,4.2733207,2.700585,3.7920394,1.4533248,-4.5451427,5.4993906
125,1715789535.625841,5.755053,2.700585,3.7920394,1.4533248,-4.5451427,5.4993906
126,1715789535.6337507,7.264089,3.5277252,2.7977197,3.6402223,-5.491984,3.4914768
127,1715789535.656047,7.818618,3.4620438,0.82128316,2.563267,-3.3240232,-0.10835222
128,1715789535.6644998,7.2982574,2.725479,0.4131889,0.73067117,-0.8720101,-1.7760143
129,1715789535.6714373,5.4436054,1.6772224,0.914269,0.73067117,-0.8720101,-1.7760143
130,1715789535.6737518,5.4436054,1.6772224,0.914269,-2.3016639,3.2061262,-3.042338
131,1715789535.6877604,5.4436054,1.6772224,1.323309,-3.2252922,4.5653014,-2.9091694
132,1715789535.6902156,4.771716,1.1004846,1.323309,-3.2252922,4.5653014,-2.9091694
133,1715789535.7029462,4.771716,1.1004846,1.323309,-2.9754481,5.5487943,-2.608013
134,1715789535.704006,4.2018113,0.6445857,2.3993878,-2.9754481,5.5487943,-2.608013
135,1715789535.718661,4.22939,0.6494669,2.786005,-1.3865877,5.3808064,-2.642832
136,1715789535.7210279,4.4622207,0.65068716,2.6246831,0.3488804,5.055826,-2.9989665
137,1715789535.7329638,4.4622207,0.65068716,2.6246831,0.3488804,4.607451,-3.7210093
138,1715789535.7345717,4.6379724,0.6399486,2.1768074,1.6353626,4.607451,-3.7210093
139,1715789535.7463787,4.6379724,0.6399486,2.1768074,1.6353626,4.0656137,-4.6672397
140,1715789535.7479615,4.416338,0.6250611,1.6291431,2.6158013,4.0656137,-4.6672397
141,1715789535.7534075,4.0312157,0.55818945,1.2439903,2.9609401,3.8224893,-5.163873
142,1715789535.7651582,4.0312157,0.5098661,0.79394877,3.053181,3.8041632,-5.6104155
143,1715789535.7661939,3.4354413,0.5098661,0.79394877,3.053181,3.8041632,-5.6104155
144,1715789535.7687945,3.4354413,0.5098661,0.79394877,2.7660742,4.1413608,-5.767408
145,1715789535.7744064,3.1301258,0.4876264,0.53622425,2.7660742,4.1413608,-5.767408
146,1715789535.7854886,3.1301258,0.4729829,0.3316738,2.277382,4.617225,-5.808336
147,1715789535.787527,2.9336596,0.4729829,0.3316738,2.277382,4.617225,-5.808336
148,1715789535.7962296,2.9336596,0.4729829,0.3316738,2.277382,4.866458,-5.844988
149,1715789535.798542,2.9456184,0.43368974,0.31532198,1.946293,4.866458,-5.844988
150,1715789535.8095422,3.0959575,0.31654227,0.32020313,1.946293,4.866458,-5.844988
151,1715789535.8106914,3.5887399,-0.08102701,0.34265637,1.5425111,4.8792863,-6.36911
152,1715789535.8219018,3.5887399,-0.08102701,0.34265637,1.5425111,4.7241263,-6.673932
153,1715789535.824182,3.7791045,-0.34387666,0.42978483,1.6225344,4.7241263,-6.673932
154,1715789535.8501709,3.9372535,-1.03825,0.586256,2.7605765,4.071111,-7.461337
155,1715789535.8634799,4.023894,-1.5429909,0.56087404,3.2633185,4.073555,-7.5822883
156,1715789535.8777626,4.10907,-1.7397012,0.49250755,3.2633185,4.073555,-7.5822883
157,1715789535.8797634,4.2613616,-1.8214604,0.45638704,3.9523745,4.062559,-7.7136245
158,1715789535.885997,4.2613616,-1.8214604,0.45638704,4.4917684,3.805996,-7.878558
159,1715789535.897549,4.3933964,-1.909809,0.36803833,5.037882,3.3240232,-8.155891
160,1715789535.9336593,4.3933964,-1.909809,0.36803833,5.2168655,0.8072584,-9.610361
161,1715789535.9359698,4.149095,-1.9242083,-0.18133454,5.2168655,0.8072584,-9.610361
162,1715789535.9630811,3.9880173,-1.8663669,-0.29652956,4.601724,0.57696223,-9.763688
163,1715789535.964134,3.7105243,-1.8224366,-0.3585201,3.0788372,1.1798862,-9.59509
164,1715789535.9737518,3.7105243,-1.8224366,-0.3585201,2.490574,1.6850718,-9.3922825
165,1715789535.9757524,3.6036272,-1.8348833,-0.19475769,2.490574,1.6850718,-9.3922825
166,1715789535.9846256,3.39566,-1.7189562,0.12154051,2.227902,1.9269744,-9.152823
167,1715789536.0023954,3.2753398,-1.8312227,0.58381546,2.6151905,1.647809,-8.986057
168,1715789536.0128472,3.1489182,-2.0730834,0.76368564,3.2260556,1.4559973,-9.121058
169,1715789536.0241938,2.7371936,-2.573187,0.6868076,4.0519457,1.2599095,-9.281715
170,1715789536.032608,2.7371936,-2.573187,0.6868076,4.4563384,1.3289373,-9.829051
171,1715789536.0347786,2.2453878,-3.4488645,0.38609856,4.4563384,1.3289373,-9.829051
172,1715789536.0472302,2.2453878,-3.4488645,0.38609856,4.4563384,1.8347337,-10.595687
173,1715789536.048595,1.5259069,-4.0260906,0.33435842,4.8509574,1.8347337,-10.595687
174,1715789536.0659857,1.5259069,-4.0260906,-0.27480847,5.4129534,0.9599747,-10.0398
175,1715789536.0680473,-1.858557,-5.917595,-0.27480847,5.4129534,0.9599747,-10.0398
176,1715789536.0813189,-1.858557,-5.917595,-0.27480847,5.4129534,0.9599747,-7.775933
177,1715789536.0828285,-3.8391426,-7.345848,-0.4742032,4.4771075,-1.7192802,-5.439984
178,1715789536.096146,-4.0177927,-7.0654263,-0.45736328,3.2578206,-1.2678508,-2.3092997
179,1715789536.1122067,-3.8984485,-6.710568,-0.34241232,2.2297344,-0.023518313,-0.26412287
180,1715789536.114611,-2.8904614,-6.28124,0.17938207,0.6335436,2.377793,3.1121294
181,1715789536.1330183,-2.1790042,-5.982758,0.40269446,0.6335436,2.377793,3.1121294
182,1715789536.1350243,-1.3777337,-5.450195,0.5611181,0.37698022,2.5751023,5.5458164
183,1715789536.1530347,-0.7422086,-4.836147,0.52719414,0.69401926,2.1401663,6.477997
184,1715789536.1551628,-0.20183535,-4.298458,0.36584184,0.8833875,1.964848,7.0137258
185,1715789536.1813617,1.3401489,-2.539263,-0.32581642,0.4014148,1.2550226,8.945282
186,1715789536.196872,1.3401489,-2.539263,-0.32581642,-0.14042264,1.1578951,9.468793
187,1715789536.1987233,1.8307344,-2.2544177,-0.4085518,-0.14042264,1.1578951,9.468793
188,1715789536.2293437,2.3544812,-1.9505666,-0.43515408,-0.85452414,1.1927143,9.902508
189,1715789536.2310598,3.9521408,-1.1121993,0.5013241,-2.7934103,1.5231925,10.397308
190,1715789536.2379181,3.9521408,-1.1121993,0.5013241,-3.0121002,1.5610662,10.322172
191,1715789536.263115,4.1583695,-1.0218983,0.8381231,-3.0133219,1.45783,10.316063
192,1715789536.265194,4.5752497,-1.0502088,0.8522784,-2.6834548,1.2360858,10.182283
193,1715789536.2786188,4.511307,-0.9777239,0.8442246,-2.5588381,1.1181889,9.917779
194,1715789536.2797902,4.3643537,-0.9196382,0.8276287,-2.5588381,1.1181889,9.917779
195,1715789536.2818773,4.3643537,-0.9196382,0.8276287,-2.5008059,1.0100657,9.787664
196,1715789536.294881,4.2987022,-0.8639931,0.78809136,-2.446439,0.84513205,9.612347
197,1715789536.3107567,4.224753,-0.8286049,0.6921768,-2.6468027,0.6087272,9.282479
198,1715789536.3130352,4.10907,-0.8283608,0.55086774,-2.6468027,0.6087272,9.282479
199,1715789536.328405,4.10907,-0.8283608,0.55086774,-3.2136858,0.65393126,9.2342205
200,1715789536.33042,3.8515897,-0.85545117,0.35022214,-3.2136858,0.65393126,9.2342205
201,1715789536.332144,3.721751,-0.991147,0.23161033,-3.9528327,0.7651087,9.357005
202,1715789536.346517,3.648778,-1.0231185,0.32996538,-4.376162,0.87872964,9.438861
203,1715789536.3621495,3.646337,-0.86472535,0.87229115,-4.2106175,0.50854534,9.524993
204,1715789536.3901906,3.8684294,-0.66947955,0.8456889,-4.2106175,0.50854534,9.524993
205,1715789536.3922253,3.9709332,-0.5845476,0.7675905,-3.511788,-0.0693332,9.206732
206,1715789536.3944852,3.9453075,-0.14692247,0.47078642,-2.9296334,-0.4700608,8.017377
207,1715789536.4248087,2.8553174,0.2884757,-0.06858008,-4.5288787,-0.6197228,6.961802
208,1715789536.433262,2.734997,0.26675457,0.17328064,-5.5294757,-0.50488013,6.895218
209,1715789536.4462364,2.667149,0.35022214,0.60944146,-5.950973,-0.38148534,6.9025483
210,1715789536.4650216,2.7318244,0.4846977,1.0868174,-6.0114484,-0.4370741,6.975241
211,1715789536.4677382,3.443251,0.8910835,1.8558723,-4.931439,-1.425454,7.1358986
212,1715789536.4795341,3.443251,0.8910835,1.8558723,-4.931439,-1.425454,6.696076
213,1715789536.4818997,4.6133227,1.760446,2.2915146,-2.5808294,-3.3215797,6.2018857
214,1715789536.5004985,5.1585464,3.1069403,2.5497575,-1.076879,-4.0986004,5.462739
215,1715789536.508436,5.1585464,3.1069403,2.5497575,0.031841353,-4.3527203,5.0033684
216,1715789536.515831,5.8568244,4.117612,2.6942394,1.6769015,-4.4303,4.472526
217,1715789536.5392928,7.210641,3.8850253,1.7758216,2.3470206,-2.7015514,2.2789092
218,1715789536.5530791,7.586031,2.9548926,1.1466115,1.4282793,-1.0345002,0.46769372
219,1715789536.5550115,7.38563,2.1323893,0.82396775,0.1735621,0.33444872,-1.1419362
220,1715789536.5632305,7.38563,2.1323893,0.82396775,-1.6840792,1.9874501,-2.6330583
221,1715789536.566291,6.3029613,1.3977463,0.8510581,-1.6840792,1.9874501,-2.6330583
222,1715789536.5773594,6.3029613,1.3977463,0.8510581,-2.8661034,3.085175,-3.1168635
223,1715789536.5795078,4.5401053,0.5372005,1.9576442,-2.8661034,3.085175,-3.1168635
224,1715789536.5806942,4.5401053,0.5372005,1.9576442,-3.234455,4.404033,-3.4968216
225,1715789536.6097834,4.5401053,0.5372005,1.9576442,-2.75065,4.8652363,-3.6709182
226,1715789536.6112714,3.742008,0.3145898,2.5500016,-1.8007544,5.0863695,-3.7869828
227,1715789536.6132808,3.4427629,0.19671014,2.4255018,-0.2308307,4.9189925,-3.8425715
228,1715789536.6223278,3.3729625,0.16937573,1.9361672,1.0269408,4.340503,-3.9965096
229,1715789536.6415532,3.4073749,0.15839316,1.6816155,1.0269408,4.340503,-3.9965096
230,1715789536.6441216,3.3751593,0.18645974,1.3350236,2.001271,3.4950655,-4.665407
231,1715789536.6540055,3.2951086,0.19109683,1.0843768,2.001271,3.4950655,-4.665407
232,1715789536.6560187,3.2951086,0.19109683,1.0843768,2.0617466,3.366173,-4.936631
233,1715789536.6806042,3.1115775,0.084687866,0.63775206,1.8174005,3.510337,-5.4295993
234,1715789536.682637,3.1206076,-0.04368625,0.5908931,1.3085498,4.1572433,-5.907907
235,1715789536.7061434,3.2821736,-0.3951287,0.64482975,1.1014664,5.229923,-6.1583614
236,1715789536.719008,3.5965497,-0.70999306,0.74367297,1.5095243,5.6569176,-6.532822
237,1715789536.7220342,3.7371266,-0.90279824,0.7900438,1.910252,5.691126,-6.736851
238,1715789536.732455,3.9584868,-1.1553975,0.82128316,2.6652815,5.5048122,-7.0154057
239,1715789536.74737,4.2147465,-1.366507,0.7815018,3.4050393,5.1676145,-7.2738013
240,1715789536.7556167,4.2147465,-1.366507,0.7815018,4.031787,4.842634,-7.5547996
241,1715789536.756831,4.434398,-1.5632477,0.68827194,4.031787,4.842634,-7.5547996
242,1715789536.7640774,4.538641,-1.7684999,0.5230452,4.5833983,4.52926,-7.879169
243,1715789536.7814703,4.538641,-1.7684999,0.5230452,4.5833983,3.4669657,-8.890761
244,1715789536.7834754,4.505937,-2.012069,0.13496366,5.4935875,3.4669657,-8.890761
245,1715789536.8118074,4.3926644,-2.0428202,0.059794027,5.5161896,3.256828,-9.0892935
246,1715789536.89993,4.3926644,-1.9288454,-0.1701079,4.488714,2.3698518,-9.587759
247,1715789536.9020004,4.173257,-1.9288454,-0.1701079,4.488714,2.3698518,-9.587759
248,1715789536.9378335,3.0901003,-1.8351275,0.3778006,3.7385716,2.3228152,-9.650067
249,1715789536.972679,4.038049,-1.7094378,-0.16425052,3.3714416,2.3032675,-9.661674
250,1715789536.974394,3.378576,-1.7426299,0.272856,3.365333,1.8616118,-10.105162
251,1715789536.9768124,2.5690382,-2.5995452,0.6733844,3.9401572,1.5537357,-9.9836
252,1715789536.979302,-1.7184682,-6.5695024,-0.944288,5.06476,0.0729984,-10.810101
253,1715789536.98149,-2.935124,-7.4310246,-0.95136565,1.6988926,-1.8817704,-5.8468204
254,1715789536.9829845,-3.2367787,-7.581883,-0.7256127,1.6988926,-1.8817704,-5.8468204
255,1715789536.9962828,-3.2367787,-7.581883,-0.7256127,1.6988926,-0.21960606,-2.5957954
256,1715789536.9986544,-3.5396843,-7.355855,-0.24869433,0.05627596,-0.21960606,-2.5957954
257,1715789537.0048087,-3.471562,-7.1762285,0.039537273,-0.83253294,1.258077,-0.3563635
258,1715789537.0113502,-3.471562,-7.1762285,0.039537273,-1.5472453,2.843883,2.5959482
259,1715789537.0189934,-2.718645,-6.770606,0.5930896,-1.5472453,2.843883,2.5959482
260,1715789537.0316072,-0.9818728,-5.8121624,0.9376984,-0.46967903,3.2641585,6.476775
261,1715789537.046653,-0.9818728,-5.8121624,0.9376984,-0.46967903,3.2641585,7.3606973
262,1715789537.0486665,-0.547695,-5.3520837,0.8937682,0.31650457,3.18047,7.3606973
263,1715789537.0711093,-0.08615221,-4.901554,0.74050015,1.0751992,3.0363057,8.156654
264,1715789537.0737083,1.2608302,-3.8000937,-0.0353883,1.9859992,2.6673431,9.228723
265,1715789537.0754209,1.2608302,-3.8000937,-0.0353883,2.2340105,2.36863,9.74185
266,1715789537.0893385,1.9163984,-3.1374474,-0.47810817,2.009823,2.0216584,10.336833
267,1715789537.1064777,2.3474035,-2.6810603,-0.6658187,2.009823,2.0216584,10.336833
268,1715789537.1090317,2.8645914,-2.2739422,-0.77442414,0.68241286,1.9581286,11.173718
269,1715789537.1150434,2.8645914,-2.2739422,-0.77442414,0.68241286,1.9581286,11.415621
270,1715789537.1173363,3.5396843,-1.7924175,-0.7844305,-0.2448806,2.0778582,11.415621
271,1715789537.1321485,3.5396843,-1.7924175,-0.7844305,-0.2448806,2.2470677,11.416231
272,1715789537.1336257,4.029019,-1.1895655,-0.19573392,-2.3749678,2.2256875,11.382023
273,1715789537.1569207,4.3179827,-1.3652867,0.1466784,-3.2698853,2.1029036,11.666686
274,1715789537.1778595,4.3179827,-1.3652867,0.1466784,-3.2698853,2.0815234,11.514581
275,1715789537.1803367,4.2276816,-1.569105,0.7002308,-4.468403,1.8261817,11.287339
276,1715789537.1971526,4.1056533,-1.653549,1.0028617,-4.3480625,1.3497068,11.405236
277,1715789537.212828,4.1056533,-1.653549,1.0028617,-4.069508,0.9104946,11.439445
278,1715789537.2150624,4.2657547,-1.7379928,1.1666241,-3.4024432,0.16401732,11.275122
279,1715789537.2330976,4.241593,-1.7987629,0.9928554,-2.5802186,-0.65576386,11.035663
280,1715789537.2559395,4.170328,-1.6889371,0.68876004,-2.5118015,-0.58123827,10.813918
281,1715789537.274076,3.9655643,-1.5549498,0.49616838,-2.5118015,-0.58123827,10.813918
282,1715789537.276582,3.917729,-1.4934168,0.45004156,-3.302261,0.6966918,10.692356
283,1715789537.2957108,3.917729,-1.4934168,0.45004156,-3.8575377,1.6826283,10.431517
284,1715789537.296955,4.10907,-1.1414863,0.7146301,-4.018195,2.0638082,9.942824
285,1715789537.3091843,4.10907,-1.1414863,0.7146301,-3.9400046,2.164601,9.338678
286,1715789537.3116462,3.9252949,-0.50669336,0.731226,-3.8178315,2.1988094,8.672835
287,1715789537.323556,3.3971243,0.13740423,0.33777523,-4.1586943,2.3240368,7.5506763
288,1715789537.3347657,2.9609942,0.41538543,-0.19280522,-5.493435,2.5103507,6.862842
289,1715789537.3443904,2.9609942,0.41538543,-0.3648656,-5.493435,2.5103507,6.862842
290,1715789537.3463955,2.884848,0.3248402,-0.3648656,-7.024263,2.6025913,6.446232
291,1715789537.371545,2.884848,0.3248402,-0.3648656,-7.024263,2.6025913,5.248936
292,1715789537.373151,3.1725917,-0.24015234,2.8767943,-9.06211,0.96791595,5.248936
293,1715789537.3954542,3.9272473,0.41733786,4.1115103,-4.662658,-1.4785993,5.0833917
294,1715789537.4104767,4.259165,0.9896826,4.151292,-2.501417,-2.6380215,4.7523026
295,1715789537.4173238,4.259165,0.9896826,3.7022266,0.07765625,-4.2470407,4.101731
296,1715789537.4195414,4.9240074,1.5493364,3.7022266,0.07765625,-4.2470407,4.101731
297,1715789537.43254,6.178248,1.7418976,2.3303194,1.8125136,-4.4144177,2.2141573
298,1715789537.4750576,5.797763,0.32923323,1.6384172,-0.07689266,-0.15363261,-1.7393625
299,1715789537.4772813,5.797763,0.32923323,1.6384172,-0.7250207,1.3637567,-2.529822
300,1715789537.4834442,5.127063,-0.061746486,1.7724047,-1.0219012,2.9556715,-2.829146
301,1715789537.49688,4.484674,-0.15717287,1.9176189,-0.86124367,4.0784416,-2.7271316
302,1715789537.5044937,4.2623377,-0.11836776,1.9910799,-0.4330271,4.540867,-2.5518131
303,1715789537.5336668,4.2623377,-0.04759116,1.9849786,0.35987598,4.350277,-2.5713608
304,1715789537.5355458,4.208889,-0.008053889,1.6528167,1.8528306,2.840218,-3.7711003
305,1715789537.5507367,3.721751,-0.15107143,1.2483834,2.2401192,2.2934935,-4.602488
306,1715789537.5587182,3.721751,-0.15107143,1.2483834,2.2401192,2.132836,-5.054528
307,1715789537.560126,3.721751,-0.15107143,1.2483834,2.31831,2.132836,-5.054528
308,1715789537.5676272,3.4391022,-0.22160399,1.0619236,2.222404,2.165212,-5.476636
309,1715789537.5748227,3.1984618,-0.32947728,0.8840059,1.8338938,2.5744915,-5.749082
310,1715789537.5943844,3.0683792,-0.4829893,0.79907393,1.1766028,4.3692136,-5.8510966
311,1715789537.614416,3.401029,-0.9638126,0.8478854,1.053819,6.0344324,-6.331847
312,1715789537.6358976,3.7075956,-1.4756007,0.87155896,1.9273562,7.0625186,-6.982419
313,1715789537.6504784,3.7075956,-1.4756007,0.87155896,2.6603944,7.200574,-7.1980543
314,1715789537.6528716,3.7878904,-1.7455585,0.85764766,3.3806045,7.1608677,-7.29396
315,1715789537.6548936,3.8437798,-1.9639896,0.78809136,3.3806045,7.1608677,-7.29396
316,1715789537.6665142,3.9594626,-2.2495365,0.59992325,4.580344,6.8578787,-7.3104534
317,1715789537.6833098,4.021941,-2.434776,0.35193056,5.8472786,5.9623504,-7.3648205
318,1715789537.7127018,4.026335,-2.4980175,0.26626647,5.8472786,5.9623504,-7.3648205
319,1715789537.7142966,3.9741063,-2.4945703,0.21379416,6.6945486,4.6917505,-7.616497
320,1715789537.7157433,3.943599,-2.4428298,0.1403329,6.996316,3.9031234,-7.820526
321,1715789537.7338219,4.015596,-2.4003642,0.07370529,7.1588063,3.0766227,-8.179715
322,1715789537.7358363,3.8684294,-2.3388615,0.036120474,7.1533084,2.4883597,-8.53585
323,1715789537.7538815,3.7417636,-2.2829726,0.008786061,6.7312007,1.5855007,-9.00255
324,1715789537.7566957,3.7517703,-2.2480724,-0.014887493,6.7312007,1.5855007,-9.00255
325,1715789537.7581494,3.7517703,-2.2480724,-0.014887493,6.3787313,1.3301591,-9.193751
326,1715789537.760337,3.7239473,-2.2026777,-0.03734076,6.3787313,1.3301591,-9.193751
327,1715789537.7835877,3.7239473,-2.2026777,-0.03734076,6.3787313,0.8555168,-9.41916
328,1715789537.785618,3.6590283,-2.097489,0.088104665,5.3469796,0.8555168,-9.41916
329,1715789537.7975795,3.5116177,-2.0045033,0.17889395,5.1802135,0.754724,-9.446038
330,1715789537.8152528,3.2265284,-1.9349468,0.20183535,4.509484,0.38453966,-9.033093
331,1715789537.830257,3.606068,-2.302741,0.06028214,3.733074,0.34483343,-9.014156
332,1715789537.8452587,3.606068,-2.302741,0.06028214,3.3402874,0.700357,-9.368459
333,1715789537.861514,3.606068,-3.6006985,0.8534987,4.099593,2.1346686,-11.384925
334,1715789537.8635159,2.9746614,-3.6006985,0.8534987,4.099593,2.1346686,-11.384925
335,1715789537.876523,-1.551533,-6.621975,-0.13057062,7.1447563,0.4596761,-13.184534
336,1715789537.8950427,-3.640236,-7.41272,-0.5716126,6.9950943,-2.283109,-11.041618
337,1715789537.9080462,-3.76861,-7.9257593,-0.7876032,5.178992,-3.9562688,-5.9017982
338,1715789537.9172027,-3.7961886,-7.7014704,-0.7500184,5.178992,-3.9562688,-5.9017982
339,1715789537.9193463,-3.7961886,-7.7014704,-0.7500184,2.9096274,-1.7974709,-2.9091694
340,1715789537.9205964,-3.986065,-7.1257086,-0.122760795,0.4985424,0.89949906,0.78656536
341,1715789537.9440577,-3.3322053,-6.7073946,0.4720067,0.4985424,0.89949906,0.78656536
342,1715789537.9460585,-2.3840122,-6.288562,0.6653306,-0.78549635,1.8958203,6.13408
343,1715789537.9540608,-1.3589412,-5.749684,0.64556193,-0.8490263,2.010663,7.460879
344,1715789537.9614618,-0.4080637,-5.101681,0.6040722,-0.8917869,2.2000313,8.3252535
345,1715789537.978351,-0.4080637,-5.101681,0.6040722,-0.64255387,2.2403483,9.041799
346,1715789537.9807642,0.88058907,-4.1966863,0.5806427,-0.24976753,1.8756617,8.997205
347,1715789537.9924953,1.4206878,-3.684166,0.5418376,-0.24976753,1.8756617,8.997205
348,1715789537.993793,1.7026043,-3.1601448,0.49397188,0.3543782,1.3038919,8.919625
349,1715789538.0048833,1.7026043,-3.1601448,0.49397188,0.89682657,0.86529064,9.058903
350,1715789538.0073166,1.782411,-2.7240145,0.4217309,0.89682657,0.86529064,9.058903
351,1715789538.0159993,2.004259,-2.2592988,0.25528386,1.3879622,0.58246,9.48773
352,1715789538.0239437,2.004259,-2.2592988,0.25528386,1.6982818,0.5983425,10.308122
353,1715789538.0271032,2.576604,-1.8341513,-0.04637088,1.6982818,0.5983425,10.308122
354,1715789538.0472763,3.3119483,-1.5630037,-0.27773714,1.6982818,0.5983425,10.308122
355,1715789538.0495858,3.8303564,-1.3413692,-0.37828872,1.1020772,1.2757921,10.839575
356,1715789538.0511324,4.011691,-1.2286147,-0.37169918,1.1020772,1.2757921,10.839575
357,1715789538.0580692,4.011691,-1.2286147,-0.37169918,0.24320072,1.8469511,10.804145
358,1715789538.074848,4.011691,-1.2286147,-0.35095432,0.24320072,1.8469511,10.804145
359,1715789538.07616,4.4280524,-1.1863928,-0.3443648,-0.43913576,2.0809124,10.897607
360,1715789538.0893624,4.4280524,-1.1863928,-0.3443648,-0.43913576,2.0809124,11.035663
361,1715789538.0913708,4.5022764,-1.1712612,-0.260165,-1.1214722,2.1426098,11.035663
362,1715789538.0989757,4.67751,-1.1734577,-0.19280522,-1.5741234,2.0748038,11.105301
363,1715789538.1049798,4.791972,-1.1244023,-0.102748096,-1.5741234,2.0748038,11.105301
364,1715789538.1070611,4.791972,-1.1244023,-0.102748096,-1.9876791,2.0357084,11.059486
365,1715789538.114055,4.791972,-1.0245829,0.09664667,-2.4580455,2.0216584,10.8988285
366,1715789538.115054,4.708505,-1.0245829,0.09664667,-2.4580455,2.0216584,10.8988285
367,1715789538.1224308,4.5139914,-0.986998,0.260165,-2.7072785,2.0045543,10.83591
368,1715789538.132111,4.5139914,-0.986998,0.260165,-2.953457,1.9410243,10.896385
369,1715789538.134117,4.2611175,-1.046548,0.31727442,-2.953457,1.9410243,10.896385
370,1715789538.1447244,4.2611175,-1.046548,0.31727442,-3.249116,1.8548924,11.041771
371,1715789538.146401,4.0424423,-1.1078063,0.3385074,-3.249116,1.8548924,11.041771
372,1715789538.1623108,4.0185246,-1.3184278,0.91622144,-3.1086168,1.1609493,11.156003
373,1715789538.1758568,4.0185246,-1.2725451,1.2879206,-2.0524309,0.2941316,10.819416
374,1715789538.1784008,4.332382,-1.2725451,1.2879206,-2.0524309,0.2941316,10.819416
375,1715789538.1848092,4.332382,-1.2725451,1.2879206,-0.4818963,-0.37598756,10.002689
376,1715789538.1868339,4.320423,-0.98455745,1.255217,-0.4818963,-0.37598756,10.002689
377,1715789538.194162,4.293089,-0.79028785,1.0621676,0.20349449,-0.5635232,9.48834
378,1715789538.202751,4.185948,-0.58527976,0.7234162,0.20349449,-0.5635232,9.48834
379,1715789538.2037323,4.185948,-0.58527976,0.7234162,0.6879106,-0.50243664,8.867702
380,1715789538.2110727,4.185948,-0.58527976,0.7234162,0.6879106,0.1994475,7.9025345
381,1715789538.2130997,3.9201694,-0.31507793,-0.009518232,0.45883617,0.1994475,7.9025345
382,1715789538.2223458,3.9201694,-0.31507793,-0.009518232,-0.24121541,0.7669413,7.4223948
383,1715789538.2244852,3.6556115,-0.20964517,-0.31605414,-0.24121541,0.7669413,7.4223948
384,1715789538.2531605,3.0732603,0.049299564,-0.34631723,-1.2051607,1.4804319,7.096803
385,1715789538.255159,2.4718728,0.44735694,-0.30970863,-2.881375,2.5109615,7.0638165
386,1715789538.2649262,2.3693688,0.60163164,-0.35876414,-3.8721983,2.8157833,7.048545
387,1715789538.2793794,2.3693688,0.60163164,-0.35876414,-3.8721983,2.6520715,6.7748775
388,1715789538.281754,2.5739193,0.65215147,-0.35412705,-5.7664914,2.0576997,6.3833127
389,1715789538.2827566,2.8348165,0.7090168,0.007321717,-5.7664914,2.0576997,6.3833127
390,1715789538.3105595,2.8348165,0.7090168,0.007321717,-5.260084,0.4364632,6.2916827
391,1715789538.3119795,3.733466,1.3352678,1.102193,-4.389601,-0.6258314,6.3210044
392,1715789538.3182507,3.733466,1.3352678,1.102193,-2.858773,-1.7333301,6.4535623
393,1715789538.320413,4.3558116,1.8732004,1.4529033,-2.858773,-1.7333301,6.4535623
394,1715789538.3366363,5.050917,2.6261475,1.5761827,-2.858773,-1.7333301,6.4535623
395,1715789538.3391795,5.050917,2.6261475,1.5761827,-1.213102,-2.595261,6.4382906
396,1715789538.3411639,5.803376,3.1669784,1.4316703,-1.213102,-2.595261,6.4382906
397,1715789538.3493595,5.803376,3.1669784,1.4316703,-1.213102,-2.595261,6.332611
398,1715789538.3528016,5.803376,3.1669784,1.4316703,-0.117820635,-3.1603115,6.332611
399,1715789538.3591928,6.905569,3.3048708,0.6257933,0.6903541,-3.6080756,5.6686006
400,1715789538.3724818,7.8110523,3.0525155,-0.42856455,0.033673946,-3.2262847,4.446259
401,1715789538.3751743,7.9948273,2.276871,-1.4079968,-3.5808158,-0.71685034,1.4970016
402,1715789538.3947258,7.5013433,1.0448396,-1.2579015,-7.754247,2.776077,-0.8969793
403,1715789538.3960075,6.4901533,0.12032023,-0.500836,-9.869674,5.324607,-1.9342284
404,1715789538.4027133,5.609839,-0.47078642,0.25040275,-11.2832155,7.8829107,-2.5957954
405,1715789538.4136581,3.6768446,-1.0497208,2.144348,-11.588648,11.111944,-2.8951194
406,1715789538.4238117,2.803333,-0.9752833,3.5838585,-9.043173,11.644008,-2.5395958
407,1715789538.4375868,2.803333,-0.9752833,3.5838585,-9.043173,11.644008,-2.2793672
408,1715789538.4386227,2.7115676,-0.88839895,3.9301758,-6.452493,10.48764,-2.2793672
409,1715789538.4575684,2.7115676,-0.88839895,3.9301758,-6.452493,8.185288,-2.0643427
410,1715789538.4596086,3.0144427,-0.6223765,2.781368,-0.92660624,6.6104784,-2.1101577
411,1715789538.4771364,3.0144427,-0.6223765,2.781368,1.9432387,4.151135,-2.5909085
412,1715789538.4781437,3.0693555,-0.5801546,2.23831,2.8051696,3.5115588,-2.9898036
413,1715789538.490869,3.0200558,-0.51547945,1.61572,3.1161,3.4217618,-3.4656677
414,1715789538.4990041,2.8826518,-0.5035206,1.2405735,3.1161,3.4217618,-3.4656677
415,1715789538.5008183,2.8826518,-0.5035206,1.2405735,2.8460975,3.9996402,-3.8553996
416,1715789538.523631,2.7845407,-0.5274382,1.0443515,2.8460975,3.9996402,-3.8553996
417,1715789538.5257847,2.9029086,-0.8864465,0.9972484,1.316491,7.419264,-4.184656
418,1715789538.5420244,2.9029086,-0.8864465,0.9972484,1.3012193,8.0582285,-4.1321216
419,1715789538.5433393,3.0000432,-1.0314164,1.1060979,1.3012193,8.0582285,-4.1321216
420,1715789538.5460489,3.1835744,-1.1949348,1.24277,1.3012193,8.0582285,-4.1321216
421,1715789538.547071,3.1835744,-1.1949348,1.24277,1.5754979,8.487057,-4.075311
422,1715789538.5614734,3.4354413,-1.3635783,1.3521076,2.0574706,8.627555,-4.061872
423,1715789538.5638285,3.9055262,-1.7001638,1.4480221,3.3433418,8.529817,-4.2139773
424,1715789538.5723283,4.1866803,-1.9188391,1.4304501,4.2468114,8.248208,-4.4173956
425,1715789538.5849319,4.1866803,-2.2668648,1.3401489,5.3384275,7.785172,-4.7399325
426,1715789538.5869193,4.508134,-2.2668648,1.3401489,5.3384275,7.785172,-4.7399325
427,1715789538.597051,4.508134,-2.2668648,1.3401489,6.5161757,7.0979486,-5.1266103
428,1715789538.5991387,4.6011195,-2.4953022,1.2225133,6.5161757,7.0979486,-5.1266103
429,1715789538.6350613,4.6936173,-3.067403,0.684367,10.147159,4.220773,-6.7105837
430,1715789538.6557386,4.6936173,-3.1250005,0.4937278,10.7305355,3.058297,-7.671475
431,1715789538.6578677,4.556701,-3.149162,0.28457075,10.7305355,3.058297,-7.671475
432,1715789538.680097,4.370699,-3.0066328,-0.21159762,9.804463,1.4046847,-9.743529
433,1715789538.6819427,4.083932,-2.888509,-0.32606047,9.804463,1.4046847,-9.743529
434,1715789538.710943,3.1401322,-2.5109525,-0.4339338,8.150241,0.59773165,-10.362336
435,1715789538.7190206,2.7591588,-2.4369726,-0.4148973,8.150241,0.59773165,-10.362336
436,1715789538.721167,2.7591588,-2.4369726,-0.4148973,7.2473817,0.38515055,-10.193737
437,1715789538.733533,2.4059772,-2.5224233,-0.33020946,6.506402,0.27458394,-9.935952
438,1715789538.7439766,2.1687536,-2.6261475,-0.21062139,5.9004235,0.22143865,-9.751471
439,1715789538.7598376,2.0047472,-2.8184648,-0.094206095,5.4709854,0.38881573,-9.730701
440,1715789538.7621632,1.7763096,-3.4754667,-0.11519502,4.920596,0.79504114,-9.884028
441,1715789538.7781746,1.0006652,-4.4431844,-0.35485923,4.254142,1.4963144,-10.165027
442,1715789538.7951555,1.0006652,-4.4431844,-0.35485923,4.254142,1.4963144,-9.563325
443,1715789538.7972286,-1.5742302,-5.9839783,-0.624573,2.6665032,1.5928311,-9.563325
444,1715789538.811622,-1.5742302,-5.9839783,-0.624573,2.059303,0.59895337,-8.014171
445,1715789538.812626,-3.8137608,-6.99343,-0.21916342,2.059303,0.59895337,-8.014171
446,1715789538.8149807,-3.8137608,-6.99343,-0.21916342,1.7844137,-0.06383542,-6.214561
447,1715789538.8221385,-4.1449466,-6.80331,-0.033923957,1.4142294,0.0729984,-2.1089358
448,1715789538.8481486,-2.6935072,-6.1211386,-0.20403185,0.060552016,2.6984973,3.018667
449,1715789538.8551736,-2.6935072,-5.766768,-0.18109047,-0.38476875,3.2226195,4.315534
450,1715789538.8574698,-2.1238472,-5.766768,-0.18109047,-0.38476875,3.2226195,4.315534
451,1715789538.8638604,-1.4572964,-5.191738,-0.102992155,-0.38476875,3.2226195,4.315534
452,1715789538.8658593,-1.4572964,-5.191738,-0.102992155,-0.6498843,3.1823025,5.6178985
453,1715789538.8730628,-1.4572964,-5.191738,-0.102992155,-0.6498843,2.898861,6.4254622
454,1715789538.8753705,-1.0570425,-4.6916647,-0.060770255,-0.58513254,2.898861,6.4254622
455,1715789538.8834293,-0.60968554,-4.094182,-0.11202228,-0.41225767,2.6148088,7.3270993
456,1715789538.8973079,-0.23966423,-3.8083913,-0.19768637,-0.41225767,2.6148088,7.3270993
457,1715789538.898307,-0.23966423,-3.8083913,-0.19768637,-0.36216673,2.4339926,8.159709
458,1715789538.9056177,0.26480213,-3.4905984,-0.319715,-0.47639853,2.237294,8.827995
459,1715789538.912768,1.0724181,-3.07985,-0.48152497,-0.80504405,1.9141463,9.406485
460,1715789538.9232187,2.0323257,-2.6075993,-0.6497109,-1.789148,1.3063353,9.855471
461,1715789538.9317248,2.0323257,-2.6075993,-0.6497109,-2.5942683,1.0228939,9.975811
462,1715789538.9337277,2.5697703,-2.2331848,-0.6070009,-2.5942683,1.0228939,9.975811
463,1715789538.9430451,2.5697703,-2.2331848,-0.6070009,-3.6791651,0.8940013,10.20794
464,1715789538.9445474,2.8255422,-2.0054793,-0.41611758,-3.6791651,0.8940013,10.20794
465,1715789538.954599,2.9534283,-1.8973621,-0.20134723,-4.3425646,0.97524637,10.4425125
466,1715789538.971605,3.1472096,-1.7985189,0.24845028,-5.228319,1.1994339,10.92815
467,1715789538.9804041,3.4049342,-2.0220752,0.547695,-5.877058,1.2000448,11.735104
468,1715789538.988749,3.4049342,-2.2195175,0.60041136,-6.2154775,1.1646146,12.17798
469,1715789538.991766,3.635843,-2.2195175,0.60041136,-6.2154775,1.1646146,12.17798
470,1715789538.9943159,3.635843,-2.2195175,0.60041136,-6.7597585,1.0235047,12.499295
471,1715789538.9961293,4.1571493,-2.4533246,0.67777747,-6.7597585,1.0235047,12.499295
472,1715789539.0183344,4.5342484,-2.5143692,0.80590755,-6.7597585,1.0235047,12.499295
473,1715789539.020842,4.722904,-2.345451,1.1161042,-7.596033,0.54275376,10.752221
474,1715789539.0317137,4.722904,-2.345451,1.1161042,-7.6113048,0.54825157,9.887847
475,1715789539.032694,4.453191,-2.3186047,1.2203168,-7.6113048,0.54825157,9.887847
476,1715789539.0502453,4.1500716,-2.3127475,1.3057368,-7.6113048,0.54825157,9.887847
477,1715789539.0529673,3.9238305,-2.3825479,1.3455181,-7.2264595,0.4541783,9.236053
478,1715789539.0759273,3.7276084,-2.529989,1.4685229,-6.7951884,-0.020463986,9.0925
479,1715789539.0772402,3.5167427,-2.5573235,1.5759387,-5.677305,-1.0925325,9.1108265
480,1715789539.0841892,3.4823005,-2.5582995,1.5256628,-4.948543,-1.8347337,9.259266
481,1715789539.1127973,3.65732,-2.3530169,1.2347162,-4.2350526,-2.680782,9.380829
482,1715789539.1139846,3.7285845,-2.0064557,0.99553996,-3.221627,-3.7259727,9.278203
483,1715789539.1239853,3.8308444,-1.7980309,0.714142,-3.2821026,-3.6050212,9.141369
484,1715789539.13132,3.8308444,-1.7980309,0.714142,-3.2821026,-3.6050212,8.967273
485,1715789539.1337113,3.9362774,-1.5393301,0.49250755,-3.6755,-3.1719177,8.967273
486,1715789539.1504395,3.9362774,-1.5393301,0.49250755,-4.440914,-2.0723603,8.607473
487,1715789539.1515155,4.0395136,-1.2020124,0.39073566,-5.0945396,-1.1908818,8.256837
488,1715789539.1544583,4.0485435,-0.93428165,0.44442827,-5.0945396,-1.1908818,8.256837
489,1715789539.1625974,3.9194372,-0.645806,0.56941605,-6.225862,-0.053450707,7.4413314
490,1715789539.1709495,3.4476442,-0.32728076,0.84007555,-7.5025706,0.83658,6.227542
491,1715789539.1871076,3.0390923,-0.15229172,1.3562566,-8.297306,0.9795224,5.289864
492,1715789539.202239,3.0390923,-0.15229172,1.3562566,-8.297306,0.9795224,4.9490013
493,1715789539.2043474,3.272167,-0.2806658,2.5356023,-7.5929785,-0.9947941,4.7034335
494,1715789539.2174284,3.5704355,-0.028066583,3.3158534,-5.798867,-3.5298848,4.6166906
495,1715789539.2284968,3.7129648,0.42392743,4.066604,-3.6229653,-5.744882,4.8659234
496,1715789539.230968,4.380461,1.2925577,4.507646,-0.25343272,-8.432078,5.4596844
497,1715789539.24579,5.2515326,1.7206646,4.318959,2.0495293,-9.776593,5.7822213
498,1715789539.2669911,7.99019,2.5412154,2.2453878,4.357378,-8.688031,3.6997817
499,1715789539.2786698,7.9950714,1.9674065,0.8447127,1.053208,-0.8695667,-3.5114825
500,1715789539.286344,7.9950714,1.3079332,0.6404367,1.053208,-0.8695667,-3.5114825
501,1715789539.2983894,6.56999,-0.18084641,0.9113403,-0.95776033,2.5445592,-5.5700984
502,1715789539.311291,5.467279,-0.812009,1.0443515,-2.6926177,5.4938164,-4.5908813
503,1715789539.318259,4.2550163,-1.1451471,1.3582091,-2.6926177,5.4938164,-4.5908813
504,1715789539.3257215,3.6714752,-0.74074423,1.8383002,-2.699948,6.1498857,-3.4827719
505,1715789539.3357365,3.7073517,-0.500836,2.059904,-2.699948,6.1498857,-3.4827719
506,1715789539.3375766,3.7073517,-0.500836,2.059904,-2.1855996,6.2604523,-3.0844877
507,1715789539.3445103,3.7073517,-0.500836,2.059904,-2.1855996,6.2280765,-3.1388547
508,1715789539.3466358,3.9143121,-0.28920785,2.1465445,-1.231428,6.2280765,-3.1388547
509,1715789539.3658328,4.0185246,-0.20305562,1.9703352,0.5101488,5.509088,-4.4406085
510,1715789539.3841674,3.484253,-0.5469628,1.5705694,1.4673747,4.4113636,-5.8278837
511,1715789539.3963706,3.484253,-0.5469628,1.5705694,1.4673747,4.21833,-6.0691752
512,1715789539.3975878,3.1806457,-0.7002308,1.3765135,1.4924202,4.21833,-6.0691752
513,1715789539.4140792,3.1806457,-0.7002308,1.3765135,1.4924202,4.21833,-6.125375
514,1715789539.4164762,2.854097,-0.8393434,1.217388,1.2242503,4.67037,-6.10094
515,1715789539.429986,2.7130318,-0.8566714,1.280843,1.2022592,5.4357843,-5.943337
516,1715789539.432491,2.7511048,-0.92134666,1.3691918,1.5015831,6.4632597,-5.689828
517,1715789539.4608417,2.7511048,-1.0023736,1.4280095,1.8400024,6.960504,-5.566433
518,1715789539.4624097,3.4566743,-1.4101933,1.4358193,3.224834,7.542659,-5.648289
519,1715789539.4726639,3.4566743,-1.7160275,1.3801743,4.4477863,7.297702,-5.819331
520,1715789539.4756646,3.5689712,-1.7160275,1.3801743,4.4477863,7.297702,-5.819331
521,1715789539.4823716,3.5689712,-1.7160275,1.3801743,4.4477863,7.297702,-5.836436
522,1715789539.4843152,3.619491,-1.880522,1.3316069,5.251074,6.911024,-5.836436
523,1715789539.496489,3.619491,-1.880522,1.3316069,6.246784,6.2641177,-5.7967296
524,1715789539.4989126,3.708816,-2.0901673,1.2020124,6.246784,6.2641177,-5.7967296
525,1715789539.4999285,3.8147368,-2.2200058,1.0826685,6.246784,6.2641177,-5.7967296
526,1715789539.5074897,3.8147368,-2.2200058,1.0826685,6.8454323,5.773593,-5.8058925
527,1715789539.5149658,3.9694693,-2.3415463,0.9381865,7.5326557,5.0924783,-5.9268436
528,1715789539.5284758,4.074414,-2.4281864,0.7429407,8.500877,3.6209037,-6.6391125
529,1715789539.5393834,4.074414,-2.463575,0.5728329,8.500877,3.6209037,-6.6391125
530,1715789539.5420985,4.050008,-2.463575,0.5728329,8.500877,3.6209037,-6.6391125
531,1715789539.5441113,4.050008,-2.463575,0.5728329,8.576625,3.1273246,-7.036175
532,1715789539.547068,3.9279792,-2.463575,0.41099238,8.576625,3.1273246,-7.036175
533,1715789539.5654237,3.8296242,-2.464795,0.16180995,8.127639,2.6936102,-7.651316
534,1715789539.587386,3.8296242,-2.3078663,0.011714748,7.5974073,2.6795604,-7.959803
535,1715789539.5909662,3.309996,-2.3078663,0.011714748,6.9077406,2.6960537,-8.053877
536,1715789539.611943,2.89217,-2.2148807,0.0605262,5.835061,2.9177978,-7.7099595
537,1715789539.6137967,2.7884455,-2.1672895,0.11592719,5.4972525,3.0155363,-7.5462475
538,1715789539.6221452,2.5844138,-2.046481,0.34387666,5.2571826,3.0534098,-7.3556576
539,1715789539.6353576,2.3891375,-2.0130453,0.52719414,5.2571826,3.0534098,-7.3556576
540,1715789539.6374037,2.3891375,-2.0130453,0.52719414,5.442275,2.8658743,-7.3361096
541,1715789539.647541,2.3891375,-2.0130453,0.52719414,5.9920535,2.477364,-7.314119
542,1715789539.6501462,2.1221387,-2.0115807,0.77491224,5.9920535,2.477364,-7.314119
543,1715789539.651614,1.8956536,-2.1433718,0.92793614,6.7538023,2.119397,-7.3409967
544,1715789539.673599,1.2779143,-3.4300723,0.5044969,9.891817,1.9385809,-8.179715
545,1715789539.6819701,1.2779143,-3.4300723,0.5044969,9.891817,1.3961325,-8.312883
546,1715789539.683866,0.68705165,-3.9587305,-0.16742326,10.566213,1.3961325,-8.312883
547,1715789539.7125864,-0.735619,-4.5669518,-1.5766708,10.566213,1.3961325,-8.312883
548,1715789539.7144325,-1.8995585,-5.173434,-2.77429,5.1307335,-3.1401527,-5.8914137
549,1715789539.7393243,-1.8839389,-5.6608467,-2.4630868,1.1955396,-2.5195136,-4.805295
550,1715789539.7429788,-2.6266356,-6.1243114,-1.7511717,-1.4873805,-0.6411031,-3.6348772
551,1715789539.7559395,-2.6266356,-6.270014,-0.9879743,-2.5453992,0.17012598,-2.2677608
552,1715789539.7592432,-3.6785529,-6.270014,-0.9879743,-2.5453992,0.17012598,-2.2677608
553,1715789539.7612655,-4.1149273,-6.159456,-0.34558508,-2.5453992,0.17012598,-2.2677608
554,1715789539.7687647,-4.1149273,-6.159456,-0.34558508,-2.935131,0.26419923,0.6301839
555,1715789539.7712123,-3.662689,-5.9617696,0.10665302,-2.4623215,-0.08093964,2.949639
556,1715789539.7735,-2.1362941,-5.4763093,0.16937573,-1.431181,-0.2312125,5.4450235
557,1715789539.7835326,-0.9994449,-4.7709837,-0.13496366,-0.9553169,-0.18295415,6.5519114
558,1715789539.8112469,-0.6680152,-4.3965693,-0.31727442,-1.0664943,-0.16462818,7.168885
559,1715789539.8136697,0.31873876,-3.5719,-0.26553428,-2.1141284,-0.08399397,8.974603
560,1715789539.8252048,0.31873876,-3.5719,-0.13838045,-2.1141284,-0.08399397,8.974603
561,1715789539.8275197,0.89620876,-3.3812609,-0.13838045,-2.6694047,-0.074830994,10.032621
562,1715789539.8289106,0.89620876,-3.3812609,-0.13838045,-3.2020793,-0.029626964,11.068649
563,1715789539.8369203,1.8231685,-3.1047437,0.05515694,-3.2020793,-0.029626964,11.068649
564,1715789539.8481147,2.5280366,-2.9114506,0.23039004,-3.4378731,-0.01740966,11.564061
565,1715789539.850634,3.123048,-2.7320683,0.37413976,-3.4378731,-0.01740966,11.564061
566,1715789539.8561444,3.123048,-2.7320683,0.37413976,-3.4378731,-0.01740966,11.951349
567,1715789539.8582842,3.123048,-2.7320683,0.37413976,-3.615635,-0.013744468,11.951349
568,1715789539.866696,4.03146,-2.4245257,0.61041766,-3.6981018,-0.058948494,12.053364
569,1715789539.8848958,4.6016083,-2.2700374,0.95795524,-3.3835063,-0.6844745,12.066192
570,1715789539.8972812,4.9440203,-2.2090232,0.95209783,-3.112282,-0.68875057,12.24151
571,1715789539.9046137,5.0279756,-2.16192,0.8842499,-3.0334804,-0.5335908,12.216465
572,1715789539.9140024,5.0279756,-2.1765635,0.83128947,-3.099454,-0.3924809,12.193863
573,1715789539.92098,5.1314564,-2.114085,0.81737816,-3.099454,-0.3924809,12.193863
574,1715789539.923319,5.1314564,-2.114085,0.81737816,-3.1880293,-0.3753767,12.075356
575,1715789539.950468,5.122426,-1.9154222,0.8600882,-3.3242524,-0.4718934,11.593993
576,1715789539.958052,4.9567113,-1.7941259,0.92037046,-3.275994,-0.57696223,11.394852
577,1715789539.9640698,4.860797,-1.7172477,0.9294005,-3.1923053,-0.7021896,11.21098
578,1715789539.9781835,4.691421,-1.5215139,1.1932263,-2.7598128,-0.77671516,10.725954
579,1715789539.9791925,4.5061817,-1.2991472,1.4065324,-2.7598128,-0.77671516,10.725954
580,1715789539.9894495,4.5061817,-1.2991472,1.4065324,-2.133676,-0.82924956,10.39853
581,1715789539.9966428,4.3426323,-0.9750392,1.4572964,-1.258306,-0.8622363,10.004522
582,1715789540.0205138,4.208889,-0.50913393,0.9794322,0.0061850105,-0.47128254,8.752248
583,1715789540.0235837,4.0561094,-0.1552204,0.46370876,-0.05429065,-0.0125227375,7.5415134
584,1715789540.032333,4.0561094,-0.1552204,0.46370876,-0.05429065,0.42852196,6.422408
585,1715789540.034252,3.442275,0.16058967,-0.023673553,-0.97669715,0.42852196,6.422408
586,1715789540.061326,3.442275,0.16058967,-0.023673553,-2.079309,0.8536842,5.9489875
587,1715789540.0623884,2.1436157,0.29042813,0.2072046,-4.9503756,2.2024746,5.693035
588,1715789540.0759616,2.1436157,0.29042813,0.2072046,-5.269247,2.3753495,5.7932167
589,1715789540.078418,2.0518503,0.39854547,0.80541945,-5.269247,2.3753495,5.7932167
590,1715789540.0851665,2.3881612,0.47835222,1.3730966,-4.8092656,2.082745,5.846973
591,1715789540.1099863,2.7894218,0.4927516,1.4721838,-4.8092656,2.082745,5.846973
592,1715789540.1112545,3.1967533,0.6658187,1.3179396,-2.8697686,-0.79137594,4.755357
593,1715789540.124523,3.1508706,0.9113403,1.5466518,-2.4763713,-1.3655893,4.8921905
594,1715789540.131178,3.1508706,1.538842,1.9918122,-1.2919036,-2.0613647,5.6264505
595,1715789540.1321971,3.3502653,1.538842,1.9918122,-1.2919036,-2.0613647,5.6264505
596,1715789540.1485946,3.8691616,1.850259,2.174367,0.019624045,-2.4223862,6.172564
597,1715789540.157695,4.9454846,1.9366553,2.1387346,1.4973071,-2.903748,6.2684703
598,1715789540.1644845,4.9454846,1.9366553,2.1387346,3.175354,-3.6172385,5.299027
599,1715789540.1669867,6.4401217,1.773137,1.6098627,3.175354,-3.6172385,5.299027
600,1715789540.179323,7.24188,1.772893,0.9157333,2.9908726,-2.997821,1.3516157
601,1715789540.1922588,7.368546,1.7311591,-0.0012202862,2.9908726,-2.997821,1.3516157
602,1715789540.1936593,7.368546,1.7311591,-0.0012202862,1.5999324,-2.1804836,-0.039935317
603,1715789540.195932,7.2025867,1.5510448,-0.5696601,1.5999324,-2.1804836,-0.039935317
604,1715789540.213674,7.2025867,1.5510448,-0.5696601,1.5999324,-2.1804836,-2.620841
605,1715789540.2164385,6.5050716,0.66313404,-0.513527,-2.4226153,0.88178396,-2.620841
606,1715789540.2293828,5.382835,0.054912884,0.36144876,-4.738405,4.1438046,-3.8908298
607,1715789540.2312956,4.473203,-0.08078295,0.90328634,-5.2332063,6.214027,-4.4815364
608,1715789540.245994,3.78545,-0.10836142,1.2864562,-4.926552,6.9226303,-4.75948
609,1715789540.2672436,2.7962554,-0.24112856,1.6960149,-4.26865,6.995323,-4.9036446
610,1715789540.2685618,2.7962554,-0.24112856,1.6960149,-1.9278144,5.0961432,-4.758869
611,1715789540.27543,2.6295643,-0.31873876,1.7157835,-1.9278144,5.0961432,-4.758869
612,1715789540.283734,2.6527498,-0.37194324,1.7240813,-1.2894602,4.4248023,-4.769865
613,1715789540.2960842,2.748176,-0.38805103,1.735064,-0.37743837,3.6435058,-4.9671745
614,1715789540.3111632,2.7498844,-0.39464056,1.6808833,0.8974374,3.1713068,-5.499849
615,1715789540.3183293,2.7110794,-0.4497975,1.5622715,0.8974374,3.1713068,-5.499849
616,1715789540.320487,2.7110794,-0.4497975,1.5622715,1.4783703,3.497509,-5.747249
617,1715789540.321746,2.654458,-0.56551117,1.4072646,1.4783703,3.497509,-5.747249
618,1715789540.3315642,2.654458,-0.56551117,1.4072646,1.991497,4.3117924,-5.9451694
619,1715789540.3338583,2.6817925,-0.75514364,1.2481393,1.991497,4.3117924,-5.9451694
620,1715789540.3798904,2.8877769,-1.0792516,1.0995084,2.540665,5.358815,-6.2499914
621,1715789540.3818915,3.2121289,-1.6843,0.9335495,3.5430949,6.151108,-6.673932
622,1715789540.3944051,3.2121289,-1.6843,0.9335495,3.5430949,6.0863557,-6.735629
623,1715789540.396407,3.3456283,-1.8207281,0.9198823,3.9694786,6.0863557,-6.735629
624,1715789540.4104087,3.554816,-2.071131,0.86423725,5.0085607,5.459608,-6.9793644
625,1715789540.451607,3.568239,-2.2131722,0.735619,5.0085607,5.459608,-6.9793644
626,1715789540.452907,3.610949,-2.3588743,0.6223765,6.304206,3.8719695,-7.2664714
627,1715789540.4541445,3.6465814,-2.348136,0.6140785,6.461809,3.7388008,-7.3422184
628,1715789540.4562724,3.6914878,-2.3410583,0.60138756,6.584593,3.6215146,-7.530976
629,1715789540.4684958,3.6914878,-2.3410583,0.60138756,6.584593,3.6215146,-7.774711
630,1715789540.470499,3.6480458,-2.349112,0.573565,6.687218,3.4663548,-7.774711
631,1715789540.484509,3.6480458,-2.349112,0.573565,6.720205,3.2171218,-8.023944
632,1715789540.485509,3.328056,-2.3427665,0.4510178,6.6994357,2.9965994,-8.177882
633,1715789540.5024621,3.328056,-2.3427665,0.4510178,6.6407924,2.908024,-8.276232
634,1715789540.5049455,3.2052953,-2.336421,0.36242503,6.6407924,2.908024,-8.276232
635,1715789540.5124524,3.07204,-2.2924907,0.28505886,6.6407924,2.908024,-8.276232
636,1715789540.51463,2.8267624,-2.2078028,0.26406994,6.312758,2.5164595,-8.376413
637,1715789540.5280697,2.4743135,-2.1118884,0.25162303,6.108729,2.1114557,-8.199873
638,1715789540.5345736,2.4743135,-2.1118884,0.25162303,6.108729,1.8084666,-8.017836
639,1715789540.5355875,2.2946873,-2.0201228,0.20305562,5.9694514,1.8084666,-8.017836
640,1715789540.5483892,2.2946873,-2.0201228,0.20305562,5.80574,1.4285084,-7.8596215
641,1715789540.550994,2.123115,-1.9090768,0.19134088,5.80574,1.4285084,-7.8596215
642,1715789540.5524795,1.978633,-1.8492827,0.26211748,5.7556486,1.1206323,-7.752109
643,1715789540.5633657,1.978633,-1.8492827,0.26211748,5.938908,0.6881397,-7.7447786
644,1715789540.5643456,1.7238374,-1.8814982,0.46932206,5.938908,0.6881397,-7.7447786
645,1715789540.571268,1.5654442,-2.021343,0.709749,6.407442,0.5879578,-7.9402556
646,1715789540.5915465,1.5654442,-2.021343,0.709749,7.3946,0.6044512,-8.335485
647,1715789540.5931659,0.95185375,-3.0693555,0.52719414,8.508819,0.40469822,-8.758204
648,1715789540.6035542,0.49006698,-3.7459128,-0.09689073,8.910768,0.16462818,-8.984224
649,1715789540.6182132,-0.40830776,-4.425856,-0.94502014,8.6371,-0.23915374,-9.160153
650,1715789540.6264627,-0.40830776,-4.425856,-2.1160374,6.68844,-1.3613132,-8.299444
651,1715789540.6293445,-2.9812508,-5.7355285,-2.1160374,4.1338015,-2.3948972,-6.1003294
652,1715789540.6452181,-2.9012,-5.9573765,-1.8448898,4.1338015,-2.3948972,-6.1003294
653,1715789540.65208,-2.9012,-5.9573765,-1.8448898,4.1338015,-2.2476788,-4.465043
654,1715789540.6530614,-2.9012,-5.9573765,-1.8448898,2.3885596,-2.2476788,-4.465043
655,1715789540.6604218,-2.9607499,-5.931506,-1.4565641,2.3885596,-2.2476788,-4.465043
656,1715789540.6716633,-2.9607499,-5.931506,-1.4565641,0.94630665,-1.217149,-2.8706849
657,1715789540.672891,-3.4020057,-5.234692,-0.41001618,-0.8789587,1.4504995,2.4762187
658,1715789540.6818483,-2.842138,-4.9633007,-0.29994637,-0.8789587,1.4504995,2.4762187
659,1715789540.682829,-2.842138,-4.9633007,-0.29994637,-0.85941106,1.5176947,4.269719
660,1715789540.7056189,-1.1654038,-4.2867436,-0.41611758,-1.0530553,1.2293663,6.705239
661,1715789540.7198796,-0.4829893,-3.837434,-0.39756927,-1.0530553,1.2293663,6.705239
662,1715789540.7211244,0.12666571,-3.4286077,-0.31654227,-1.9510273,0.74006325,8.368014
663,1715789540.7333848,0.12666571,-3.4286077,-0.15961345,-2.4336107,0.47739118,9.153586
664,1715789540.7355723,0.71340984,-3.0654504,-0.15961345,-2.4336107,0.47739118,9.153586
665,1715789540.744116,1.1458793,-2.8692286,-0.04344219,-2.7194958,0.310625,9.682596
666,1715789540.773113,2.47773,-2.3625352,0.4685899,-3.524616,-0.27397305,11.306887
667,1715789540.7824755,2.9927216,-2.288586,0.714142,-3.5362225,-0.50243664,11.534128
668,1715789540.7997909,3.4788835,-2.2644243,0.9081675,-3.3224196,-0.7602218,11.526798
669,1715789540.8118057,3.6478016,-2.2949314,0.9757714,-3.0664673,-0.86406887,11.5029745
670,1715789540.813215,3.8030221,-2.3388615,0.9333054,-2.8318949,-0.9166033,11.489535
671,1715789540.830882,3.8030221,-2.3388615,0.9333054,-2.8318949,-0.9166033,11.458992
672,1715789540.8323534,4.178382,-2.2060945,0.7863829,-2.7775278,-1.1963795,11.52863
673,1715789540.845755,4.178382,-2.2060945,0.7863829,-2.7775278,-1.3038919,11.612319
674,1715789540.847494,4.3157864,-2.1733909,0.761001,-2.9565115,-1.3038919,11.612319
675,1715789540.8633144,4.3157864,-2.1733909,0.761001,-2.9565115,-1.3038919,11.752208
676,1715789540.8662791,4.7109456,-2.1624084,0.7685668,-3.66145,-1.1023064,11.752208
677,1715789540.877834,4.7109456,-2.1624084,0.7685668,-3.66145,-1.1023064,11.651415
678,1715789540.8792973,4.806128,-2.0779645,0.84129584,-4.0707297,-0.7266242,11.651415
679,1715789540.8921938,4.806128,-2.0779645,0.84129584,-4.654717,-0.21777347,11.411345
680,1715789540.8932505,4.7624416,-1.9976696,0.8073719,-4.654717,-0.21777347,11.411345
681,1715789540.8955176,4.7624416,-1.9976696,0.8073719,-5.048114,0.14202617,11.124238
682,1715789540.9129074,4.57769,-1.8917488,0.80712783,-5.5575757,0.6215554,10.71618
683,1715789540.9152691,4.229878,-1.7682558,0.9040186,-6.2160883,1.3319917,10.165179
684,1715789540.930336,3.8166893,-1.0348332,1.4123898,-6.018168,1.7712038,9.141369
685,1715789540.9671686,3.8166893,-0.09469421,1.5654442,-2.713387,-1.3686435,6.2831306
686,1715789540.968448,4.025114,0.107385196,1.1749221,-2.713387,-1.3686435,6.2831306
687,1715789540.9919658,4.025114,0.107385196,1.1749221,-2.713387,-1.3686435,4.773072
688,1715789540.993001,2.6022298,0.26529023,0.23380683,-3.4830773,-2.4810293,4.3088145
689,1715789540.994008,2.6022298,0.26529023,0.23380683,-4.4024296,-1.9905044,4.49635
690,1715789540.996272,2.3122594,0.091033354,0.32166746,-4.4024296,-1.9905044,4.49635
691,1715789541.0190482,2.2492926,-0.07492557,0.7558758,-4.4024296,-1.9905044,4.49635
692,1715789541.020466,2.392066,-0.08419975,1.4267892,-5.101259,-0.25320363,5.5079427
693,1715789541.022062,2.999067,0.09396204,2.0730834,-4.145866,-0.24648413,5.8097105
694,1715789541.0496266,3.5736082,0.41343296,2.3134797,-2.6248116,-1.2391402,5.4957256
695,1715789541.0506592,3.9011333,0.9308648,2.4428298,-1.0414488,-2.8793132,5.085835
696,1715789541.0516624,3.9011333,0.9308648,2.4428298,0.41302127,-4.5048256,4.8744755
697,1715789541.0628521,4.1508036,1.3804183,2.4538126,0.41302127,-4.5048256,4.8744755
698,1715789541.0633569,4.63602,1.9032195,2.0694225,1.8662697,-5.9153137,4.7968955
699,1715789541.0784552,5.658162,2.322754,1.2981709,2.711707,-5.6984563,3.867159
700,1715789541.084769,6.4430504,2.5590317,0.5054731,2.711707,-5.6984563,3.867159
701,1715789541.1105652,6.4430504,2.5590317,0.5054731,1.0953578,-4.189008,2.4004714
702,1715789541.1119666,6.437193,1.0282438,-0.2613853,-4.3053017,0.0125227375,-1.0674107
703,1715789541.1290357,6.437193,0.64897877,0.29213652,-5.4622808,1.0858129,-1.6257415
704,1715789541.1308236,5.852188,0.64897877,0.29213652,-5.4622808,1.0858129,-1.6257415
705,1715789541.1419845,3.9575102,-0.05686534,2.5399952,-6.472652,3.0088167,-2.0460167
706,1715789541.1622708,3.9575102,-0.05686534,2.5399952,-5.877669,4.2329907,-2.027691
707,1715789541.1644301,3.560429,-0.01513155,3.017127,-4.6394453,4.648379,-2.031356
708,1715789541.1705763,3.560429,-0.01513155,3.017127,-2.8099039,4.3789873,-2.212172
709,1715789541.172204,3.3004775,-0.06662763,2.9597738,-0.5368742,3.1273246,-2.644054
710,1715789541.1816013,3.3004775,-0.06662763,2.9597738,1.0501537,1.8280143,-3.0508902
711,1715789541.183748,3.258988,-0.14399378,2.556591,1.0501537,1.8280143,-3.0508902
712,1715789541.1978185,3.2787566,-0.2443013,2.0769882,1.0501537,1.8280143,-3.0508902
713,1715789541.1993747,3.2787566,-0.2443013,2.0769882,2.1790328,0.8689558,-3.4894915
714,1715789541.2187243,3.2787566,-0.2443013,2.0769882,2.1790328,2.1029036,-4.61104
715,1715789541.2200563,3.2467852,-0.3990336,1.067781,2.8949668,2.1029036,-4.61104
716,1715789541.2332098,3.2467852,-0.3990336,0.9049948,2.8515954,3.1108313,-4.8211775
717,1715789541.2342944,3.1242685,-0.35144243,0.9049948,2.8515954,3.1108313,-4.8211775
718,1715789541.2547867,3.0717962,-0.37633628,0.7500184,2.7862327,4.0955462,-5.0832386
719,1715789541.2567708,3.1147501,-0.47054234,0.6243289,2.753246,4.7381763,-5.3562956
720,1715789541.2645583,3.2401955,-0.6848551,0.4737151,2.7660742,5.309335,-5.780847
721,1715789541.2735498,3.2401955,-0.6848551,0.4737151,2.7660742,5.309335,-6.3623905
722,1715789541.2758863,3.4578946,-1.0143324,0.3773125,2.848541,5.534134,-6.3623905
723,1715789541.2897022,3.4578946,-1.0143324,0.3773125,2.848541,5.534134,-7.0160165
724,1715789541.2917051,3.6780648,-1.4184912,0.32069123,3.0330224,5.560401,-7.0160165
725,1715789541.2941656,3.7483532,-1.7072414,0.29213652,3.0330224,5.560401,-7.0160165
726,1715789541.2953553,3.7483532,-1.7072414,0.29213652,3.2236123,5.569564,-7.4424005
727,1715789541.3042002,3.7673898,-1.9547155,0.27358818,3.4325283,5.620877,-7.7417245
728,1715789541.327765,3.7590916,-2.1790042,0.25943285,3.4325283,5.620877,-7.7417245
729,1715789541.32915,3.7957003,-2.3510644,0.23771177,4.5864525,5.828571,-8.024555
730,1715789541.330452,3.8977163,-2.403781,0.20598431,4.5864525,5.828571,-8.024555
731,1715789541.345404,4.0268226,-2.4543006,0.15448824,5.014058,5.6752434,-8.0605955
732,1715789541.3622458,4.0268226,-2.4543006,0.15448824,5.014058,5.39058,-8.166886
733,1715789541.3632605,4.224997,-2.5002139,0.049543623,5.7122774,4.774217,-8.467432
734,1715789541.3834672,4.024382,-2.4872484,-0.026602242,5.984723,3.3417382,-9.232236
735,1715789541.3944511,4.024382,-2.4872484,-0.026602242,5.984723,3.3417382,-9.363571
736,1715789541.3962467,3.883805,-2.5075357,-0.017084008,5.9468493,2.7382035,-9.363571
737,1715789541.4068165,3.793992,-2.4933498,0.00707766,5.9468493,2.7382035,-9.363571
738,1715789541.407898,3.793992,-2.4933498,0.00707766,5.837505,2.350915,-9.395947
739,1715789541.4281542,3.793992,-2.4933498,0.11592719,5.736101,2.0754147,-9.417328
740,1715789541.429358,3.6348667,-2.3913338,0.2203837,5.627367,1.8298469,-9.44665
741,1715789541.4313023,3.4334886,-2.400608,0.26406994,5.5968237,1.8573358,-9.469252
742,1715789541.451921,3.03714,-2.242459,0.47981656,5.7605357,1.7040086,-9.317757
743,1715789541.4711878,2.8726454,-2.378887,0.5208487,6.0598598,1.4584408,-9.366626
744,1715789541.4734428,2.6110158,-2.513637,0.5059612,6.4764695,1.235475,-9.65923
745,1715789541.4824462,2.3337364,-2.9256058,0.41099238,6.4764695,1.235475,-9.65923
746,1715789541.4842334,2.3337364,-2.9256058,0.41099238,6.920569,1.3784174,-10.017198
747,1715789541.5050688,2.3337364,-2.9256058,0.107385196,7.3689437,1.7712038,-10.554759
748,1715789541.507788,0.7336666,-4.4178023,-0.50718147,7.4788995,1.9098701,-10.863856
749,1715789541.5147736,-0.60041136,-4.985754,-1.1505164,7.0897784,1.426065,-10.688539
750,1715789541.5358727,-0.60041136,-4.985754,-1.1505164,2.5736516,-2.6050348,-6.515718
751,1715789541.537951,-3.512594,-6.224131,-1.9217678,2.5736516,-2.6050348,-6.515718
752,1715789541.5504172,-3.3268359,-6.569747,-1.4831663,1.6799558,-2.4755313,-5.3428564
753,1715789541.5524895,-3.3268359,-6.569747,-1.4831663,0.7942012,-1.0283916,-3.1492393
754,1715789541.5544949,-3.7542107,-6.9092298,-0.8171342,0.7942012,-1.0283916,-3.1492393
755,1715789541.5619159,-3.7542107,-6.9092298,-0.8171342,0.69463015,-0.102319926,-0.8963684
756,1715789541.5630615,-4.7866035,-6.841382,-0.41221267,0.69463015,-0.102319926,-0.8963684
757,1715789541.572073,-4.7866035,-6.841382,-0.41221267,0.69463015,0.19822577,2.737669
758,1715789541.5734594,-4.9977126,-6.5172744,-0.18621568,1.2047026,0.19822577,2.737669
759,1715789541.5813189,-4.079539,-6.1928916,-0.35095432,1.2047026,0.19822577,2.737669
760,1715789541.5835004,-4.079539,-6.1928916,-0.35095432,1.7282141,0.15851954,5.8591905
761,1715789541.5959384,-4.079539,-5.7179565,-0.65459204,1.6689602,0.31123585,7.9526258
762,1715789541.5970814,-2.755986,-5.7179565,-0.65459204,1.6689602,0.31123585,7.9526258
763,1715789541.6089644,-2.755986,-5.7179565,-0.8493497,1.1766028,0.5751296,9.269651
764,1715789541.6102066,-1.6364648,-5.1629395,-0.8493497,1.1766028,0.5751296,9.269651
765,1715789541.617505,-1.6364648,-5.1629395,-0.8493497,1.1766028,0.5751296,10.730841
766,1715789541.6190615,-0.1444819,-4.2398844,-0.9035305,-0.1868484,1.1542299,10.730841
767,1715789541.6203852,0.6997427,-3.6353545,-0.7846745,-1.0554988,1.3509285,11.322769
768,1715789541.6387787,1.7667913,-3.1250005,-0.5908931,-2.1507802,1.3154984,11.834064
769,1715789541.6610508,2.5805087,-2.7057102,-0.36047253,-3.008435,0.86467975,11.776642
770,1715789541.6620855,3.8486607,-1.8400086,0.5540405,-2.9302442,0.27580565,11.311163
771,1715789541.695352,3.8486607,-1.8400086,0.5540405,-2.9302442,0.27580565,9.821874
772,1715789541.697377,4.0609903,-1.3455181,0.7595367,-1.7922022,-0.35460728,9.821874
773,1715789541.704377,3.875263,-1.3633343,0.6226205,-1.7922022,-0.35460728,9.821874
774,1715789541.7066,3.875263,-1.3633343,0.6226205,-1.7543286,-0.28069258,9.513997
775,1715789541.7339456,3.875263,-1.3633343,0.6226205,-1.7543286,0.13225232,9.211618
776,1715789541.7356954,3.4391022,-1.4040918,0.72829735,-2.3755786,0.14813483,9.124876
777,1715789541.7447016,3.357587,-1.3796861,0.8227475,-2.3755786,0.14813483,9.124876
778,1715789541.7459097,3.357587,-1.3796861,0.8227475,-2.2717314,0.13041973,8.948336
779,1715789541.7633414,3.1513586,-1.3733406,0.8530106,-2.0915263,0.07971791,8.829828
780,1715789541.7646477,3.1513586,-1.3733406,0.8530106,-1.8587866,-0.0021380284,8.738198
781,1715789541.7840185,3.1513586,-1.3733406,0.8530106,-1.5930603,-0.12797627,8.649012
782,1715789541.7866397,3.0649626,-1.3445419,0.6750929,-1.5008196,-0.129198,8.487133
783,1715789541.7954633,3.0649626,-1.3445419,0.6750929,-1.5008196,-0.06811147,8.311814
784,1715789541.7970994,3.0471463,-1.2925577,0.6267695,-1.4953218,-0.06811147,8.311814
785,1715789541.8111625,3.0471463,-1.2925577,0.6267695,-1.530752,0.20677789,7.650247
786,1715789541.8124318,2.9919891,-1.1800473,0.61822754,-1.530752,0.20677789,7.650247
787,1715789541.8263092,2.9919891,-1.1800473,0.61822754,-1.4727198,0.46089783,7.1902657
788,1715789541.8275642,2.7930827,-0.9794322,0.6697236,-1.4727198,0.46089783,7.1902657
789,1715789541.839934,2.7174249,-0.9225669,0.70242727,-1.4727198,0.46089783,7.1902657
790,1715789541.8431726,2.7174249,-0.9225669,0.70242727,-1.3700944,0.5867361,6.8927746
791,1715789541.8447556,2.5748954,-0.82030696,0.7163385,-1.2008847,0.7797695,6.6667542
792,1715789541.8561137,2.5748954,-0.82030696,0.7163385,-1.07749,0.9825767,6.5934505
793,1715789541.8581212,2.451128,-0.70437974,0.6838789,-1.07749,0.9825767,6.5934505
794,1715789541.8717012,2.4140313,-0.40196228,0.34216827,-1.1923326,1.5940529,6.000911
795,1715789541.8801281,2.4140313,-0.40196228,0.34216827,-1.1923326,1.5940529,5.7364063
796,1715789541.8821344,2.2312322,-0.19500175,0.19256116,-1.6474272,1.7705929,5.7364063
797,1715789541.8926413,2.2312322,-0.08664032,0.183287,-2.043268,1.7938058,5.6967
798,1715789541.893917,2.2514892,-0.08664032,0.183287,-2.043268,1.7938058,5.6967
799,1715789541.933994,2.9055932,-0.03294773,0.3270367,-2.3016639,1.7938058,5.664935
800,1715789541.93569,3.3844335,-0.022697324,0.03807293,-3.7933967,1.3478742,4.554993
801,1715789541.9486985,3.2187185,0.111046046,0.21672285,-4.556978,1.349096,4.388838
802,1715789541.9547555,3.2187185,0.111046046,0.21672285,-5.0187926,1.348485,4.536667
803,1715789541.956999,3.0566645,0.25992095,0.5293907,-5.0187926,1.348485,4.536667
804,1715789541.9636667,3.0566645,0.25992095,0.5293907,-4.8269806,0.8762862,5.339344
805,1715789541.9654634,3.255083,0.54989153,1.3491789,-4.8269806,0.8762862,5.339344
806,1715789541.971722,3.9733741,0.6162751,1.7216408,-4.110436,-0.03023783,5.745569
807,1715789541.982095,3.9733741,0.6162751,1.7216408,-4.110436,-1.3154984,5.7437367
808,1715789541.9839172,4.827605,0.9538062,2.06747,-2.8795424,-1.3154984,5.7437367
809,1715789541.9966593,5.4948573,1.7316471,2.4845638,-1.1532372,-3.111442,5.39982
810,1715789542.011183,5.8553605,2.2783353,2.6847212,-1.1532372,-3.111442,5.39982
811,1715789542.0125866,6.4901533,2.7789273,2.4481993,2.0031035,-4.639216,4.281936
812,1715789542.0287457,7.00246,2.7281635,1.5002809,3.0287461,-4.009414,2.5324183
813,1715789542.0429747,7.00246,2.7281635,1.5002809,3.0287461,-3.1651983,1.2722032
814,1715789542.0453055,7.009537,2.3425224,0.33411437,1.339093,-2.1041253,0.024816401
815,1715789542.0643008,6.3590946,1.7292067,0.37975308,-1.5240325,0.85062987,-2.6654341
816,1715789542.0784287,4.3157864,0.3321619,1.332339,-2.7958539,3.5408804,-4.34287
817,1715789542.0808566,4.3157864,0.3321619,1.332339,-2.7695866,5.3484306,-5.1980815
818,1715789542.1020272,4.3157864,0.3321619,1.332339,-2.1208477,5.767484,-5.438762
819,1715789542.103461,3.624372,0.041245673,1.6257263,-2.1208477,5.767484,-5.438762
820,1715789542.1045778,2.845799,-0.102992155,1.854408,-0.7176903,5.1224103,-5.2738285
821,1715789542.1189113,2.3212895,-0.06833603,1.7850957,1.0354929,3.1914654,-4.7686434
822,1715789542.1418474,2.4208648,0.0319715,1.3896925,3.5168276,-0.5348125,-4.629366
823,1715789542.166107,2.615165,0.053204484,1.0772992,4.327446,-1.9178114,-5.6971583
824,1715789542.1692863,3.1779609,-0.1889003,0.43613032,4.241925,-1.8365663,-6.184629
825,1715789542.170628,3.3204904,-0.50010383,0.07175283,3.5174384,-0.81214535,-7.3238926
826,1715789542.1809006,3.3204904,-0.50010383,0.07175283,2.5418866,0.3857614,-7.96469
827,1715789542.182052,3.2743638,-0.8881548,-0.15033926,2.5418866,0.3857614,-7.96469
828,1715789542.201595,3.2743638,-1.1737018,-0.15180361,1.8809304,1.1914927,-8.215145
829,1715789542.2031937,3.2594762,-1.1737018,-0.15180361,1.8809304,1.1914927,-8.215145
830,1715789542.2124128,3.378576,-1.692842,0.11153416,0.98234767,2.436436,-8.514469
831,1715789542.2305353,3.5626256,-2.0215874,0.37413976,1.3177127,2.591596,-8.756983
832,1715789542.244625,3.682702,-2.1172576,0.42417148,1.7954093,2.3796256,-8.959789
833,1715789542.2600057,3.682702,-2.1172576,0.42417148,2.1802545,2.1536055,-9.163208
834,1715789542.2622087,4.0329237,-2.2627158,0.32215557,2.53028,1.93797,-9.445428
835,1715789542.277491,4.2245092,-2.340082,0.18279888,2.7465265,1.842675,-9.858373
836,1715789542.2857828,4.333359,-2.4023166,0.03465613,2.7147615,1.9856175,-10.295141
837,1715789542.3082783,4.333359,-2.4023166,0.03465613,2.7147615,2.2623394,-10.617678
838,1715789542.3095956,4.3704553,-2.4460027,-0.07980672,2.337247,2.4743097,-10.75329
839,1715789542.3179188,4.450994,-2.5290127,-0.059794027,1.9847776,2.9880474,-10.9670925
840,1715789542.3259592,4.450994,-2.5290127,-0.059794027,1.9847776,2.9880474,-11.125917
841,1715789542.3269684,4.3970575,-2.6388385,0.019036464,1.7960202,3.424816,-11.125917
842,1715789542.350267,3.953361,-2.632005,0.6250611,1.9261345,3.6728272,-11.188837
843,1715789542.3626764,3.953361,-2.632005,0.6250611,1.9261345,3.6728272,-11.11309
844,1715789542.3640718,3.6775768,-2.6102839,0.79638934,2.957275,3.1279354,-11.11309
845,1715789542.400299,2.7647722,-2.85849,0.9655209,5.808794,1.3338243,-10.656774
846,1715789542.402374,2.508756,-3.1916282,1.0099394,5.808794,1.3338243,-10.656774
847,1715789542.4043818,2.508756,-3.1916282,1.0099394,6.5406103,1.0937542,-10.805824
848,1715789542.412535,2.089435,-4.3541036,0.78125775,8.340831,0.8268061,-11.590176
849,1715789542.4356923,-0.09493827,-6.628565,-2.0215874,8.948642,0.23793201,-12.17172
850,1715789542.4380512,-0.09493827,-6.628565,-2.0215874,7.7702823,-1.2623531,-12.886432
851,1715789542.4472773,-1.9764366,-6.9841557,-2.790154,4.7135124,-3.0094275,-12.048325
852,1715789542.4482925,-2.9702682,-7.3031383,-2.3969471,4.7135124,-3.0094275,-12.048325
853,1715789542.4511824,-2.9702682,-7.3031383,-2.3969471,1.6323082,-4.0289617,-10.020863
854,1715789542.4626577,-3.2555711,-7.4195538,-1.3562566,1.6323082,-4.0289617,-10.020863
855,1715789542.4646747,-3.2555711,-7.4195538,-1.3562566,-0.67431885,-3.5818083,-7.6671987
856,1715789542.47841,-3.7954564,-7.3451166,0.3482697,-1.7696003,-0.7620544,-4.0282745
857,1715789542.4804268,-4.411457,-7.0524917,0.97601545,-0.9058368,0.96669424,-0.69844806
858,1715789542.4970527,-4.411457,-7.0524917,0.97601545,-0.9058368,1.2660183,2.4591143
859,1715789542.4980733,-4.3111496,-6.7110553,1.1336764,0.58833957,1.2660183,2.4591143
860,1715789542.5040824,-4.3111496,-6.7110553,1.1336764,2.1649828,1.0436633,5.3827157
861,1715789542.506265,-3.2028546,-6.291247,0.6782656,2.1649828,1.0436633,5.3827157
862,1715789542.5133417,-3.2028546,-6.291247,-0.065407336,2.8265498,1.0980303,7.479205
863,1715789542.5143807,-1.6796631,-5.645715,-0.065407336,2.8265498,1.0980303,7.479205
864,1715789542.5247693,-0.65410393,-5.019434,-0.6048044,2.4911847,1.3662001,8.510345
865,1715789542.5461276,-0.65410393,-5.019434,-0.6048044,2.4911847,1.6814066,9.338678
866,1715789542.5484066,0.667039,-3.742008,-0.9987128,0.53091824,1.88849,9.909227
867,1715789542.5555553,0.667039,-3.742008,-0.9987128,-0.5930738,2.1273382,10.568351
868,1715789542.557756,1.1553975,-3.2340941,-0.9545384,-0.5930738,2.1273382,10.568351
869,1715789542.5594347,1.7504396,-2.7630637,-0.820551,-0.5930738,2.1273382,10.568351
870,1715789542.5659049,1.7504396,-2.7630637,-0.820551,-1.8062521,2.2947154,11.326434
871,1715789542.574018,2.310795,-2.3971913,-0.6231087,-1.8062521,2.2947154,11.326434
872,1715789542.5755155,2.310795,-2.3971913,-0.6231087,-2.7402651,2.264783,11.939743
873,1715789542.582532,3.0002873,-2.0262241,-0.07272906,-2.7402651,2.264783,11.939743
874,1715789542.583871,3.0002873,-2.0262241,-0.07272906,-3.3810627,1.9220876,12.516399
875,1715789542.6034145,3.0002873,-2.0262241,-0.07272906,-3.3810627,1.9220876,12.4321
876,1715789542.6049364,3.961171,-1.6523286,0.47347105,-3.3034828,1.1004738,12.4321
877,1715789542.6170907,4.190341,-1.5303,0.5962624,-3.1379385,0.9239337,12.120559
878,1715789542.6251335,4.190341,-1.5303,0.5962624,-3.1379385,0.8127562,11.669129
879,1715789542.626611,4.619424,-1.4917084,0.57869023,-3.0139327,0.8127562,11.669129
880,1715789542.6331797,4.6372404,-1.3345355,0.58381546,-3.0212631,0.63071835,11.040549
881,1715789542.6532047,4.6372404,-1.3357558,0.7426967,-3.0432544,0.33200526,10.573849
882,1715789542.6552203,4.1571493,-1.3357558,0.7426967,-3.0432544,0.33200526,10.573849
883,1715789542.6646228,4.1571493,-1.3357558,0.7426967,-2.9381855,0.07422013,10.453507
884,1715789542.66577,3.9025972,-1.3894484,0.84739727,-2.9381855,0.07422013,10.453507
885,1715789542.6779585,3.9025972,-1.3894484,0.84739727,-2.9381855,-0.27275133,10.541472
886,1715789542.6791673,3.520892,-1.4929286,0.88571423,-2.6449702,-0.27275133,10.541472
887,1715789542.6858158,3.2023666,-1.6249942,0.8085922,-2.478204,-0.47678033,10.958082
888,1715789542.6966865,3.2101765,-1.7931497,0.74001205,-2.4592671,-0.537256,11.244578
889,1715789542.7148829,3.2101765,-1.7931497,0.74001205,-2.4592671,-0.5867361,11.493812
890,1715789542.715868,3.7178462,-2.0669818,0.5301228,-2.7262151,-0.5867361,11.493812
891,1715789542.7242417,3.7178462,-2.0669818,0.5301228,-3.1416037,-0.48166725,11.119351
892,1715789542.7257762,3.892347,-2.007676,0.42612398,-3.1416037,-0.48166725,11.119351
893,1715789542.7468956,3.798629,-1.8993145,0.3773125,-3.6412914,-0.29046643,10.804755
894,1715789542.7618985,3.593377,-1.8470863,0.33411437,-4.961371,0.46517387,10.331945
895,1715789542.771901,3.593377,-1.8470863,0.47176263,-5.8031435,1.1163563,10.017961
896,1715789542.7739005,3.5316303,-1.8402526,0.47176263,-5.8031435,1.1163563,10.017961
897,1715789542.7869108,3.4884017,-1.4097052,1.0726621,-6.7817497,2.6929994,8.804783
898,1715789542.802435,3.4884017,-1.1388016,1.259854,-6.7011156,2.948952,8.123057
899,1715789542.804437,3.4356854,-1.1388016,1.259854,-6.7011156,2.948952,8.123057
900,1715789542.818438,3.3097517,-0.5213368,1.421664,-6.208758,2.473088,6.43096
901,1715789542.8204393,3.3458724,-0.20940112,1.3679714,-5.7536635,1.4321736,4.890969
902,1715789542.8514817,3.3458724,-0.38878322,1.3943295,-5.564906,-0.33567044,3.0119474
903,1715789542.8545365,2.6808164,-0.38878322,1.3943295,-5.564906,-0.33567044,3.0119474
904,1715789542.8660715,2.4357524,-0.3790209,1.6772224,-5.366375,-0.9575313,3.285615
905,1715789542.874858,2.5526862,0.08395569,2.2907825,-4.4793983,-2.7968466,4.5079565
906,1715789542.9085627,2.5526862,0.08395569,2.2907825,-3.556381,-4.266588,5.2978053
907,1715789542.9098318,5.9371195,1.1885893,3.1694188,-0.8313112,-7.3172493,5.872629
908,1715789542.9122813,7.9609036,2.2949314,2.8553174,0.9505827,-7.827933,3.9642863
909,1715789542.9228597,7.9609036,2.2949314,2.8553174,0.93042415,-6.5695505,1.9465984
910,1715789542.9250932,7.9948273,2.6566546,2.2959075,0.93042415,-6.5695505,1.9465984
911,1715789542.936731,7.9950714,2.2092671,1.7367723,0.93042415,-6.5695505,1.9465984
912,1715789542.9377124,7.9950714,2.2092671,1.7367723,-0.070173144,-3.5262196,-0.83589274
913,1715789542.9455817,7.9950714,2.2092671,1.7367723,-1.548467,0.8042041,-3.794924
914,1715789542.9465675,7.976523,1.0895021,1.7089499,-1.548467,0.8042041,-3.794924
915,1715789542.9662423,7.976523,1.0895021,1.7089499,-2.356031,3.678936,-5.1345515
916,1715789542.9686177,4.336043,-0.8000502,2.149229,-2.704835,6.5280113,-5.179145
917,1715789542.9704142,3.4915743,-0.8766842,2.3486238,-2.3096051,7.859087,-4.3172135
918,1715789542.9836762,3.4915743,-0.8766842,2.3486238,-2.3096051,8.285471,-3.532863
919,1715789542.9846847,3.654879,-0.61163795,2.5421917,-1.0909289,8.285471,-3.532863
920,1715789542.998073,3.7930155,-0.5918693,2.5475612,-0.76594865,8.2378235,-3.5127041
921,1715789543.010678,5.0089397,-0.43661842,2.5861223,1.9750037,6.9586716,-4.8724904
922,1715789543.0119212,5.140242,-0.49543622,2.481635,3.2236123,6.1468315,-6.003813
923,1715789543.0400724,5.140242,-0.49543622,2.481635,4.95175,4.7271805,-7.879169
924,1715789543.0411034,3.8381662,-0.9452642,1.2681519,5.2284718,4.2397103,-8.452161
925,1715789543.0683908,3.8381662,-0.9452642,1.2681519,4.890053,4.030794,-8.659855
926,1715789543.0693724,1.9730198,-0.7258568,0.090789296,1.5357916,5.347209,-6.928052
927,1715789543.0846758,1.62475,-0.5042528,0.26358184,1.5357916,5.347209,-6.928052
928,1715789543.0860727,1.7526362,-0.36242503,0.67680126,0.790536,5.754656,-5.989763
929,1715789543.0951915,1.7526362,-0.36242503,0.67680126,0.6659195,5.8927116,-5.5969763
930,1715789543.0966535,2.1079836,-0.44223174,0.93159705,0.6659195,5.8927116,-5.5969763
931,1715789543.1208656,2.446979,-0.54867125,1.2374008,0.6659195,5.8927116,-5.5969763
932,1715789543.1227176,3.1174347,-0.8124971,1.6418341,2.4533112,6.1199536,-5.219462
933,1715789543.131983,3.1174347,-0.9901707,1.6306075,3.7489564,6.0380974,-5.3025393
934,1715789543.134509,3.4591148,-0.9901707,1.6306075,3.7489564,6.0380974,-5.3025393
935,1715789543.1508768,3.8701377,-1.2398413,1.4248368,4.6463175,5.836512,-5.409441
936,1715789543.1629126,3.8701377,-1.2398413,1.4248368,4.6463175,5.257412,-5.816277
937,1715789543.1644182,4.0995517,-1.3935974,1.1822438,6.4502025,5.257412,-5.816277
938,1715789543.1741524,4.0995517,-1.3935974,1.1822438,6.959664,5.096754,-6.1308727
939,1715789543.1752272,4.27991,-1.4785293,0.9464845,6.959664,5.096754,-6.1308727
940,1715789543.1897538,4.27991,-1.4785293,0.9464845,6.959664,5.096754,-6.578637
941,1715789543.1910188,4.3331146,-1.564712,0.7080406,7.2650967,4.915327,-6.578637
942,1715789543.1936486,4.3750925,-1.6181606,0.5511118,7.350007,4.6605964,-7.0050206
943,1715789543.2041917,4.37436,-1.6450069,0.509378,7.3781066,4.2971315,-7.4430113
944,1715789543.2146409,4.37436,-1.6450069,0.509378,7.414148,3.7675114,-7.9152102
945,1715789543.2168186,4.2372,-1.6603825,0.5044969,7.414148,3.7675114,-7.9152102
946,1715789543.2182436,4.003881,-1.6630672,0.45199403,7.414148,3.7675114,-7.9152102
947,1715789543.2243674,4.003881,-1.6630672,0.45199403,7.4349174,3.2006285,-8.390463
948,1715789543.2326207,3.921878,-1.6613587,0.37023485,7.4349174,3.2006285,-8.390463
949,1715789543.2336245,3.921878,-1.6613587,0.37023485,7.324351,2.8799243,-8.642751
950,1715789543.2430456,3.8271837,-1.6813713,0.33142975,7.324351,2.8799243,-8.642751
951,1715789543.2440512,3.8271837,-1.6813713,0.33142975,7.1441455,2.6355782,-8.8498335
952,1715789543.2651443,3.8271837,-1.6813713,0.33142975,7.1441455,2.6355782,-8.966509
953,1715789543.2671683,3.528946,-1.7152953,0.3961049,6.7812915,2.1352794,-9.0728
954,1715789543.2687407,3.336354,-1.7155395,0.4288086,6.75197,1.8567249,-9.121669
955,1715789543.2829351,3.336354,-1.7155395,0.4288086,6.7006574,1.3539828,-9.105176
956,1715789543.2841425,3.0244489,-1.7423856,0.3904916,6.7006574,1.3539828,-9.105176
957,1715789543.3018436,2.794791,-1.7558088,0.39293218,6.6780553,1.0143417,-9.049587
958,1715789543.3031557,2.5541506,-1.7628864,0.41611758,6.6780553,1.0143417,-9.049587
959,1715789543.3044887,2.5541506,-1.7628864,0.41611758,6.675612,0.72112644,-8.998885
960,1715789543.3145497,2.1416633,-2.046237,0.5315872,6.7874002,0.3857614,-8.975061
961,1715789543.3287895,1.8873558,-2.353261,0.65166336,7.0720634,0.35033122,-9.0892935
962,1715789543.329811,1.374805,-2.9968703,0.60065544,7.5705295,0.18906279,-9.262779
963,1715789543.3533316,1.374805,-2.9968703,0.20842488,7.748291,-0.1957823,-9.061193
964,1715789543.3545027,0.6077331,-3.5255291,0.20842488,7.748291,-0.1957823,-9.061193
965,1715789543.3555255,-0.09225364,-3.8540301,-0.44662476,7.236997,-0.8390234,-8.35259
966,1715789543.3688426,-0.09225364,-3.8540301,-0.44662476,5.5528417,-1.7547104,-7.236539
967,1715789543.3705094,-0.19963883,-4.6960583,-1.7299387,1.8754326,-1.997224,-6.1724114
968,1715789543.386156,-0.19963883,-4.6960583,-1.7299387,1.8754326,-0.70402217,-5.3611827
969,1715789543.3886588,-0.36315718,-5.079228,-1.3079332,-1.3908638,-0.70402217,-5.3611827
970,1715789543.3957148,-1.0136002,-5.5134363,-0.4424758,-3.3676238,1.1933253,-4.4045677
971,1715789543.4106026,-1.799007,-5.667192,0.21159762,-3.9729912,2.4932466,-3.1865022
972,1715789543.4171557,-2.5099761,-5.615696,0.9694259,-3.334637,2.8829784,-0.9696722
973,1715789543.4254801,-2.5099761,-5.615696,0.9694259,-1.8215238,2.268448,1.6851481
974,1715789543.427711,-2.148253,-5.308398,1.0485004,-1.8215238,2.268448,1.6851481
975,1715789543.4446154,-1.1924943,-4.801491,0.61114985,-1.8215238,2.268448,1.6851481
976,1715789543.4456608,-0.6040722,-4.3926644,0.22990192,-0.38476875,2.0631974,4.2587233
977,1715789543.4733357,-0.05832968,-3.4588711,-0.3585201,-0.8899543,2.0405953,5.1151567
978,1715789543.4755824,-0.19036464,-2.9504995,-0.464685,-1.5875624,1.74738,5.7816105
979,1715789543.4919934,-0.19036464,-2.5980809,-0.4229512,-1.5875624,1.74738,5.7816105
980,1715789543.495298,-0.27212384,-2.5980809,-0.4229512,-2.3175464,1.4914275,6.866507
981,1715789543.4973311,-0.27212384,-2.5980809,-0.4229512,-2.7708085,1.3820826,7.818846
982,1715789543.49867,-0.1769415,-2.4276986,-0.33069757,-2.7708085,1.3820826,7.818846
983,1715789543.5219846,-0.1769415,-2.4276986,-0.33069757,-2.7708085,1.3387111,9.823706
984,1715789543.524474,1.2327636,-2.025736,-0.05296042,-4.1318164,1.2519683,10.920209
985,1715789543.531917,1.2327636,-1.9154222,0.18157859,-4.6247845,0.9447031,11.847503
986,1715789543.5330446,1.9808297,-1.9154222,0.18157859,-4.6247845,0.9447031,11.847503
987,1715789543.5539653,2.551466,-1.8961419,0.39537275,-4.7542877,-0.00030543262,12.479748
988,1715789543.555465,3.1257327,-1.8073049,0.6760691,-4.7542877,-0.00030543262,12.479748
989,1715789543.5619707,3.1257327,-1.8073049,0.6760691,-4.454353,-0.64843345,12.605586
990,1715789543.5634286,3.6207113,-1.6845442,0.9323292,-4.454353,-0.64843345,12.605586
991,1715789543.577015,3.6207113,-1.6845442,1.0277556,-4.454353,-0.64843345,12.605586
992,1715789543.5783322,4.2391524,-1.6057136,1.0277556,-3.8257728,-1.1933253,12.574432
993,1715789543.5857084,4.495687,-1.5542176,0.98309314,-3.5924222,-1.1371256,12.464477
994,1715789543.6029785,4.703624,-1.4153185,0.87277925,-3.5740962,-0.88117313,12.209135
995,1715789543.603985,4.6509075,-1.3291663,0.7775969,-3.7481928,-0.57879484,11.8975935
996,1715789543.61999,4.5996556,-1.2813311,0.7473338,-4.8416414,0.003970624,11.134012
997,1715789543.6508307,4.5996556,-1.2813311,0.7473338,-5.464724,0.2947425,10.7155695
998,1715789543.6525543,3.798385,-1.4421648,0.7900438,-5.92776,0.46395215,10.543916
999,1715789543.6540222,3.798385,-1.4421648,0.7900438,-6.395683,0.6239988,10.479164
1000,1715789543.662525,3.7615325,-1.670877,1.076323,-7.0041046,0.537256,10.449842
