id,timestamp,acc_x,acc_y,acc_z,gyro_x,gyro_y,gyro_z
0,1715789510.9616919,0.5723447,0.10640897,0.8098125,-0.16730072,-0.9428705,-0.07903069
1,1715789510.97884,0.5723447,0.10640897,0.8098125,-0.16730072,-0.9428705,-0.32704198
2,1715789510.9812362,0.5535523,0.08444381,0.6065128,0.08071057,-0.9410379,-0.32704198
3,1715789510.9886382,0.5535523,0.08444381,0.6065128,0.08071057,-1.1847731,-0.31482467
4,1715789510.989645,0.24771811,0.03441207,0.3692586,0.20471622,-1.1847731,-0.31482467
5,1715789510.9918165,0.24771811,0.03441207,0.3692586,0.1857794,-1.7058412,-0.1596649
6,1715789511.0103621,0.24771811,0.03441207,0.3692586,0.18272507,-2.132836,0.010155635
7,1715789511.0117214,0.26675457,0.00073217176,0.32410803,0.18272507,-2.132836,0.010155635
8,1715789511.0312858,0.46078008,0.06028214,0.32337585,0.3262784,-1.7889189,0.18730655
9,1715789511.0336993,0.47444725,0.021232981,0.32117933,0.36170858,-1.0516045,0.27221683
10,1715789511.048176,0.4825012,0.04807928,0.30726805,0.32139146,-0.5519168,0.47441322
11,1715789511.049584,0.5738091,0.06980037,0.2831064,0.32139146,-0.5519168,0.47441322
12,1715789511.051921,0.5738091,0.06980037,0.2831064,0.2242639,0.0009162979,0.629573
13,1715789511.0661407,0.67924184,0.09689073,0.31019676,0.2242639,0.0009162979,0.629573
14,1715789511.067476,0.67924184,0.09689073,0.31019676,0.106977776,0.6722572,0.6540076
15,1715789511.0852714,0.67924184,0.09689073,0.31019676,0.106977776,-0.18173242,0.056581393
16,1715789511.0866737,1.0563103,0.3031191,0.39927766,-1.2332605,-0.18173242,0.056581393
17,1715789511.0940852,1.1895655,0.42124277,0.37316352,-2.060983,-0.4456262,-0.6098726
18,1715789511.1035676,1.1837082,0.37755656,0.42636803,-2.341981,0.30573806,-1.1321623
19,1715789511.1230662,1.1688206,0.35607952,0.50791365,-2.4720953,1.0015136,-1.4388168
20,1715789511.1310208,1.0995084,0.40781966,0.66093755,-2.4720953,1.0015136,-1.4388168
21,1715789511.1322832,1.0995084,0.40781966,0.66093755,-2.6504679,1.2831224,-1.5683202
22,1715789511.134265,1.0309283,0.513771,1.003838,-2.9601767,1.2757921,-1.6355153
23,1715789511.1463265,1.046792,0.49568027,1.1241581,-2.9613984,1.3955216,-1.6489544
24,1715789511.1535137,1.046792,0.49568027,1.1241581,-2.8593838,1.820073,-1.4766904
25,1715789511.1545184,1.1095147,0.44223174,1.1461233,-2.8593838,1.820073,-1.4766904
26,1715789511.1687987,1.046792,0.42905265,1.1805354,-2.7475955,1.7993035,-1.1767555
27,1715789511.1759002,1.0494766,0.50156814,1.1751661,-2.727437,1.0259482,-0.97944605
28,1715789511.184165,1.0494766,0.50156814,1.1612549,-2.8520534,-0.2770274,-1.0777954
29,1715789511.1862588,1.4099492,0.7690549,1.1612549,-2.8520534,-0.2770274,-1.0777954
30,1715789511.1936424,1.5073586,1.1475877,1.5783793,-2.8972576,-1.5421293,-1.8108337
31,1715789511.2087407,2.370589,1.5595868,2.6468923,-2.473928,-1.561677,-2.2744803
32,1715789511.2168198,2.370589,1.5595868,2.6468923,-2.473928,-2.2220223,-3.341051
33,1715789511.2182777,3.310484,1.166136,3.2724113,-1.530752,-2.2220223,-3.341051
34,1715789511.2330601,3.7617762,0.32947728,3.4439833,-1.0988702,-1.8054122,-3.9115992
35,1715789511.234571,3.7617762,0.32947728,3.4439833,-0.41653374,-1.4095715,-5.16876
36,1715789511.2432182,3.5033197,0.3995217,3.6551235,-0.4525748,-1.1065824,-5.9586086
37,1715789511.2510903,3.216766,0.28920785,4.202788,-0.28275424,-0.62888575,-6.13576
38,1715789511.263833,3.0708199,0.05832968,4.6518836,0.37636936,-0.72601336,-6.2206697
39,1715789511.2897167,2.973441,-0.21184167,4.6540804,2.4557548,-1.4034629,-6.8083224
40,1715789511.2929306,2.8565376,-0.43613032,4.2108417,3.2712598,-1.4737124,-7.0911527
41,1715789511.3112304,3.0591052,-0.69412935,4.413409,4.0782127,-1.6325374,-7.466835
42,1715789511.3140657,3.0198119,-1.0404466,3.7490854,4.0782127,-1.6325374,-7.466835
43,1715789511.3150826,3.0198119,-1.0404466,3.7490854,4.7092366,-1.1114693,-7.864508
44,1715789511.3336802,2.5280366,-1.4958574,2.8299353,5.2718434,-0.17562376,-8.680014
45,1715789511.356804,2.0535588,-1.6940625,2.2876096,5.2718434,-0.17562376,-8.680014
46,1715789511.3591685,1.7450703,-1.8441576,2.1218948,5.0525427,-0.19028452,-8.808295
47,1715789511.366002,1.5547056,-1.8607534,2.1167696,5.1313443,-0.41263947,-8.716054
48,1715789511.388668,1.3608937,-1.8980943,1.9461735,5.823455,-1.0894781,-8.429559
49,1715789511.3911796,1.4655943,-1.904928,1.7724047,6.1826434,-1.2250903,-8.389853
50,1715789511.4026983,1.6179165,-1.8680753,1.6352446,6.461198,-1.3949108,-8.492477
51,1715789511.4133933,1.8185316,-1.8321989,1.4885356,6.7495265,-1.7198911,-8.76248
52,1715789511.4363027,1.8185316,-1.8473302,1.1944467,6.9450035,-2.4736989,-9.379454
53,1715789511.4383643,1.9583764,-1.8473302,1.1944467,6.9450035,-2.4736989,-9.379454
54,1715789511.44793,1.901755,-1.828782,0.9989568,6.651177,-2.694832,-9.626244
55,1715789511.450428,1.8043762,-1.8026677,0.8600882,6.651177,-2.694832,-9.626244
56,1715789511.4623673,1.8043762,-1.8026677,0.8600882,6.2333455,-2.7033842,-9.621357
57,1715789511.4636283,1.8043762,-1.8026677,0.8600882,5.518022,-2.5292876,-9.498572
58,1715789511.4665637,1.7941259,-1.7670356,0.80541945,5.518022,-2.5292876,-9.498572
59,1715789511.484961,1.8956536,-1.6991876,0.8915716,4.9890127,-2.405282,-9.35563
60,1715789511.4871435,1.9027313,-1.4829224,0.9611279,4.4709992,-2.1224513,-9.190697
61,1715789511.4940102,1.9027313,-1.4829224,0.9611279,3.818595,-1.6184875,-8.843114
62,1715789511.4958296,1.8612417,-1.3652867,0.9611279,3.818595,-1.6184875,-8.843114
63,1715789511.4978542,1.8612417,-1.3652867,0.9611279,3.3207397,-1.0473285,-8.459491
64,1715789511.499044,1.901755,-1.255217,1.0221423,3.3207397,-1.0473285,-8.459491
65,1715789511.5229938,1.8773494,-1.0411787,1.1724815,3.0733395,-0.301462,-7.8083086
66,1715789511.5316882,1.8773494,-1.059483,1.102437,3.1136565,0.04795292,-7.547469
67,1715789511.5341632,2.0267124,-1.059483,1.102437,3.1136565,0.04795292,-7.547469
68,1715789511.5451133,2.0267124,-1.059483,1.102437,3.1136565,0.22204952,-7.5181475
69,1715789511.547456,2.036963,-1.2169,1.0489886,3.2541556,0.22204952,-7.5181475
70,1715789511.5620763,2.036963,-1.2169,1.0489886,3.583412,0.0076358155,-7.6678095
71,1715789511.5642235,1.8895522,-1.396282,1.0741265,3.583412,0.0076358155,-7.6678095
72,1715789511.56556,1.5983919,-1.7282305,1.217388,4.2523093,-0.38087448,-8.02822
73,1715789511.5797791,1.1758983,-2.1985288,1.3496671,4.921207,-0.61117065,-8.334264
74,1715789511.582232,0.5372005,-2.8360367,1.2117747,4.921207,-0.61117065,-8.334264
75,1715789511.5943599,0.5372005,-2.8360367,1.2117747,6.252893,-0.9306532,-8.808295
76,1715789511.595656,-0.008786061,-3.6309617,0.7265889,7.028081,-1.1371256,-9.118614
77,1715789511.6174397,-0.17669745,-3.8379223,0.5713685,7.028081,-1.1371256,-9.118614
78,1715789511.6196055,-2.0196347,-5.0819125,-0.18084641,5.9101977,-0.61117065,-7.8266344
79,1715789511.6215458,-2.6183376,-5.549069,-0.13691612,5.0720906,-0.32528573,-6.1485877
80,1715789511.654845,-3.0905886,-5.755785,0.3145898,2.9609401,2.091908,1.9496528
81,1715789511.6725092,-2.438193,-5.5673733,0.2306341,2.3714552,2.9868257,4.123722
82,1715789511.6756885,-1.7397012,-5.3291426,0.05735345,1.7825811,3.6948185,5.439526
83,1715789511.6959841,-0.6753369,-4.624061,-0.2779812,1.162553,4.0986004,6.3252807
84,1715789511.6980264,-0.6753369,-4.624061,-0.2779812,0.3739259,3.733914,7.165831
85,1715789511.7051375,-0.6753369,-4.624061,-0.2779812,0.07948884,3.3808336,7.4859247
86,1715789511.7075076,-0.45199403,-4.382414,-0.34949,0.07948884,3.3808336,7.4859247
87,1715789511.7338088,0.028798755,-3.9658082,-0.50840175,-1.1715631,2.627026,8.731479
88,1715789511.7360313,1.0597271,-3.2070038,-0.4829893,-1.9149861,2.627637,9.55187
89,1715789511.7438314,1.0597271,-3.2070038,-0.4829893,-1.9149861,2.807842,10.216492
90,1715789511.746019,1.6896694,-2.8311555,-0.42002252,-2.8832076,2.807842,10.216492
91,1715789511.7679486,1.6896694,-2.5182743,-0.27432033,-3.8850267,2.9159653,10.8670635
92,1715789511.7694416,2.362047,-2.5182743,-0.27432033,-3.8850267,2.9159653,10.8670635
93,1715789511.7711518,2.7999163,-2.3771787,-0.08297946,-4.5184937,2.9159653,11.2458
94,1715789511.7910993,2.7999163,-2.3771787,-0.08297946,-4.5184937,2.9159653,11.491979
95,1715789511.7931035,4.327745,-2.1897426,0.70267135,-5.651038,2.2421808,11.784583
96,1715789511.806902,4.327745,-2.1897426,0.70267135,-5.536806,1.4046847,11.729606
97,1715789511.8091307,4.701671,-2.1172576,0.9972484,-5.536806,1.4046847,11.729606
98,1715789511.8176093,5.0638523,-1.9891275,1.3530838,-5.536806,1.4046847,11.729606
99,1715789511.8190987,5.0638523,-1.9891275,1.3530838,-4.9766426,0.2012801,11.496255
100,1715789511.830681,5.100705,-1.8839389,1.7257898,-4.2674284,-0.58062744,11.165777
101,1715789511.8326182,5.100705,-1.8839389,1.7257898,-3.335248,-1.244027,10.80109
102,1715789511.863044,4.4070635,-1.8214604,1.3464943,-0.7763334,-2.074193,10.7155695
103,1715789511.9002614,4.4915075,-1.8949214,1.0543578,-0.7763334,-2.074193,10.7155695
104,1715789511.9013543,4.5413256,-1.9190831,0.8012705,-0.1764637,-1.6673567,11.004508
105,1715789511.9038167,4.382902,-1.7985189,0.13374338,-1.6345991,-0.6038403,11.117518
106,1715789511.923337,4.2784457,-1.6188927,0.10714114,-2.7237718,-0.13225232,11.060097
107,1715789511.926524,4.2996783,-1.5315202,0.24356914,-2.7237718,-0.13225232,11.060097
108,1715789511.9414058,4.2996783,-1.5315202,0.24356914,-2.9027553,0.029626964,11.008174
109,1715789511.9438157,4.2108417,-0.9926113,0.51645565,-3.0004938,0.28802297,10.823692
110,1715789511.9721923,4.5271707,-0.6653306,0.38609856,-3.0004938,0.28802297,10.823692
111,1715789511.9745164,4.613811,-0.20354374,0.00048811449,-3.593033,0.9239337,9.152976
112,1715789511.976878,4.3987656,0.1986626,-0.26187342,-4.3981533,1.1139128,8.077853
113,1715789511.9949007,4.3987656,0.1986626,-0.47151858,-6.078033,1.1328496,6.670419
114,1715789511.9963524,3.3693018,0.33411437,-0.31507793,-7.632074,1.0974194,5.9135575
115,1715789512.0046484,2.9932096,0.051252022,0.4583395,-8.834257,0.8756753,5.570251
116,1715789512.0174212,2.8592222,-0.03294773,1.4787734,-9.217269,0.35705075,5.6087356
117,1715789512.0387256,2.8592222,0.5623384,3.535047,-6.7286043,-1.3881912,6.2599177
118,1715789512.0413616,4.742673,1.425813,4.1837516,-2.6296985,-4.2171082,6.2489223
119,1715789512.0512788,6.185082,2.2444115,3.8681853,-0.44219008,-5.724113,5.601405
120,1715789512.0737903,6.185082,2.2444115,3.8681853,0.9768499,-6.2818327,4.146324
121,1715789512.0757918,7.4639726,2.7069304,2.9234092,0.9768499,-6.2818327,4.146324
122,1715789512.0784624,7.9865294,2.8091903,2.02476,0.9768499,-6.2818327,4.146324
123,1715789512.0799716,7.9865294,2.8091903,2.02476,0.8803332,-5.1315737,2.3821454
124,1715789512.081262,7.9950714,2.3496,1.4777972,-0.7531205,-1.0790935,-0.5726098
125,1715789512.097137,7.9950714,2.3496,1.4777972,-1.9253709,2.9428434,-2.5444827
126,1715789512.0991886,7.171836,1.5276153,2.008652,-1.8551214,5.3233852,-3.2811863
127,1715789512.1123745,7.171836,1.5276153,2.008652,-0.7512879,6.326426,-3.2714124
128,1715789512.1138444,5.181976,-0.27944556,2.6983883,-0.7512879,6.326426,-3.2714124
129,1715789512.1316621,4.9547586,-0.6899803,2.3151882,1.7214947,5.306892,-2.7674487
130,1715789512.1433628,4.9547586,-0.5064493,1.8009595,3.3567808,4.0802746,-2.8523588
131,1715789512.1453798,5.066293,-0.5064493,1.8009595,3.3567808,4.0802746,-2.8523588
132,1715789512.1625159,5.100705,-0.27090356,1.3225768,3.3567808,4.0802746,-2.8523588
133,1715789512.1637824,4.852499,-0.0605262,0.8654575,4.141132,3.4712417,-3.41802
134,1715789512.1759222,4.4663696,-0.0043930304,0.42148685,4.3476043,3.235448,-5.0685782
135,1715789512.182613,4.4663696,-0.0043930304,-0.15302388,3.4306955,3.4852917,-5.692882
136,1715789512.1846287,3.8657448,-0.061014313,-0.15302388,3.4306955,3.4852917,-5.692882
137,1715789512.1961215,3.8657448,-0.061014313,-0.15302388,3.4306955,3.7058141,-5.83949
138,1715789512.19765,3.3861418,-0.078830495,-0.3778006,2.331749,3.7058141,-5.83949
139,1715789512.210378,3.3861418,-0.078830495,-0.08102701,1.0886382,3.8450913,-5.725869
140,1715789512.2126942,2.944154,-0.11836776,-0.08102701,1.0886382,3.8450913,-5.725869
141,1715789512.2139986,2.944154,-0.11836776,-0.08102701,0.23098342,3.8365393,-5.5554376
142,1715789512.2293086,2.944154,-0.11836776,-0.08102701,-0.36216673,3.8841867,-5.4515905
143,1715789512.2314563,2.9766138,-0.19646609,0.18475133,-0.36216673,3.8841867,-5.4515905
144,1715789512.2336304,2.9766138,-0.19646609,0.18475133,-0.55886537,3.9800925,-5.490075
145,1715789512.2357507,3.037384,-0.28505886,0.33875147,-0.55886537,3.9800925,-5.490075
146,1715789512.2540665,3.1250005,-0.51474726,0.5808867,-0.5564219,4.33134,-5.744806
147,1715789512.2633846,3.1250005,-0.51474726,0.5808867,-0.5564219,5.015509,-6.202955
148,1715789512.2652946,3.2960846,-0.961372,0.6077331,-0.044516806,5.015509,-6.202955
149,1715789512.2799065,3.3566108,-1.4680349,0.5369564,0.663476,5.7149496,-6.5676413
150,1715789512.299792,3.378332,-1.7724047,0.53671235,1.5174656,6.0472603,-6.6708775
151,1715789512.3018076,3.4012735,-1.9515429,0.5411054,2.2443953,6.094297,-6.6250625
152,1715789512.3176563,3.4068866,-2.088947,0.5457425,3.1661909,6.0661974,-6.4454684
153,1715789512.33077,3.4068866,-2.088947,0.5457425,4.956637,5.410128,-6.0820036
154,1715789512.3337483,3.564334,-2.1426396,0.48323336,4.956637,5.410128,-6.0820036
155,1715789512.3463483,3.7832532,-2.1807125,0.3909797,5.685399,4.929988,-6.0648994
156,1715789512.3616843,4.065384,-2.2859013,0.1952458,6.3286405,4.4602327,-6.3544493
157,1715789512.3631918,4.1454344,-2.3515525,0.029530926,6.3286405,4.4602327,-6.3544493
158,1715789512.3655753,4.1454344,-2.3515525,0.029530926,6.7085986,3.96421,-6.885902
159,1715789512.3877869,4.1454344,-2.3515525,0.029530926,6.7085986,2.9208522,-7.9463644
160,1715789512.3911355,3.8611076,-2.395971,-0.15839316,6.970049,2.9208522,-7.9463644
161,1715789512.3933427,3.8611076,-2.395971,-0.15839316,6.8069477,2.1536055,-8.46621
162,1715789512.4007063,3.1767406,-2.3237302,-0.27554062,6.4966283,1.7217237,-8.577388
163,1715789512.4162228,3.0695994,-2.284925,-0.2962855,6.125222,1.3906348,-8.524854
164,1715789512.4287138,2.9846675,-2.2329407,-0.23039004,5.8509436,1.1713341,-8.454604
165,1715789512.4310966,2.6991205,-2.0396473,-0.14692247,5.658521,1.063211,-8.323268
166,1715789512.463228,2.6503093,-1.9671625,-0.22062775,5.051932,1.1255192,-7.969577
167,1715789512.4703798,2.6503093,-1.9671625,-0.22062775,5.051932,1.3600914,-8.053266
168,1715789512.4730065,2.6503093,-1.9671625,-0.22062775,4.2834635,1.5677856,-8.351368
169,1715789512.475254,2.7064424,-2.0970008,-0.3917119,4.2834635,1.5677856,-8.351368
170,1715789512.4825573,2.5868542,-2.481147,-0.5867441,4.2834635,1.5677856,-8.351368
171,1715789512.4849775,2.5868542,-2.481147,-0.5867441,3.6347246,2.223855,-9.203525
172,1715789512.5161128,2.5868542,-2.481147,-0.5867441,3.6347246,2.223855,-11.375762
173,1715789512.5174606,-2.054779,-5.9249167,-0.59528613,4.6780825,2.9458976,-11.375762
174,1715789512.5366418,-4.636508,-7.393684,-0.6091974,6.3597946,-3.2452216,-7.4136896
175,1715789512.5452645,-4.636508,-7.393684,-0.6091974,6.3720117,-4.459011,-3.9610794
176,1715789512.5472746,-4.5405936,-7.2631135,-1.0121359,6.3720117,-4.459011,-3.9610794
177,1715789512.5657995,-4.118344,-6.9905014,-1.4062884,4.463669,-2.3307564,-1.4363732
178,1715789512.581804,-3.9606829,-6.8001366,-1.4136101,2.857704,-0.24709499,0.32414037
179,1715789512.5968058,-1.7443382,-5.302296,-0.1552204,-0.3890448,1.8298469,7.7498183
180,1715789512.6118102,-0.9713784,-4.840296,-0.09225364,-0.31757358,1.9214766,8.909241
181,1715789512.619809,-0.062478654,-4.2811303,-0.18743597,-0.14958562,1.9477439,9.967259
182,1715789512.6278138,0.7612451,-3.9230983,-0.34168017,-0.059788436,1.8530598,10.679528
183,1715789512.6548736,0.7612451,-3.9230983,-0.34168017,-0.14530957,1.6013832,11.129736
184,1715789512.6578648,3.3922434,-2.3642435,-0.57746994,-1.5368606,0.6417139,11.353923
185,1715789512.6674364,3.7417636,-2.0613687,-0.32606047,-1.9968421,0.54702985,11.311773
186,1715789512.6904924,3.7417636,-2.0613687,0.3487578,-2.0701458,-0.0021380284,10.746112
187,1715789512.6929045,4.183019,-1.6633111,0.3487578,-2.0701458,-0.0021380284,10.746112
188,1715789512.6949213,4.354347,-1.6689246,0.46273252,-2.0701458,-0.0021380284,10.746112
189,1715789512.7068677,4.3926644,-1.6381732,0.43027294,-1.970575,-0.2098322,10.61722
190,1715789512.7224853,4.277469,-1.5842366,0.40123013,-1.9815705,-0.34116822,10.465115
191,1715789512.7305257,4.1361604,-1.5795995,0.37584817,-2.0622046,-0.4456262,10.39853
192,1715789512.74616,4.1361604,-1.5795995,0.37584817,-2.0622046,-0.4456262,10.432128
193,1715789512.7492025,3.773491,-1.8082812,0.26870704,-2.4995842,-0.6258314,10.667311
194,1715789512.7554748,3.7061315,-1.9195713,0.22062775,-2.8202884,-0.68508536,10.901883
195,1715789512.7656114,3.7285845,-2.0218313,0.15766099,-3.1764228,-0.81214535,11.042993
196,1715789512.7921047,3.8332853,-2.3010328,0.13374338,-3.8868592,-1.207986,11.128514
197,1715789512.793314,3.9333487,-2.3010328,0.22062775,-4.3297367,-1.3570372,10.962358
198,1715789512.8042269,3.9333487,-2.3010328,0.22062775,-4.3297367,-1.2702943,10.670976
199,1715789512.8062284,3.9882615,-2.2214699,0.3790209,-4.4476333,-1.2702943,10.670976
200,1715789512.8174543,4.0709968,-2.0740595,0.5555048,-4.4476333,-1.2702943,10.670976
201,1715789512.8194563,4.0709968,-2.0740595,0.5555048,-4.364556,-1.1426234,10.411969
202,1715789512.827249,4.0709968,-2.0740595,0.5555048,-4.111047,-0.9550878,9.987417
203,1715789512.8287852,4.0888133,-1.8868676,0.6743607,-4.111047,-0.9550878,9.987417
204,1715789512.834791,4.0260906,-1.5434791,0.84105176,-3.6193001,-0.7791586,9.316077
205,1715789512.8478613,3.8772154,-1.2918255,0.8281168,-2.9546788,-0.70646566,8.549441
206,1715789512.8506317,3.8772154,-1.2918255,0.8281168,-2.7280478,-0.68325275,7.9764495
207,1715789512.852175,3.7449365,-1.1168364,0.5696601,-2.7280478,-0.68325275,7.9764495
208,1715789512.8839867,3.5318744,-0.91158426,0.24771811,-2.7280478,-0.68325275,7.9764495
209,1715789512.886992,3.152335,-0.81981885,0.06345488,-4.323628,-0.090713486,6.250755
210,1715789512.898263,2.956601,-0.9611279,0.47444725,-5.3217816,0.0729984,5.9941916
211,1715789512.9055877,2.956601,-0.9611279,0.47444725,-5.3217816,-0.01863139,6.232429
212,1715789512.906611,2.9707565,-1.0362976,1.0187255,-5.4714437,-0.01863139,6.232429
213,1715789512.9155931,3.294132,-0.8954765,1.5058943,-5.4714437,-0.01863139,6.232429
214,1715789512.9182603,3.294132,-0.8954765,1.5058943,-4.9247193,-0.65209866,6.5702376
215,1715789512.926105,3.8706257,-0.714142,1.6506202,-4.1177664,-1.6258179,6.7144017
216,1715789512.9333384,4.613811,-0.40903994,1.6567216,-3.2833242,-2.8518243,6.577568
217,1715789512.9434764,4.613811,-0.40903994,1.6567216,-3.2833242,-4.6367726,5.984418
218,1715789512.9444885,5.4314027,0.3082443,1.4548558,-2.319379,-4.6367726,5.984418
219,1715789512.9538343,5.4314027,0.3082443,1.4548558,-2.319379,-5.46816,5.7235785
220,1715789512.955894,5.9573765,0.7199994,1.3140347,-2.0444896,-5.46816,5.7235785
221,1715789512.97051,6.5036073,1.2647351,1.5141922,-1.8178586,-5.523749,5.6521072
222,1715789512.9849262,7.2313857,1.6786869,1.5012572,-1.6419294,-5.232366,5.4132586
223,1715789512.9862823,7.955534,1.880278,1.2132391,-1.8325194,-4.5066586,4.655786
224,1715789512.993328,7.955534,1.880278,1.2132391,-2.9833896,-1.9141463,2.1249712
225,1715789512.9954972,7.9950714,1.5161446,1.1422184,-2.9833896,-1.9141463,2.1249712
226,1715789513.003975,7.9950714,0.9704022,1.4829224,-3.8416553,0.35033122,0.4182136
227,1715789513.0454404,6.2822165,0.113974735,2.7720938,-4.0487385,2.6991081,-1.1914163
228,1715789513.0471869,4.200835,-0.31312546,2.8980274,1.2004266,4.182289,-2.857246
229,1715789513.0637445,4.200835,-0.31312546,2.8980274,2.2486713,3.9318342,-3.141298
230,1715789513.0654109,4.0397577,-0.36901456,2.263692,2.2486713,3.9318342,-3.141298
231,1715789513.0719721,4.0397577,-0.36901456,2.263692,3.2242231,3.6092973,-3.545691
232,1715789513.075612,3.836458,-0.28579104,1.1802914,3.6090682,3.3869424,-3.8773909
233,1715789513.0846574,3.836458,-0.28579104,1.1802914,3.691535,3.2091806,-4.234136
234,1715789513.0874221,3.7537227,-0.21037734,0.7478219,3.691535,3.2091806,-4.234136
235,1715789513.0994115,3.5523753,-0.07907455,0.27651685,3.1503084,3.1920764,-4.8938704
236,1715789513.101598,3.3849216,-0.07224095,0.064919226,2.5498278,3.5549302,-5.13333
237,1715789513.1269255,3.3849216,-0.07224095,0.064919226,2.5498278,4.3606615,-5.249394
238,1715789513.128694,3.0708199,-0.18987654,-0.071020655,0.98479116,5.2177057,-5.245729
239,1715789513.1355927,3.06301,-0.35949633,-0.01415532,0.36109772,6.0344324,-5.218851
240,1715789513.1425414,3.2636251,-0.6819264,0.27944556,-0.112322845,7.1113877,-5.086293
241,1715789513.1534204,3.6251044,-0.95868737,0.53475994,-0.112322845,7.1113877,-5.086293
242,1715789513.160193,3.6251044,-0.95868737,0.53475994,0.08132143,7.5927496,-5.110117
243,1715789513.1790893,3.9279792,-1.1983516,0.66923547,1.5040265,7.9592686,-5.5615463
244,1715789513.1804676,4.1879005,-1.4280095,0.73049384,1.5040265,7.9592686,-5.5615463
245,1715789513.1827607,4.5659757,-1.8116981,0.714142,2.5095108,7.9513273,-5.9531107
246,1715789513.1934052,4.5659757,-1.8116981,0.714142,4.4160213,7.586641,-6.8742957
247,1715789513.194688,4.8395634,-2.2776031,0.55892164,4.4160213,7.586641,-6.8742957
248,1715789513.2118385,4.8395634,-2.2776031,0.55892164,5.638973,7.0851207,-7.4998217
249,1715789513.2143278,4.9210787,-2.6561666,0.3912238,5.638973,7.0851207,-7.4998217
250,1715789513.2161686,4.879345,-3.0312827,0.1952458,6.8765864,6.438825,-8.053877
251,1715789513.2274063,4.879345,-3.0312827,0.1952458,6.8765864,5.81391,-8.420396
252,1715789513.2296488,4.8329744,-3.2030988,-0.0014643435,7.6511636,5.81391,-8.420396
253,1715789513.2361894,4.8329744,-3.2030988,-0.0014643435,8.480719,4.540867,-8.928636
254,1715789513.2389786,4.7024035,-3.3466046,-0.21647878,8.480719,4.540867,-8.928636
255,1715789513.2514358,4.7024035,-3.3466046,-0.21647878,8.829523,3.719253,-9.199249
256,1715789513.2534,4.6301627,-3.3841894,-0.30580372,8.829523,3.719253,-9.199249
257,1715789513.255165,4.501056,-3.335866,-0.48054874,9.04638,2.718045,-9.601198
258,1715789513.2664306,4.501056,-3.335866,-0.48054874,9.04638,2.718045,-9.895636
259,1715789513.269348,4.386075,-3.247517,-0.57405317,8.967578,2.064419,-9.895636
260,1715789513.280952,4.2064486,-3.002972,-0.87863666,8.632214,1.4779885,-10.206566
261,1715789513.298322,4.2064486,-3.002972,-0.87863666,8.632214,0.9654725,-10.496727
262,1715789513.301578,4.0312157,-2.8062618,-0.940139,6.896745,0.7272351,-10.752679
263,1715789513.3135128,4.0312157,-2.607111,-0.90279824,5.8045177,0.6844745,-10.779557
264,1715789513.3169346,3.7671456,-2.607111,-0.90279824,5.8045177,0.6844745,-10.779557
265,1715789513.3185132,3.640236,-2.4555209,-0.8217713,4.8741703,0.69913524,-10.619511
266,1715789513.3267977,3.4837646,-2.3437426,-0.74879813,4.15396,0.7516697,-10.458853
267,1715789513.3340087,3.182842,-2.1026142,-0.5332956,4.15396,0.7516697,-10.458853
268,1715789513.3362036,3.182842,-2.1026142,-0.5332956,3.478343,0.66981375,-10.2077875
269,1715789513.3456142,3.067403,-1.9532511,-0.27529657,2.8827496,0.19272798,-9.892581
270,1715789513.353824,3.0686233,-1.9466617,-0.087616555,2.8827496,0.19272798,-9.892581
271,1715789513.3553336,3.0686233,-1.9466617,-0.087616555,2.6005297,-0.1554652,-9.841269
272,1715789513.368265,3.2624047,-2.152646,-0.053204484,2.3537402,-0.2519819,-9.982989
273,1715789513.3761344,3.4488645,-2.4489315,-0.17523311,1.9945514,-0.08093964,-10.345843
274,1715789513.3959465,3.4488645,-2.4489315,-0.17523311,1.4356097,0.81397796,-11.292684
275,1715789513.3989947,2.0970008,-4.6335793,-0.110801995,1.1912636,3.048523,-13.23157
276,1715789513.4054954,2.0970008,-4.6335793,-0.04490653,1.560837,3.8084393,-13.7111
277,1715789513.4067092,0.10421244,-6.046213,-0.04490653,1.560837,3.8084393,-13.7111
278,1715789513.4357474,0.10421244,-6.046213,-0.04490653,1.560837,3.8084393,-12.585886
279,1715789513.4383929,-4.091498,-7.9965363,0.18597162,4.4300714,-4.4932194,-6.835811
280,1715789513.4408798,-3.6168065,-7.5709,-0.20403185,4.4300714,-4.4932194,-6.835811
281,1715789513.4429052,-3.6168065,-7.5709,-0.20403185,3.2950835,-3.189633,-3.0447814
282,1715789513.452113,-3.6168065,-7.230898,-0.36047253,1.6683494,-0.61727935,-0.7363217
283,1715789513.4542866,-3.4788835,-7.230898,-0.36047253,1.6683494,-0.61727935,-0.7363217
284,1715789513.4653316,-3.2453208,-6.807702,0.10860548,0.10086913,1.7235563,1.8903989
285,1715789513.4864008,-3.2453208,-6.807702,0.10860548,0.10086913,1.7235563,5.7406826
286,1715789513.488956,-0.82665247,-5.135849,0.7431848,-0.3047454,2.576935,5.7406826
287,1715789513.4914093,-0.82665247,-5.135849,0.7431848,0.30856332,2.4083362,7.7718096
288,1715789513.5031621,-0.82665247,-5.135849,0.7431848,0.30856332,2.4254405,8.931843
289,1715789513.504519,0.39244407,-4.394129,0.37999713,0.73006034,2.4254405,8.931843
290,1715789513.512065,0.9618601,-3.8830726,0.10860548,0.8974374,2.5378397,9.550649
291,1715789513.5281024,1.4304501,-3.495998,-0.076389916,0.8650615,2.5415049,9.978866
292,1715789513.54502,1.4304501,-3.495998,-0.076389916,0.55535287,2.309376,10.597061
293,1715789513.5480201,2.581973,-2.386941,-0.5140151,-0.18257235,2.0179935,11.28062
294,1715789513.5606668,2.581973,-2.386941,-0.5140151,-0.9461539,2.0552561,11.950128
295,1715789513.5624561,3.6780648,-1.6999198,-0.107385196,-1.2802972,2.1053472,12.215243
296,1715789513.5760822,4.126398,-1.5439671,0.045394648,-1.4330136,2.0210476,12.27694
297,1715789513.5887046,4.5259504,-1.4421648,0.06711575,-1.6022232,1.8249599,12.245175
298,1715789513.597089,4.5259504,-1.4421648,0.06711575,-1.6022232,1.6197093,12.113839
299,1715789513.599227,4.8339505,-1.340881,0.003172744,-1.9876791,1.6197093,12.113839
300,1715789513.6062362,4.9086323,-1.3003676,-0.045638707,-1.9876791,1.6197093,12.113839
301,1715789513.6089609,4.9086323,-1.3003676,-0.045638707,-2.476982,1.4132367,11.973951
302,1715789513.6194844,4.973307,-1.3460063,0.0156196635,-3.0970104,1.0125091,11.77542
303,1715789513.6300564,4.9489017,-1.3359998,0.1696198,-3.4494796,0.75961095,11.588495
304,1715789513.6477225,4.9489017,-1.3809065,0.5123067,-3.743306,0.016187929,11.09736
305,1715789513.6496572,4.640413,-1.3809065,0.5123067,-3.743306,0.016187929,11.09736
306,1715789513.6618934,4.4883347,-1.4197116,0.5313431,-3.7805686,-0.23487769,10.939756
307,1715789513.6806986,4.4883347,-1.4197116,0.5313431,-3.7805686,-0.41263947,10.766882
308,1715789513.6820252,4.164715,-1.5459197,0.59333366,-3.792175,-0.50854534,10.6386
309,1715789513.689468,3.9753265,-1.5569022,0.5555048,-3.859981,-0.5225952,10.523757
310,1715789513.6926072,3.8357258,-1.5183411,0.55892164,-4.029802,-0.46273044,10.377761
311,1715789513.7037716,3.6863627,-1.4197116,0.7239043,-3.9491675,-0.38637227,10.182283
312,1715789513.716965,3.6863627,-1.3216006,0.8259202,-3.733532,-0.4260785,10.062554
313,1715789513.7193434,3.6263247,-1.3216006,0.8259202,-3.733532,-0.4260785,10.062554
314,1715789513.7329502,3.6958807,-1.1995718,0.87326735,-3.3285284,-0.57451874,9.873796
315,1715789513.7357512,3.8542738,-0.86472535,0.8032229,-2.5918248,-0.9575313,9.211618
316,1715789513.7472286,3.9226103,-0.6660627,0.70267135,-1.725007,-1.5720617,7.493866
317,1715789513.7616668,3.8740427,-0.53427184,0.46273252,-1.725007,-1.5720617,7.493866
318,1715789513.7788208,3.0688674,-0.23478307,0.30458343,-2.1037436,-1.0845913,6.1359124
319,1715789513.7946932,2.8265185,-0.294089,0.39708114,-2.4128413,-0.8378017,5.8359776
320,1715789513.796613,2.9102302,-0.39878955,1.1817558,-2.073811,-1.2110404,5.374774
321,1715789513.812413,2.9102302,-0.39878955,1.1817558,-2.073811,-2.944065,5.162804
322,1715789513.8147776,3.306579,-0.37413976,2.1541102,0.0978148,-2.944065,5.162804
323,1715789513.8310688,3.712721,-0.28725538,2.6036942,0.0978148,-2.944065,5.162804
324,1715789513.8330803,4.0214534,0.10006347,2.4913974,8.068384,-6.9073586,4.8017826
325,1715789513.8350823,4.576958,0.8217713,1.3006115,8.068384,-6.9073586,4.8017826
326,1715789513.8480628,4.576958,0.8217713,1.3006115,9.5479,-5.224425,4.6392922
327,1715789513.8499103,5.24958,1.7584935,-0.24454537,9.5479,-5.224425,4.6392922
328,1715789513.8630054,6.666149,4.156661,-2.3461833,8.528976,-0.09743301,3.7590356
329,1715789513.880794,6.666149,4.156661,-2.3461833,8.10748,0.30940324,2.974074
330,1715789513.8828063,7.6226397,5.3345118,-2.6686134,8.10748,0.30940324,2.974074
331,1715789513.9134488,7.6226397,5.3345118,-2.6686134,3.7324631,-3.4345899,-1.3343588
332,1715789513.9152493,6.430115,1.8517234,-3.497676,0.15340354,-3.16642,-3.0710487
333,1715789513.9173267,6.430115,1.8517234,-3.497676,-3.6193001,-1.0461067,-4.4803147
334,1715789513.9247124,6.0044794,1.5266391,-3.0234728,-4.5972953,-0.12308934,-4.802241
335,1715789513.9327352,6.0044794,1.5266391,-3.0234728,-6.38652,2.1682663,-5.1705923
336,1715789513.9460201,6.0044794,1.5266391,-3.0234728,-6.38652,2.1682663,-4.782693
337,1715789513.9493105,3.400541,0.43881494,-0.5389089,-7.3858953,3.3282993,-4.782693
338,1715789513.9505167,3.229701,0.4195344,0.4417436,-6.417063,2.6734517,-4.574999
339,1715789513.9630702,3.229701,0.4195344,0.4417436,-5.2545867,2.0723603,-4.560338
340,1715789513.9782603,3.169175,0.6070009,0.88107723,-4.1128793,1.6624697,-4.672737
341,1715789513.9961948,3.169175,0.6070009,0.44271985,-2.2100341,1.8206838,-5.8144445
342,1715789513.998523,3.2441006,0.68924814,0.44271985,-2.2100341,1.8206838,-5.8144445
343,1715789514.0049143,3.2441006,0.68924814,0.2169669,-1.8685604,1.9355265,-6.355671
344,1715789514.0069947,3.0532477,0.598947,0.2169669,-1.8685604,1.9355265,-6.355671
345,1715789514.0181742,3.0300624,0.4651731,0.12837411,-1.7860936,1.8640553,-6.6898146
346,1715789514.0458045,3.1357388,0.25748038,0.19963883,-1.7060703,1.7675385,-6.9469886
347,1715789514.0482097,3.8108318,-0.46224442,0.48274526,-0.9534843,1.9654589,-7.723398
348,1715789514.0706828,4.0905213,-1.0831566,0.37828872,0.34399348,2.4663684,-8.625035
349,1715789514.0810218,4.0905213,-1.0831566,0.37828872,0.8846092,2.4541512,-8.9658985
350,1715789514.082824,4.162762,-1.3059808,0.3192269,0.8846092,2.4541512,-8.9658985
351,1715789514.0901577,4.3296976,-1.5920464,0.21037734,0.8846092,2.4541512,-8.9658985
352,1715789514.0921655,4.4148736,-1.8524556,0.05027579,2.1442134,1.8023579,-9.832716
353,1715789514.1046424,4.4148736,-1.8524556,0.05027579,2.4441483,1.4492778,-10.10333
354,1715789514.1068263,4.4156055,-2.012313,-0.11861181,2.4441483,1.4492778,-10.10333
355,1715789514.1177175,4.4326897,-2.1209185,-0.3018988,2.5773168,1.0968086,-10.2731495
356,1715789514.1307218,4.458316,-2.217565,-0.49421594,2.5883124,0.9202685,-10.343399
357,1715789514.1518013,4.306268,-2.1809566,-0.53183126,2.1704805,0.0143553335,-10.775281
358,1715789514.1537926,4.0919857,-2.1048107,-0.50791365,1.901089,-0.28680122,-10.78811
359,1715789514.1671052,4.050008,-2.0413558,-0.52597386,1.4832572,-0.46273044,-10.73252
360,1715789514.180641,4.1227374,-1.9764366,-0.5198724,1.0116692,-0.355829,-10.711751
361,1715789514.1886134,4.1227374,-1.9764366,-0.5198724,0.6335436,-0.129198,-10.712973
362,1715789514.190522,4.088081,-1.9242083,-0.47762007,0.6335436,-0.129198,-10.712973
363,1715789514.2096775,3.9789872,-1.8966299,-0.4002539,0.11919508,0.17623462,-10.571863
364,1715789514.2119555,3.8225465,-1.8895522,-0.27505252,-0.04085161,0.30695978,-10.44969
365,1715789514.2289262,3.8225465,-1.8895522,-0.27505252,0.2523637,0.18906279,-10.07523
366,1715789514.2316911,3.4659486,-1.7379928,0.19744232,0.2523637,0.18906279,-10.07523
367,1715789514.232974,3.4659486,-1.7379928,0.19744232,0.5107597,0.06078109,-9.937785
368,1715789514.2452486,3.4659486,-1.7379928,0.19744232,0.5107597,0.19883664,-9.813779
369,1715789514.247612,3.2143254,-1.9603289,0.42270714,0.8143597,0.19883664,-9.813779
370,1715789514.2489002,3.2143254,-1.9603289,0.42270714,0.7618253,0.4370741,-9.984821
371,1715789514.2555017,3.434221,-2.327391,0.30409533,0.7618253,0.4370741,-9.984821
372,1715789514.2668147,3.434221,-2.327391,0.30409533,0.61705023,1.675298,-10.689149
373,1715789514.2867916,3.3012097,-3.3429434,0.41123646,0.61705023,1.675298,-10.689149
374,1715789514.2891562,2.9580655,-4.1637387,0.51669973,1.406899,3.433979,-12.309164
375,1715789514.2905636,1.4001869,-5.5114837,1.0121359,1.406899,3.433979,-12.309164
376,1715789514.304783,-2.413299,-7.107649,1.187125,3.347007,1.280679,-11.281077
377,1715789514.306796,-4.126398,-7.9028172,1.2195846,4.2840743,-1.3582588,-8.399015
378,1715789514.3101282,-4.126398,-7.9028172,1.2195846,4.5113163,-1.1927143,-4.9787807
379,1715789514.3112226,-3.9289556,-7.9962916,0.72097564,4.5113163,-1.1927143,-4.9787807
380,1715789514.3311918,-3.9289556,-7.9962916,0.051007964,0.7606036,3.1035008,1.6094009
381,1715789514.333976,-3.7537227,-7.787379,-0.13593988,0.7606036,3.1035008,1.6094009
382,1715789514.3502634,-3.5484705,-7.667791,-0.004881145,0.7606036,3.1035008,1.6094009
383,1715789514.35226,-3.5484705,-7.667791,-0.004881145,-0.16974418,3.7717874,3.4603226
384,1715789514.3539662,-2.4198887,-6.8160005,0.5208487,-0.5985716,3.9147298,5.792606
385,1715789514.3690307,-1.8592892,-6.2941756,0.5884525,-0.21739167,3.6990945,7.2281394
386,1715789514.3761995,-0.94965726,-5.4216404,0.3482697,-0.21739167,3.6990945,7.2281394
387,1715789514.3781857,-0.94965726,-5.4216404,0.3482697,0.41729733,3.1554244,8.547608
388,1715789514.3854074,-0.268463,-4.87544,0.07370529,0.74716455,2.6337454,9.206732
389,1715789514.396849,0.9125605,-3.9853327,-0.45760733,0.8815549,1.8329011,10.042396
390,1715789514.4044943,0.9125605,-3.9853327,-0.45760733,0.4899903,1.3069462,10.612333
391,1715789514.406671,1.692842,-3.3858976,-0.7431848,0.4899903,1.3069462,10.612333
392,1715789514.4221568,2.4076858,-2.8123634,-0.9603958,-0.26015225,1.0082331,11.087586
393,1715789514.429641,2.8174884,-2.5202267,-0.940139,-1.1074224,0.9275989,11.587885
394,1715789514.446004,4.468322,-1.8229246,-0.4996157,-3.162984,1.3735305,12.504793
395,1715789514.4650404,4.468322,-1.8229246,-0.28871974,-5.1275263,1.244027,12.386896
396,1715789514.466488,5.0648284,-1.8295141,-0.28871974,-5.1275263,1.244027,12.386896
397,1715789514.4818084,5.0648284,-1.8295141,-0.28871974,-5.6266036,1.1194105,12.463255
398,1715789514.484217,5.1622076,-1.9666743,-0.0924977,-5.6266036,1.1194105,12.463255
399,1715789514.4863036,5.1622076,-1.9666743,-0.0924977,-6.09025,0.7528914,12.464477
400,1715789514.4883468,5.326458,-2.0818694,0.12813005,-6.09025,0.7528914,12.464477
401,1715789514.5108645,5.3420777,-1.9251845,0.7788172,-5.7567177,-0.47800204,11.813293
402,1715789514.5412447,5.109979,-1.8221923,0.7888235,-5.7567177,-0.47800204,11.813293
403,1715789514.5433402,4.579887,-1.6337801,1.1292834,-3.3089807,-2.3063216,10.225044
404,1715789514.5689974,4.579887,-1.6337801,1.1292834,-2.360307,-2.5885415,9.968481
405,1715789514.5713902,4.046347,-1.3850554,1.0492326,-1.5496888,-2.5579982,9.859136
406,1715789514.5781465,4.046347,-1.3850554,1.0492326,-0.9015607,-2.440712,9.803547
407,1715789514.5798004,3.9409146,-1.2271503,0.9850456,-0.9015607,-2.440712,9.803547
408,1715789514.602546,3.9409146,-1.2271503,0.9850456,-0.9015607,-1.6612481,7.746764
409,1715789514.6049657,3.9489682,-0.21574661,0.32581642,0.91026556,-1.6612481,7.746764
410,1715789514.6167266,3.7398112,-0.03465613,0.041245673,0.781373,-1.4395039,7.0234995
411,1715789514.6298788,3.6009426,0.036608588,-0.2936009,0.781373,-1.4395039,7.0234995
412,1715789514.632369,3.6009426,0.036608588,-0.2936009,0.19005544,-1.0302242,6.2519765
413,1715789514.6389813,3.6009426,0.036608588,-0.2936009,-0.65354943,-0.52931476,5.6062922
414,1715789514.641231,3.3851657,0.054912884,-0.5247536,-0.65354943,-0.52931476,5.6062922
415,1715789514.6473205,2.6259036,0.12910628,-0.4949481,-2.1397846,0.31673363,5.1457
416,1715789514.6499348,2.6259036,0.12910628,-0.4949481,-3.2314007,0.84696466,5.2825336
417,1715789514.6518943,2.1096919,0.13057062,-0.21184167,-3.2314007,0.84696466,5.2825336
418,1715789514.6760945,2.0362306,0.15253578,0.16620298,-3.9833758,1.144456,5.771226
419,1715789514.6870968,2.0362306,0.15253578,0.16620298,-3.9833758,0.18906279,6.0119066
420,1715789514.6890988,2.3798633,0.22013964,0.439059,-3.8117228,0.18906279,6.0119066
421,1715789514.7021003,3.390291,0.45589894,0.8425161,-3.0090458,-1.5628988,5.8280363
422,1715789514.7186742,3.390291,0.45589894,0.8425161,-2.1367302,-3.3472362,5.707696
423,1715789514.720675,4.2391524,1.5019894,1.1004846,-1.2625821,-4.545754,5.745569
424,1715789514.743025,4.876172,2.263448,0.94453204,-1.2625821,-4.545754,5.745569
425,1715789514.7442877,7.1056967,3.1145062,-0.24600971,-0.63766694,-3.3441818,4.7388635
426,1715789514.7522423,7.5147667,2.9900367,-0.46639338,-2.2802837,-2.1181753,2.4670556
427,1715789514.7694633,7.4698296,2.5831935,-0.2672427,-4.1116576,-0.5702427,1.3247377
428,1715789514.7866392,7.108137,2.012069,0.26065314,-6.4469953,2.807842,-0.6654613
429,1715789514.7894206,6.5533943,1.2935339,1.1256225,-6.4469953,2.807842,-0.6654613
430,1715789514.8017292,5.720885,0.697058,2.2983482,-6.0603175,5.0173416,-1.3942236
431,1715789514.8043618,5.135605,0.3778006,3.0405567,-3.9821541,6.130338,-1.9421697
432,1715789514.8173978,4.9589076,0.234539,3.1428168,-1.2033281,5.837123,-2.6000717
433,1715789514.8306844,4.889107,0.09030118,2.7188892,0.6146068,5.1352386,-3.1272483
434,1715789514.84175,4.8019786,-0.05832968,2.0218313,2.708653,3.7497964,-4.089972
435,1715789514.8433166,4.511307,-0.16107778,1.5029656,3.7630062,2.7608054,-4.8321733
436,1715789514.8546276,4.511307,-0.16107778,1.5029656,4.397695,1.8414533,-5.519397
437,1715789514.8566382,3.77764,-0.26748675,0.7343987,4.397695,1.8414533,-5.519397
438,1715789514.8765013,3.2428803,-0.110801995,0.042465962,3.6335027,2.0137172,-5.6360717
439,1715789514.8916671,3.152823,0.09298581,-0.4842096,0.96096736,4.1077633,-5.7246475
440,1715789514.9049468,3.1769848,0.07028849,-0.47493544,0.08498663,4.860349,-5.8822503
441,1715789514.9131804,3.1769848,0.07028849,-0.47493544,-0.7928267,5.691126,-6.1412573
442,1715789514.9151816,3.1669784,-0.08029483,-0.28798756,-0.7928267,5.691126,-6.1412573
443,1715789514.93032,3.1669784,-0.25601605,-0.13716017,-1.0952051,6.0380974,-6.3397884
444,1715789514.9313118,3.2428803,-0.25601605,-0.13716017,-1.0952051,6.0380974,-6.3397884
445,1715789514.9385524,3.2428803,-0.25601605,-0.13716017,-1.1599567,6.27267,-6.631782
446,1715789514.9412138,3.421774,-0.5801546,0.0319715,-1.1599567,6.27267,-6.631782
447,1715789514.953603,3.421774,-0.5801546,0.0319715,-1.1599567,6.27267,-7.132692
448,1715789514.9566178,3.65732,-1.2439903,0.35046622,-0.21433735,6.4956355,-7.132692
449,1715789514.9734333,3.65732,-1.2439903,0.35046622,0.50465107,6.4876943,-7.263417
450,1715789514.9759307,3.9836245,-1.7245696,0.3653537,0.50465107,6.4876943,-7.263417
451,1715789514.978054,3.9836245,-1.7245696,0.3653537,1.416062,6.4376035,-7.4552283
452,1715789514.9855547,4.0824676,-1.8775933,0.3265486,2.150322,6.312987,-7.6036687
453,1715789515.0045567,4.45978,-2.174367,0.1415532,3.9401572,5.4815993,-8.000731
454,1715789515.0189686,4.63602,-2.280532,-0.019280521,4.673806,4.8829513,-8.298834
455,1715789515.0276732,4.657985,-2.327879,-0.13105874,5.141118,4.440074,-8.577388
456,1715789515.0460901,4.657985,-2.3237302,-0.26065314,5.141118,4.440074,-8.577388
457,1715789515.0475008,4.585012,-2.3586304,-0.43613032,5.6970057,3.3368514,-9.489409
458,1715789515.0530267,4.585012,-2.3586304,-0.43613032,5.604765,3.0192015,-9.918237
459,1715789515.0553327,4.3011427,-2.3388615,-0.5686839,5.604765,3.0192015,-9.918237
460,1715789515.0839818,3.7952123,-2.2583227,-0.697058,4.9401436,2.7638597,-10.205344
461,1715789515.0865407,3.5121057,-2.220738,-0.71194553,4.492379,2.7284296,-10.174801
462,1715789515.0929163,3.0439734,-2.0315936,-0.6987664,4.492379,2.7284296,-10.174801
463,1715789515.096238,3.0439734,-2.0315936,-0.6987664,3.9212203,2.6575692,-9.943283
464,1715789515.1084588,3.0439734,-2.0315936,-0.6987664,3.9212203,2.6575692,-9.617691
465,1715789515.110976,2.7401223,-1.9495904,-0.6135904,3.4142022,2.449875,-9.617691
466,1715789515.1282964,2.5607402,-1.8771054,-0.20329969,3.0452397,1.8341229,-9.106398
467,1715789515.1362584,2.598569,-2.0877268,-0.058573738,3.2743142,1.6679676,-9.176647
468,1715789515.1451485,2.598569,-2.619802,0.03807293,3.9511528,1.9495764,-9.782014
469,1715789515.1471205,2.4108584,-2.619802,0.03807293,3.9511528,1.9495764,-9.782014
470,1715789515.1596022,2.4108584,-3.4989269,0.04344219,4.889442,2.1688771,-10.902341
471,1715789515.1610813,1.8456221,-3.4989269,0.04344219,4.889442,2.1688771,-10.902341
472,1715789515.1747158,1.8456221,-3.4989269,0.04344219,5.6072083,2.0503693,-11.529699
473,1715789515.1769795,-0.83983153,-4.9188824,-0.25308737,5.6072083,2.0503693,-11.529699
474,1715789515.178324,-0.83983153,-4.9188824,-0.25308737,6.311536,1.1939361,-11.150963
475,1715789515.1855423,-2.3134797,-5.3235292,-0.5059612,6.419659,-0.37720928,-9.672669
476,1715789515.1930459,-2.8504362,-5.823389,-0.65337175,6.058638,-2.038152,-7.3330555
477,1715789515.2037222,-2.4442945,-6.0391355,-0.863261,5.010393,-2.3057108,-4.7124434
478,1715789515.2498558,-2.4064655,-5.840473,-0.9772358,1.4429401,0.40225476,-1.5280031
479,1715789515.2528594,-2.6908226,-5.2176085,-0.3109289,-1.12697,1.4944818,2.8671725
480,1715789515.255858,-2.067226,-4.9755034,-0.21135357,-1.4812719,1.2519683,4.2434516
481,1715789515.2638602,-2.067226,-4.6164956,-0.11177822,-1.4812719,1.2519683,4.2434516
482,1715789515.266377,-1.4192234,-4.6164956,-0.11177822,-1.6883552,1.1517864,5.430974
483,1715789515.2803788,-1.4192234,-4.6164956,-0.11177822,-1.7598264,1.2434162,6.6478176
484,1715789515.2823796,-0.9372103,-4.1617866,-0.036608588,-1.7598264,1.2434162,6.6478176
485,1715789515.295748,-0.084687866,-3.4596028,-0.020744866,-1.6718618,0.9465357,8.90191
486,1715789515.3110733,0.67850965,-3.1132858,-0.13496366,-1.6718618,0.9465357,8.90191
487,1715789515.313408,0.67850965,-3.1132858,-0.13496366,-1.6633097,0.52381694,9.612347
488,1715789515.3164065,1.4743804,-2.8345723,-0.2323425,-1.779985,-0.030848695,10.245813
489,1715789515.3287556,1.4743804,-2.8345723,-0.2323425,-1.779985,-0.030848695,10.611111
490,1715789515.3307583,2.0867505,-2.559764,-0.21086545,-1.9418643,-0.45051312,10.611111
491,1715789515.3577926,2.0867505,-2.559764,-0.21086545,-2.1226804,-0.7620544,10.948919
492,1715789515.3606,3.5206478,-2.0669818,0.6353115,-2.0188332,-0.6020077,11.721053
493,1715789515.3679402,3.5206478,-2.0669818,0.6353115,-1.6859118,-0.45112398,12.144382
494,1715789515.380703,3.7888668,-2.11018,0.61188203,-1.4146875,-0.24098633,12.504183
495,1715789515.3887122,3.7888668,-2.11018,0.5389089,-1.290682,-0.17440203,12.634908
496,1715789515.3911219,4.097111,-2.114085,0.5389089,-1.290682,-0.17440203,12.634908
497,1715789515.4001656,4.097111,-2.114085,0.5389089,-1.290682,-0.17440203,11.737547
498,1715789515.4021878,4.755608,-1.9176189,0.33094162,-1.362764,-0.31306845,11.737547
499,1715789515.4191847,4.6684794,-1.799007,0.3397277,-1.5008196,-0.49266282,10.972743
500,1715789515.426855,4.6684794,-1.799007,0.3397277,-1.5692364,-0.623388,10.537807
501,1715789515.4289556,4.358252,-1.7404332,0.4131889,-1.5692364,-0.623388,10.537807
502,1715789515.4357605,4.051228,-1.7157835,0.49128726,-1.5539649,-0.72295904,10.394254
503,1715789515.4456391,4.051228,-1.8136505,0.5523321,-1.4171311,-0.84696466,10.540861
504,1715789515.4476538,3.7856941,-1.8136505,0.5523321,-1.4171311,-0.84696466,10.540861
505,1715789515.4544961,3.6539032,-1.8431814,0.58430356,-1.2668581,-0.82436264,10.824303
506,1715789515.468051,3.628277,-1.8578248,0.60041136,-1.1324677,-0.8005389,11.039939
507,1715789515.4809396,3.8298683,-1.8917488,0.5830833,-1.0127382,-0.84329945,11.113853
508,1715789515.4879372,3.8298683,-1.8917488,0.5140151,-0.85513496,-0.9392053,10.901883
509,1715789515.4893363,4.1759415,-1.8192637,0.5140151,-0.85513496,-0.9392053,10.901883
510,1715789515.491595,4.5571895,-1.4563202,0.5298788,-0.85513496,-0.9392053,10.901883
511,1715789515.499926,4.5571895,-1.0275115,0.50840175,0.026343564,-1.0106765,9.248881
512,1715789515.502263,4.45978,-1.0275115,0.50840175,0.026343564,-1.0106765,9.248881
513,1715789515.5145948,4.45978,-1.0275115,0.50840175,0.026343564,-1.1194105,8.446205
514,1715789515.5165763,4.259653,-0.6863195,0.23990828,0.2786309,-1.1194105,8.446205
515,1715789515.545009,3.3549025,-0.11006982,-0.675825,-2.351144,0.27275133,6.876892
516,1715789515.5555496,3.0698438,-0.07907455,-0.6594732,-4.2649846,1.1200215,6.474332
517,1715789515.5623815,3.0698438,-0.07907455,-0.6594732,-4.2649846,1.5293012,6.2220445
518,1715789515.5638974,2.9939418,-0.13349932,-0.4429639,-5.554521,1.5293012,6.2220445
519,1715789515.5774987,3.011758,-0.28237423,0.030019043,-6.5777206,1.6307048,5.996024
520,1715789515.5860486,3.0110257,-0.3277689,0.5108423,-6.5777206,1.6307048,5.996024
521,1715789515.5873022,3.0110257,-0.3277689,0.5108423,-6.9766154,1.3729197,5.9428787
522,1715789515.5946503,3.2665539,-0.061502427,1.5293237,-6.322379,-0.013744468,6.1499624
523,1715789515.6034365,3.2665539,0.27773714,1.973996,-5.0224576,-1.426065,6.2348723
524,1715789515.6048489,3.738835,0.27773714,1.973996,-5.0224576,-1.426065,6.2348723
525,1715789515.6138678,3.738835,0.27773714,1.973996,-5.0224576,-1.426065,6.226931
526,1715789515.614885,4.2425694,0.68070614,2.1016378,-3.6528978,-2.817616,6.226931
527,1715789515.6266499,4.2425694,0.68070614,2.1016378,-1.9436969,-4.549419,6.2452574
528,1715789515.6340415,5.1202297,1.1685766,2.0423322,-1.9436969,-4.549419,6.2452574
529,1715789515.6436474,7.0136867,2.4828553,1.24277,-0.16852245,-5.7485476,5.6576047
530,1715789515.6545224,7.9430876,2.9319513,0.7754004,-0.37377316,-4.948925,4.682053
531,1715789515.6628342,7.9430876,2.9319513,0.7754004,-1.2912928,-3.2806518,3.0437124
532,1715789515.6643848,7.9948273,2.785517,0.51791996,-1.2912928,-3.2806518,3.0437124
533,1715789515.6806579,7.9948273,2.3608267,0.5686839,-2.4855344,-1.072374,1.1909581
534,1715789515.6826594,7.9950714,2.3608267,0.5686839,-2.4855344,-1.072374,1.1909581
535,1715789515.6906426,7.9950714,2.3608267,0.5686839,-2.4855344,1.7351627,-0.80229515
536,1715789515.6927137,5.6618233,0.62091213,1.9366553,-4.231387,5.145623,-2.231109
537,1715789515.7148223,5.6618233,0.09542638,2.5790443,-2.3627503,7.04236,-1.7815121
538,1715789515.7172096,3.8113198,0.09542638,2.5790443,-2.3627503,7.04236,-1.7815121
539,1715789515.734906,3.8864896,0.11617125,2.5861223,-0.7934376,6.427219,-1.8151097
540,1715789515.7373497,4.0009522,0.091033354,2.4691882,0.6720281,5.329494,-2.272037
541,1715789515.7489684,3.926271,0.102504045,2.0877268,2.4667501,3.4364223,-3.1626785
542,1715789515.7612414,3.926271,0.102504045,2.0877268,3.4074826,2.1713204,-3.9006038
543,1715789515.7625647,3.7168698,-0.117147475,1.2034768,3.8204277,1.4340062,-4.6904526
544,1715789515.777076,3.564334,-0.2042759,0.9067031,3.7495673,1.353372,-5.0417
545,1715789515.7861109,3.3780878,-0.31556603,0.60944146,3.7495673,1.353372,-5.0417
546,1715789515.7878811,3.3780878,-0.31556603,0.60944146,3.2181144,1.7968601,-5.4259343
547,1715789515.8102143,3.3780878,-0.31556603,0.60944146,2.3708444,2.9538388,-5.600031
548,1715789515.8119862,3.2009022,-0.46444094,0.38585448,1.5944346,4.4816127,-5.684941
549,1715789515.8183427,3.2009022,-0.46444094,0.38585448,1.1594986,5.5762835,-5.8205533
550,1715789515.8199387,3.275584,-0.5901609,0.40391475,1.1594986,5.5762835,-5.8205533
551,1715789515.8282123,3.4134762,-0.8002942,0.49543622,1.0000628,6.520681,-6.101551
552,1715789515.848278,3.5411487,-1.0328808,0.56746364,1.098412,6.9220195,-6.3507843
553,1715789515.8500595,3.9040618,-1.7963223,0.7348869,2.4349852,7.078401,-7.227987
554,1715789515.8709621,4.0175486,-2.1123765,0.7004748,3.2712598,6.774801,-7.510206
555,1715789515.8824499,4.0414658,-2.2778473,0.62140024,4.0024652,6.425997,-7.692244
556,1715789515.8846056,4.118832,-2.4953022,0.48323336,4.829577,5.937916,-7.811974
557,1715789515.8942115,4.2486706,-2.6639764,0.28994003,5.5931587,5.506034,-7.879169
558,1715789515.9022226,4.2572126,-2.7249908,0.12154051,6.0232077,5.1896057,-7.9848485
559,1715789515.914826,4.1930256,-2.7667246,-0.0012202862,6.335971,4.7876563,-8.112519
560,1715789515.9258065,4.082956,-2.7923505,-0.06296677,6.4538674,4.5329256,-8.173606
561,1715789515.9364018,3.8957639,-2.8055296,-0.117879644,6.492963,4.1413608,-8.264625
562,1715789515.9671118,3.2318976,-2.7291398,-0.011714748,6.2638884,2.830444,-8.194986
563,1715789516.0031524,2.9636786,-2.692287,0.022941383,6.131331,2.581822,-8.113741
564,1715789516.0045102,2.4972851,-2.3796191,0.18621568,6.114227,1.8726074,-7.7453895
565,1715789516.032259,2.4972851,-2.3796191,0.18621568,6.2553363,1.5903877,-7.6726966
566,1715789516.0345135,2.011825,-2.226351,0.05296042,6.4410396,0.9642508,-7.766159
567,1715789516.041842,1.6999198,-2.2968838,-0.01586372,6.621245,0.7498371,-8.178493
568,1715789516.058895,1.4238604,-2.555859,-0.08102701,6.621245,0.7498371,-8.178493
569,1715789516.0605452,0.84129584,-3.1386676,-0.3951287,7.3756633,0.8512407,-9.530949
570,1715789516.0837426,-0.18621568,-3.8540301,-1.0628998,7.522882,0.3381139,-10.070953
571,1715789516.0899465,-0.18621568,-3.8540301,-1.0628998,6.833826,-0.91415983,-10.169303
572,1715789516.092569,-1.4070204,-4.506426,-1.9598407,6.833826,-0.91415983,-10.169303
573,1715789516.100078,-3.313413,-5.3838115,-2.8846042,4.463058,-3.2226195,-9.160765
574,1715789516.1012375,-4.395349,-5.95518,-2.872157,1.9530126,-4.6868634,-7.360544
575,1715789516.113998,-4.7739124,-6.2492685,-2.311283,-0.69631004,-4.7284026,-4.8114038
576,1715789516.130582,-5.0631204,-6.291491,-1.4843867,-0.69631004,-4.7284026,-4.8114038
577,1715789516.1325831,-5.0631204,-6.291491,-1.4843867,-2.1721604,-3.8902953,-2.520659
578,1715789516.1392062,-4.5706124,-5.508799,0.32947728,-2.8709903,-2.5848763,0.57276255
579,1715789516.1417432,-4.5706124,-5.508799,0.32947728,-2.5252407,-1.2678508,4.4877977
580,1715789516.1521943,-4.5706124,-5.508799,0.32947728,-2.5252407,-0.43890667,6.765714
581,1715789516.1532102,-3.4276314,-5.0643406,0.40391475,-2.0078378,-0.43890667,6.765714
582,1715789516.1644065,-1.5171208,-4.339704,0.27529657,-1.5502996,0.1133155,8.779126
583,1715789516.1953971,-1.5171208,-4.339704,0.27529657,-1.5502996,0.3210097,9.58608
584,1715789516.19724,2.148253,-2.9461064,0.21037734,-1.07749,0.16707164,9.624564
585,1715789516.2043555,2.7979639,-2.7418306,0.33948365,-0.8795696,0.18600847,9.21284
586,1715789516.2176874,2.7979639,-2.7418306,0.42392743,-0.64316475,0.38698313,8.976436
587,1715789516.219154,2.8880208,-2.5138812,0.42392743,-0.64316475,0.38698313,8.976436
588,1715789516.226667,2.8880208,-2.5138812,0.42392743,-0.40798163,0.62949663,9.133428
589,1715789516.229011,2.726211,-2.3679044,0.46029195,-0.40798163,0.62949663,9.133428
590,1715789516.242358,2.5585437,-2.242215,0.5469628,-0.40798163,0.62949663,9.133428
591,1715789516.2437959,2.54268,-2.1521578,0.71438605,0.07704538,0.7467828,9.723524
592,1715789516.2538037,2.54268,-2.1521578,0.71438605,1.2731196,-0.11148291,10.350271
593,1715789516.255643,2.9678278,-2.1956,0.80566347,1.2731196,-0.11148291,10.350271
594,1715789516.2696407,3.3541703,-2.1079836,0.49568027,2.122833,-0.63194007,10.463282
595,1715789516.2763386,3.3541703,-2.1079836,0.49568027,2.122833,-0.88789266,10.389367
596,1715789516.277601,3.370522,-1.982538,0.33240595,2.3824508,-0.88789266,10.389367
597,1715789516.3028812,3.45521,-1.880522,0.1718163,2.3824508,-0.88789266,10.389367
598,1715789516.3039837,3.5157669,-1.705045,0.013911263,1.9798906,-0.63438356,10.0876
599,1715789516.3063238,3.3951719,-1.6120591,-0.018060237,1.4545465,-0.20433442,10.034454
600,1715789516.3133245,3.2912035,-1.6288991,-0.12910628,0.83635086,0.14080444,10.233597
601,1715789516.3356907,3.3829691,-1.6867406,-0.23990828,-0.005421429,0.3839288,10.550635
602,1715789516.3537526,4.176918,-1.738969,0.30336314,-2.6669612,0.4822781,10.758329
603,1715789516.3639379,4.176918,-1.738969,0.30336314,-2.6669612,0.4822781,10.275135
604,1715789516.3662612,4.4661255,-1.6550131,0.6043163,-2.9455159,0.40775254,10.275135
605,1715789516.383239,4.3331146,-1.1883452,0.9323292,-2.7787497,0.5696318,9.597686
606,1715789516.3968592,4.3331146,-1.1883452,0.9323292,-2.7787497,0.5696318,9.245828
607,1715789516.3979878,3.978255,-0.7168266,0.76148915,-2.1074088,0.9025534,8.537224
608,1715789516.4056818,3.8079033,-0.539397,0.48128092,-2.1074088,0.8347474,8.006382
609,1715789516.4177606,3.459847,-0.3738957,0.24625377,-2.5038602,0.78038037,7.460879
610,1715789516.429917,3.459847,-0.2967736,0.07785426,-3.217351,0.77732605,7.1157403
611,1715789516.432706,3.2304332,-0.2967736,0.07785426,-4.195957,1.1933253,6.8939962
612,1715789516.43785,2.9888165,-0.1871919,0.14228538,-4.195957,1.1933253,6.8939962
613,1715789516.4475777,2.9888165,-0.1871919,0.18401916,-4.6736536,1.4364496,6.8420725
614,1715789516.4495025,2.9146233,-0.14374973,0.18401916,-4.6736536,1.4364496,6.8420725
615,1715789516.4554634,2.9146233,-0.20256752,0.272856,-4.6736536,1.4364496,6.8420725
616,1715789516.456773,3.1071844,-0.20256752,0.272856,-5.6186624,1.9788979,6.736393
617,1715789516.4637878,3.2716792,-0.17889395,0.41807005,-6.2875595,2.4657576,6.3973627
618,1715789516.4819884,3.1686866,0.041977845,0.90035766,-6.602766,2.0888536,5.6576047
619,1715789516.494528,3.1108453,0.28359452,1.3923771,-6.0016747,0.70463306,5.6576047
620,1715789516.5035813,3.3829691,0.59870297,1.692354,-4.993747,-0.99173975,5.9807525
621,1715789516.5210814,3.7659254,1.2317874,1.9761926,-3.620522,-2.612976,6.5574093
622,1715789516.5354247,3.7659254,1.6362208,1.6989436,-2.632142,-3.7278051,7.135288
623,1715789516.53775,5.5578547,2.140687,1.3652867,-1.9553033,-4.132198,7.465155
624,1715789516.5443077,6.754254,2.4772422,0.7070644,-1.8752799,-3.6716056,7.224474
625,1715789516.5642395,6.754254,2.4772422,0.7070644,-3.0188196,-2.7937922,6.3081765
626,1715789516.5654542,7.7310014,1.9425126,0.1901206,-3.0188196,-2.7937922,6.3081765
627,1715789516.5722475,7.994339,1.3809065,0.1295944,-4.612567,-1.2293663,4.7791805
628,1715789516.5784717,7.994339,1.3809065,0.1295944,-4.612567,-1.2293663,2.5085945
629,1715789516.5796554,7.9950714,0.8010264,0.5911371,-6.48548,0.8585711,2.5085945
630,1715789516.6002114,7.874507,0.3824377,1.2591219,-7.4439273,2.6514606,0.6033058
631,1715789516.602341,4.4863825,-0.31727442,4.4722266,-4.803157,6.433327,-2.4833963
632,1715789516.6142771,4.018769,-0.54086137,4.575982,-1.1275809,6.286109,-2.9763646
633,1715789516.6290512,3.8855135,-0.79028785,4.024382,2.1405482,5.0283375,-3.4577265
634,1715789516.6453195,3.768854,-0.93843067,3.190408,4.362265,3.4125986,-3.9238164
635,1715789516.647093,3.4871814,-0.93843067,2.0686903,5.907143,1.5549575,-4.389296
636,1715789516.6610644,3.422506,-0.8774163,1.391889,5.907143,1.5549575,-4.389296
637,1715789516.6615715,3.3370862,-0.76344156,0.61700726,6.008547,0.31978795,-5.3972235
638,1715789516.6828995,3.1916282,-0.6048044,0.15717287,4.9712977,1.2415836,-5.675167
639,1715789516.6853123,3.126709,-0.54208165,-0.017816179,3.8583012,2.5024095,-5.779014
640,1715789516.6980023,3.0808263,-0.573565,-0.061502427,3.8583012,2.5024095,-5.779014
641,1715789516.7004476,3.0808263,-0.573565,-0.061502427,2.4783566,4.2329907,-5.8462095
642,1715789516.7017944,3.1291497,-0.722684,0.191829,1.4802028,5.7381625,-6.003813
643,1715789516.7290347,3.1291497,-0.9923673,0.5572132,1.4802028,5.7381625,-6.003813
644,1715789516.7303457,3.3080435,-0.9923673,0.5572132,1.2810608,6.327037,-6.3098564
645,1715789516.731367,3.4412985,-1.250824,0.8542308,1.710499,6.2555656,-6.859635
646,1715789516.7336168,3.526505,-1.5246866,1.1214736,2.3745096,5.8786616,-7.2615843
647,1715789516.7530212,3.6853867,-2.3186047,1.0487446,4.907768,4.2073345,-8.358088
648,1715789516.7722003,3.7625084,-2.5870984,0.8185985,4.907768,4.2073345,-8.358088
649,1715789516.7733886,3.7625084,-2.5870984,0.8185985,6.120335,3.211013,-8.895649
650,1715789516.7862267,3.8830726,-2.7655041,0.5789343,6.120335,3.211013,-8.895649
651,1715789516.787243,3.994607,-2.84946,0.37877685,6.2284584,3.147483,-9.0447
652,1715789516.8009741,3.994607,-2.84946,0.37877685,5.9523473,3.3887749,-9.548664
653,1715789516.8019927,4.2821064,-2.853853,-0.0046370877,5.9523473,3.3887749,-9.548664
654,1715789516.814202,4.2821064,-2.8294473,-0.12642166,5.7147207,3.433979,-9.836381
655,1715789516.8152034,4.2703915,-2.8294473,-0.12642166,5.7147207,3.433979,-9.836381
656,1715789516.8353739,3.9587305,-2.7381697,-0.2489384,5.0989685,3.289204,-10.345232
657,1715789516.8464305,3.7163818,-2.6481125,-0.22258021,5.0989685,3.289204,-10.345232
658,1715789516.8488054,3.7163818,-2.6481125,-0.22258021,4.90227,3.1682527,-10.398988
659,1715789516.8616605,3.7163818,-2.5097322,0.033435844,4.90227,3.1682527,-10.398988
660,1715789516.862864,3.5199156,-2.5097322,0.033435844,4.639598,1.9654589,-10.34401
661,1715789516.8788242,3.2314095,-2.3991437,0.09884319,4.6915216,1.5519031,-10.18152
662,1715789516.8862355,3.2314095,-2.3991437,0.09884319,4.6915216,1.3374895,-9.990319
663,1715789516.887251,3.063498,-2.2822404,0.09469421,4.6683087,1.3374895,-9.990319
664,1715789516.910586,2.9148672,-2.1038344,0.076633975,4.5833983,1.2586879,-9.695882
665,1715789516.9125228,2.8704488,-1.9632576,0.10323621,4.4795513,1.031446,-9.5101795
666,1715789516.931144,2.786493,-2.0306172,0.106164895,4.5913396,0.79443026,-9.661674
667,1715789516.9341316,2.786493,-2.0306172,0.106164895,4.6927433,0.7156286,-9.879142
668,1715789516.9341316,2.7401223,-2.2585669,0.040269446,4.6927433,0.7156286,-9.879142
669,1715789516.9675615,2.7401223,-2.2585669,-0.06467517,4.7471104,0.8035932,-10.114325
670,1715789516.9688015,1.255949,-4.589649,-0.7065762,4.8369074,1.5628988,-11.540695
671,1715789516.979738,1.255949,-4.589649,-0.7065762,4.8369074,1.5628988,-11.793593
672,1715789516.98122,-2.6825247,-6.0593925,-1.5573903,4.3903646,1.5189165,-11.793593
673,1715789516.986522,-2.6825247,-6.0593925,-1.5573903,3.193069,-0.10170906,-10.899898
674,1715789516.9985762,-2.6825247,-6.0593925,-1.5573903,2.118557,-2.9526172,-8.152837
675,1715789517.0004709,-4.0234056,-7.059325,-1.1031693,1.3671927,-3.800498,-5.504736
676,1715789517.001483,-4.2271934,-7.1884317,-0.9296446,1.3671927,-3.800498,-5.504736
677,1715789517.0515409,-4.2271934,-5.7247896,-0.0053692595,-1.5570191,1.7907515,5.675931
678,1715789517.0535505,-1.6974791,-5.0545783,-0.2443013,-1.7604373,1.6398678,8.048532
679,1715789517.0693424,-0.40611124,-4.4024267,-0.469078,-2.3358724,1.462106,9.390602
680,1715789517.0831733,-0.40611124,-4.4024267,-0.51694375,-3.4085517,1.2476922,10.303235
681,1715789517.085163,1.0592389,-3.640724,-0.51694375,-3.4085517,1.2476922,10.303235
682,1715789517.0994132,2.5753837,-2.906325,0.024405725,-4.47329,0.15790866,10.897607
683,1715789517.118262,3.0412889,-2.560252,0.4978768,-4.3260713,-0.4804455,11.132179
684,1715789517.132981,3.1757646,-2.4235494,0.6833908,-4.1000514,-0.65026605,11.282452
685,1715789517.146248,3.1757646,-2.2456317,0.8793688,-3.615024,-0.68875057,11.650193
686,1715789517.1483552,3.4220183,-2.2456317,0.8793688,-3.615024,-0.68875057,11.650193
687,1715789517.1493669,3.4220183,-2.2456317,0.8793688,-3.0151546,-0.4260785,12.027708
688,1715789517.1503725,3.97313,-2.1592355,0.94306767,-3.0151546,-0.4260785,12.027708
689,1715789517.1622682,4.5034966,-2.0005982,0.79907393,-2.6559658,-0.19517145,11.893317
690,1715789517.177332,4.6933737,-1.6616027,0.58552384,-2.6559658,-0.19517145,11.893317
691,1715789517.1783252,4.537909,-1.5019894,0.61969185,-2.3926828,-0.22876903,10.546359
692,1715789517.1861658,4.537909,-1.5019894,0.61969185,-2.1935408,-0.5849035,10.122419
693,1715789517.1884081,4.244034,-1.3669951,0.73195815,-2.1935408,-0.5849035,10.122419
694,1715789517.2171617,4.244034,-1.4123898,0.50156814,-1.3340533,-2.010663,10.006966
695,1715789517.2192054,3.5992343,-1.4123898,0.50156814,-1.3340533,-2.010663,10.006966
696,1715789517.2244225,3.5992343,-1.4123898,0.50156814,-1.3340533,-2.010663,10.229931
697,1715789517.2269733,3.5528634,-1.4804819,0.33191785,-1.4146875,-1.9868392,10.229931
698,1715789517.2346053,3.5362673,-1.5166328,0.20915705,-1.7030159,-1.8329011,10.460838
699,1715789517.2432156,3.5362673,-1.585945,0.1261776,-1.7030159,-1.8329011,10.460838
700,1715789517.2443755,3.619491,-1.585945,0.1261776,-2.36947,-1.5329664,10.707017
701,1715789517.2724934,3.8413389,-1.5149243,0.43979117,-3.117169,-0.795652,10.163347
702,1715789517.2793818,3.95629,-1.3093976,0.5515999,-3.117169,-0.795652,10.163347
703,1715789517.3012397,3.951165,-1.1229379,0.5923574,-3.117169,-0.795652,10.163347
704,1715789517.3022265,3.6783087,-0.74538136,0.6409248,-2.440941,-1.1523973,8.371679
705,1715789517.3140433,3.6783087,-0.55867755,0.5145032,-2.301053,-1.1346822,7.7669225
706,1715789517.3162093,3.5870311,-0.55867755,0.5145032,-2.301053,-1.1346822,7.7669225
707,1715789517.332244,3.3858976,-0.22355644,0.2613853,-2.8960357,-0.43401974,6.5299206
708,1715789517.3434112,3.3858976,-0.22355644,0.2613853,-3.9803216,0.46578476,5.7718368
709,1715789517.3453832,3.0752127,0.0024405725,0.05588911,-3.9803216,0.46578476,5.7718368
710,1715789517.3522267,2.8828957,-0.073461235,0.18914436,-4.97481,1.0522153,5.379661
711,1715789517.363541,2.9758816,-0.28335047,0.4131889,-5.809863,1.2116512,5.186017
712,1715789517.3789847,2.9758816,-0.28335047,0.81493765,-6.073146,0.9776898,5.1163783
713,1715789517.381,3.0405567,-0.3990336,0.81493765,-6.073146,0.9776898,5.1163783
714,1715789517.3890176,3.0405567,-0.3990336,0.81493765,-5.7628264,0.07422013,5.3295703
715,1715789517.3912017,3.0312827,-0.22477673,1.4260571,-5.7628264,0.07422013,5.3295703
716,1715789517.3932643,3.635599,0.590405,2.485296,-3.73903,-2.7241535,6.2477007
717,1715789517.4080474,4.656765,1.1561297,2.9036405,-3.73903,-2.7241535,6.2477007
718,1715789517.409305,4.656765,1.1561297,2.9036405,-1.8361846,-4.5011606,6.6349893
719,1715789517.4223204,6.0474334,2.0562432,2.9060812,0.57001364,-6.0661974,6.4798293
720,1715789517.4238222,7.4429836,3.16527,2.2234225,0.57001364,-6.0661974,6.4798293
721,1715789517.426064,7.4429836,3.16527,2.2234225,2.6555076,-6.580546,5.6117897
722,1715789517.4356494,7.9860415,3.845244,1.2635149,2.6555076,-6.580546,5.6117897
723,1715789517.4382782,7.9860415,3.845244,1.2635149,1.9921079,-3.3777795,1.7969365
724,1715789517.4396236,7.9950714,3.978255,-0.117635585,1.9921079,-3.3777795,1.7969365
725,1715789517.4593744,7.9950714,3.1469657,-0.74708974,-0.71097076,0.16035213,-1.4156039
726,1715789517.461435,7.0390687,1.922744,-0.46761367,-0.71097076,0.16035213,-1.4156039
727,1715789517.4627137,7.0390687,1.922744,-0.46761367,-3.3627367,2.9568932,-3.454672
728,1715789517.486298,4.2769814,0.19036464,0.90133387,-6.413398,6.3862906,-3.9183187
729,1715789517.4931993,4.2769814,0.19036464,0.90133387,-6.413398,6.3862906,-3.383201
730,1715789517.494336,3.6365747,-0.30043447,2.054779,-6.135454,6.90125,-3.383201
731,1715789517.5047464,3.6365747,-0.50156814,2.7647722,-4.75612,6.537174,-3.1779501
732,1715789517.5068986,3.671231,-0.50156814,2.7647722,-4.75612,6.537174,-3.1779501
733,1715789517.5249906,3.844756,-0.5913812,3.096202,-4.75612,6.537174,-3.1779501
734,1715789517.5262234,3.8357258,-0.5457425,2.9858878,-0.28825203,4.8591275,-3.554243
735,1715789517.53617,3.8357258,-0.5457425,2.6144328,1.3177127,4.0668354,-3.8560104
736,1715789517.5373075,3.7708063,-0.52328926,2.6144328,1.3177127,4.0668354,-3.8560104
737,1715789517.544834,3.7708063,-0.52328926,2.6144328,1.3177127,4.0668354,-4.401513
738,1715789517.546843,3.6036272,-0.46322066,1.978633,2.8595366,3.2055154,-4.401513
739,1715789517.5554314,3.3117042,-0.3790209,1.4243486,3.5889096,2.7834074,-4.9183054
740,1715789517.5695264,3.3117042,-0.3790209,1.4243486,3.7123044,2.7791314,-5.1986923
741,1715789517.5707881,3.1516027,-0.3392396,1.0997524,3.7123044,2.7791314,-5.1986923
742,1715789517.5791798,3.0268893,-0.31385764,0.82299155,3.6286159,2.9135218,-5.421047
743,1715789517.6025097,3.0268893,-0.31385764,0.82299155,3.6286159,2.9135218,-6.375219
744,1715789517.6046772,3.1811337,-0.697058,0.43417785,2.3653467,3.9562688,-6.375219
745,1715789517.612926,3.1811337,-0.697058,0.43417785,2.1472676,4.2164974,-6.686149
746,1715789517.6148093,3.4095712,-1.0726621,0.45907167,2.1472676,4.2164974,-6.686149
747,1715789517.6332119,3.4095712,-1.345274,0.48103684,2.0898464,4.480391,-7.0196815
748,1715789517.6342134,3.8057067,-1.6259704,0.50693744,2.1839197,4.676479,-7.271969
749,1715789517.6578164,4.106385,-2.4076858,0.48787045,3.963981,5.1590624,-8.480871
750,1715789517.6797154,4.106385,-2.4076858,0.48787045,4.6206613,4.981301,-8.618927
751,1715789517.6817043,4.040002,-2.5526862,0.37755656,4.6206613,4.981301,-8.618927
752,1715789517.6833174,3.9704452,-2.6478686,0.2796896,5.129512,4.7241263,-8.620759
753,1715789517.711914,3.8637924,-2.6742268,0.1432616,5.9419627,3.688099,-8.427115
754,1715789517.713206,3.7891107,-2.5270603,-0.021477038,6.1233897,2.9684997,-8.590827
755,1715789517.7305894,3.726144,-2.4577177,-0.029774986,6.1233897,2.9684997,-8.590827
756,1715789517.7325993,3.726144,-2.4577177,-0.029774986,6.145992,2.391232,-8.789969
757,1715789517.7336063,3.644141,-2.4020724,-0.05344854,6.0757422,1.9019289,-8.948183
758,1715789517.7517366,3.644141,-2.4020724,-0.05344854,6.0757422,1.9019289,-9.127777
759,1715789517.753719,3.4676569,-2.294199,-0.14008886,5.4129534,1.3674219,-9.180312
760,1715789517.760745,3.4676569,-2.294199,-0.14008886,5.0934706,1.4969252,-9.251783
761,1715789517.7621524,3.3829691,-2.249781,-0.12886222,5.0934706,1.4969252,-9.251783
762,1715789517.797366,2.7835646,-2.096269,0.118855886,4.653648,1.5244142,-9.152212
763,1715789517.7988932,2.7835646,-2.096269,0.118855886,4.794758,1.4230106,-8.828454
764,1715789517.8136225,2.5622046,-2.1931593,0.208913,4.794758,1.4230106,-8.828454
765,1715789517.8154724,2.3469155,-2.2075589,0.2238005,4.9658,1.2922854,-8.712389
766,1715789517.8305495,2.2409947,-2.4694324,0.17035197,5.128901,1.1945469,-8.975061
767,1715789517.8465526,1.1595465,-3.81254,-0.19939478,5.6469145,2.0570886,-10.565754
768,1715789517.861563,-0.45345837,-4.6667714,-0.9081675,5.49542,1.7504344,-10.682429
769,1715789517.8770788,-2.526328,-5.4526353,-1.6701448,4.321948,-0.016798794,-9.6519
770,1715789517.8920841,-3.9450634,-6.545097,-1.3589412,2.0764074,-2.6080892,-5.798562
771,1715789517.8950844,-4.186192,-6.757671,-0.9093878,1.2993867,-2.1255057,-3.6446512
772,1715789517.911322,-4.552308,-6.682501,-0.594798,0.72944945,-0.61727935,-0.8401688
773,1715789517.9127626,-4.3628893,-6.2380424,-0.42856455,0.53458345,-0.057726767,2.5977807
774,1715789517.9348521,-4.3628893,-6.2380424,-0.42856455,0.53458345,-0.14752395,4.3210316
775,1715789517.9373343,-2.6473806,-5.5031857,-0.62140024,0.01779145,-0.06383542,5.9532638
776,1715789517.938939,-2.6473806,-5.5031857,-0.62140024,-0.9333257,0.514654,7.4144535
777,1715789517.9503994,-1.2461867,-4.7046003,-0.6992545,-0.9333257,0.514654,7.4144535
778,1715789517.9516973,-0.3248402,-4.088081,-0.6311625,-1.9088775,1.0412198,8.211021
779,1715789517.9624307,-0.3248402,-3.63267,-0.49763274,-2.6510787,1.235475,8.642292
780,1715789517.9629526,0.36169282,-3.63267,-0.49763274,-2.6510787,1.235475,8.642292
781,1715789517.987538,1.0611913,-3.2355585,-0.23795582,-2.6510787,1.235475,8.642292
782,1715789517.990324,1.5996122,-2.9746614,-0.033191785,-3.3645694,0.57696223,9.125486
783,1715789518.0087562,1.5996122,-2.9746614,0.21086545,-3.3645694,0.57696223,9.125486
784,1715789518.01106,2.4113467,-2.4972851,0.400742,-3.2876003,-0.17989981,9.347842
785,1715789518.01106,2.897295,-2.118966,0.8044432,-2.7744737,-0.3857614,9.667935
786,1715789518.0319567,3.3714986,-1.9488581,1.0062785,-1.6510924,-0.5390886,10.2788
787,1715789518.0490615,3.8469524,-1.8880879,0.92549556,-1.6510924,-0.5390886,10.2788
788,1715789518.05068,4.0980873,-1.812186,0.7519709,-0.53626335,-0.75961095,10.548192
789,1715789518.071415,4.2325625,-1.6950387,0.45419052,-0.36094502,-0.79198676,10.443734
790,1715789518.0737846,4.14397,-1.6184046,0.30897647,-0.36094502,-0.79198676,10.443734
791,1715789518.0768495,4.14397,-1.6184046,0.30897647,-0.4544074,-0.71685034,10.362489
792,1715789518.0828903,4.007298,-1.5756946,0.19963883,-0.6712645,-0.605062,10.380204
793,1715789518.0962834,4.007298,-1.5756946,0.19963883,-0.96081465,-0.4877759,10.513372
794,1715789518.0985246,3.8835611,-1.6105947,0.09298581,-0.96081465,-0.4877759,10.513372
795,1715789518.1006038,3.8576908,-1.7148073,-0.024893839,-1.6425403,-0.35277468,10.889055
796,1715789518.1151645,3.896252,-1.8309784,-0.057841565,-2.2356904,-0.21105394,11.130958
797,1715789518.1239767,3.9338367,-1.9461735,-0.03904916,-2.2356904,-0.21105394,11.130958
798,1715789518.1306326,3.9338367,-1.9461735,-0.03904916,-2.8306732,-0.10842858,11.278176
799,1715789518.138059,3.921146,-1.956668,0.027090356,-3.5356116,0.03268129,11.308108
800,1715789518.165978,3.921146,-1.956668,0.027090356,-4.7658944,0.20250183,10.80842
801,1715789518.1684003,3.9738622,-1.9256727,0.5047409,-4.9381585,0.121256754,10.390589
802,1715789518.1776383,3.8418274,-1.8465983,0.6567886,-4.9418235,-0.04917465,9.968481
803,1715789518.191409,3.8418274,-1.8465983,0.6567886,-4.7775006,-0.09254608,9.7168045
804,1715789518.192718,3.5177193,-1.6091304,0.978456,-4.4720683,-0.11881329,9.53721
805,1715789518.2027712,3.4571624,-1.4382598,1.118789,-3.832492,-0.15974127,9.20551
806,1715789518.2121844,3.4571624,-1.4382598,1.1075623,-3.3279176,-0.14874569,8.490187
807,1715789518.2131922,3.8327968,-1.2115307,1.1075623,-3.3279176,-0.14874569,8.490187
808,1715789518.231039,3.9272473,-0.92134666,1.0519172,-3.3279176,-0.14874569,8.490187
809,1715789518.2325215,3.9272473,-0.92134666,1.0519172,-2.6290877,-0.005192355,6.37415
810,1715789518.2336097,3.7078397,-0.692909,1.0109156,-2.6290877,-0.005192355,6.37415
811,1715789518.2436364,3.20798,-0.5718566,0.8757079,-2.473928,-0.21410827,5.4547977
812,1715789518.259836,2.7205977,-0.49006698,0.931353,-2.3438137,-1.3735305,5.4816756
813,1715789518.2758002,3.0129783,-0.50718147,0.99041486,-2.2167537,-1.8438967,5.897675
814,1715789518.2824981,3.4351974,-0.35583547,1.0067666,-1.9998964,-2.3356433,6.368041
815,1715789518.2916634,3.4351974,-0.35583547,1.0067666,-1.9998964,-3.052799,6.758995
816,1715789518.29281,4.3379955,0.1666911,0.9157333,-1.9662988,-3.052799,6.758995
817,1715789518.3042908,4.3379955,0.1666911,0.9157333,-1.9662988,-4.1786237,6.85429
818,1715789518.3052983,5.495864,0.5696601,0.98724204,-2.1177936,-4.1786237,6.85429
819,1715789518.3189173,5.495864,0.5696601,0.98724204,-2.2906682,-4.8096476,6.6691976
820,1715789518.3209198,6.479903,1.1988398,1.1795592,-2.2906682,-4.8096476,6.6691976
821,1715789518.3276398,7.592133,2.2109756,1.4785293,-2.255849,-4.6227226,6.1481295
822,1715789518.3454638,7.9950714,3.45521,1.5356692,-2.500195,-2.663067,3.4193945
823,1715789518.360554,7.9950714,2.755986,0.9652769,-3.5398877,-0.6783658,-0.231747
824,1715789518.3772967,6.18557,0.032459613,1.9005347,-5.0682726,4.77605,-4.3636394
825,1715789518.3926709,3.5313864,-0.7234162,3.1123095,-2.9687288,6.6972213,-2.893287
826,1715789518.4018834,4.1622744,-0.79516906,3.1110892,-2.9687288,6.6972213,-2.893287
827,1715789518.4041908,4.1622744,-0.79516906,3.1110892,-0.23999368,6.266561,-2.462016
828,1715789518.434688,4.495168,-0.78028154,2.7279193,-0.23999368,6.266561,-2.462016
829,1715789518.4357011,4.394373,-0.86106443,1.8722242,5.4874787,1.7864754,-4.6257005
830,1715789518.4548953,4.1317673,-0.8600882,1.3948177,6.3261967,0.46211955,-5.3831735
831,1715789518.4570987,3.594841,-0.7883354,0.7519709,6.62491,-0.7724391,-6.455853
832,1715789518.464034,3.2187185,-0.65410393,0.3226437,6.0525293,-0.71685034,-6.879183
833,1715789518.4762251,3.2187185,-0.65410393,0.3226437,5.0488777,-0.11209377,-7.067329
834,1715789518.477429,2.9217007,-0.5149913,0.0019524579,5.0488777,-0.11209377,-7.067329
835,1715789518.483614,2.7772188,-0.40611124,-0.10665302,3.9981894,0.7125743,-7.081379
836,1715789518.505722,3.2070038,-0.59333366,-0.16595893,1.1643856,3.1053336,-6.931717
837,1715789518.5137482,3.4805918,-0.84446853,-0.034900185,0.3488804,4.0973787,-7.049003
838,1715789518.5327587,3.8662329,-1.2415497,0.16498269,-0.14042264,4.9513683,-7.4002504
839,1715789518.5646167,3.8662329,-1.2415497,0.5225571,-0.18379408,5.4431148,-7.752109
840,1715789518.566143,4.1034565,-2.6476245,0.62994224,2.0556378,6.013052,-8.793023
841,1715789518.5779614,4.163007,-2.7894218,0.5320753,2.0556378,6.013052,-8.793023
842,1715789518.57899,4.163007,-2.7894218,0.5320753,2.9994247,5.6563067,-8.808295
843,1715789518.586276,4.1961985,-2.8511682,0.42002252,3.7623954,5.2732944,-8.803408
844,1715789518.5892808,4.168376,-2.858002,0.24674188,3.7623954,5.2732944,-8.803408
845,1715789518.5973997,4.168376,-2.858002,0.24674188,4.6921325,4.6917505,-8.809517
846,1715789518.6003582,4.1246896,-2.849948,0.12690976,4.6921325,4.6917505,-8.809517
847,1715789518.6003582,4.1246896,-2.849948,0.12690976,5.2834496,4.20428,-8.884043
848,1715789518.6128268,4.1246896,-2.849948,0.00976229,5.780083,3.588528,-9.036148
849,1715789518.6148324,4.15422,-2.8223696,0.00976229,5.780083,3.588528,-9.036148
850,1715789518.6273055,4.113463,-2.8138275,-0.08908089,6.0116014,3.062573,-9.2090225
851,1715789518.6432128,4.113463,-2.8138275,-0.08908089,6.1301093,2.4486532,-9.369069
852,1715789518.644198,4.071729,-2.786493,-0.15326795,6.169204,1.9049833,-9.472305
853,1715789518.6559985,4.04952,-2.6300523,-0.1637624,6.1649284,1.2592987,-9.684887
854,1715789518.6910086,3.9011333,-2.5775802,-0.17596528,6.1649284,1.2592987,-9.684887
855,1715789518.6920068,3.3392828,-2.378399,-0.24576566,5.183879,0.1554652,-9.745974
856,1715789518.721628,3.38785,-2.4228175,-0.25040275,5.183879,0.1554652,-9.745974
857,1715789518.7236133,3.1581924,-2.6598275,-0.5274382,3.4502432,0.43951756,-9.934731
858,1715789518.7346473,3.1581924,-2.6598275,-0.5274382,2.680553,1.0070114,-10.2994175
859,1715789518.7662413,2.9243855,-3.00346,-0.4685899,2.680553,1.0070114,-10.2994175
860,1715789518.7682662,-2.9121826,-6.6161175,-1.0106715,3.3665547,1.8958203,-12.466767
861,1715789518.7823474,-2.9121826,-6.6161175,-1.0106715,3.8680751,-2.5647178,-10.155864
862,1715789518.783332,-6.274163,-7.9877496,-0.9369663,4.3158393,-5.7705383,-7.0245686
863,1715789518.7998574,-6.274163,-7.9877496,-0.9369663,4.3158393,-5.7705383,-3.522478
864,1715789518.7998574,-5.1495166,-7.820571,-1.0077429,2.5162303,-2.300213,0.31253394
865,1715789518.816239,-4.918638,-7.2423687,-0.675825,2.5162303,-2.300213,0.31253394
866,1715789518.8172247,-4.918638,-7.2423687,-0.675825,0.9707412,0.6973027,3.892815
867,1715789518.8371656,-4.918638,-7.2423687,-0.675825,0.15645786,1.2550226,6.779764
868,1715789518.8391669,-2.6032062,-6.0686665,-0.40391475,-0.34139732,0.9819659,8.708266
869,1715789518.8514962,0.8088362,-4.432202,-0.43295756,-0.85208064,0.8396343,9.825539
870,1715789518.8592927,0.8088362,-4.432202,-0.43295756,-1.8868864,1.2660183,10.619052
871,1715789518.860693,0.8088362,-4.432202,-0.43295756,-2.5075254,1.5745052,10.663034
872,1715789518.8619008,2.0045033,-3.6953928,-0.29652956,-2.5075254,1.5745052,10.663034
873,1715789518.8769145,2.6097956,-3.2467852,-0.050031736,-2.9552896,1.5079209,10.39181
874,1715789518.8952165,2.6097956,-3.2467852,-0.050031736,-2.9577332,1.1133019,10.085767
875,1715789518.896197,3.373451,-2.4355083,0.8813212,-2.4116197,0.33078352,9.581192
876,1715789518.9094126,3.373451,-2.4355083,0.8813212,-1.3859769,-0.31856623,9.253158
877,1715789518.9107738,3.4110355,-2.2148807,1.200548,-0.546648,-0.40469822,9.239718
878,1715789518.9315426,3.378576,-2.2163448,1.2061614,-0.546648,-0.40469822,9.239718
879,1715789518.933779,3.378576,-2.2163448,1.2061614,1.0189996,0.08582657,9.634949
880,1715789518.9348238,3.3680816,-2.212928,1.1585703,1.0189996,0.08582657,9.634949
881,1715789518.9657106,3.4315362,-2.254662,0.9948079,1.0189996,0.08582657,9.634949
882,1715789518.968242,3.7737353,-2.234161,0.32215557,2.2144628,0.17562376,10.726564
883,1715789518.9780529,3.9916785,-2.2283037,0.059305906,1.9585103,-0.027794369,10.788873
884,1715789518.990287,3.9916785,-2.2283037,0.059305906,1.5070809,-0.1695151,10.804145
885,1715789518.9925742,4.046103,-2.2158568,-0.12983845,1.5070809,-0.1695151,10.804145
886,1715789518.993888,4.088325,-2.242215,-0.2882316,0.73494726,-0.26175576,10.969689
887,1715789519.0080268,4.088325,-2.242215,-0.2882316,0.73494726,-0.26175576,11.392407
888,1715789519.0102036,4.3548355,-2.4496636,-0.38927132,-0.7745008,-0.23548855,11.392407
889,1715789519.0113091,4.3548355,-2.4496636,-0.38927132,-1.793424,0.005192355,11.677071
890,1715789519.0271344,4.3548355,-2.4496636,-0.38927132,-2.999883,0.5476407,12.035038
891,1715789519.0285,4.4575834,-2.6337132,-0.30873242,-2.999883,0.5476407,12.035038
892,1715789519.0473387,4.5508437,-2.7157166,-0.17254847,-3.9711585,0.9825767,12.352688
893,1715789519.0495794,4.793193,-2.645672,0.17938207,-4.7799444,1.625207,12.466309
894,1715789519.0562265,4.793193,-2.645672,0.5601419,-4.7799444,1.625207,12.466309
895,1715789519.0579915,5.104854,-2.2019455,0.5601419,-5.2350388,2.3472497,11.760759
896,1715789519.064699,5.1258426,-1.9539833,0.6296982,-5.270469,2.3588562,11.034441
897,1715789519.0866952,4.853719,-1.5673966,0.6311625,-5.533141,1.597718,9.054626
898,1715789519.0890727,4.6265016,-1.4292297,0.6414129,-5.533141,1.597718,9.054626
899,1715789519.0961518,4.6265016,-1.4292297,0.6414129,-5.533141,0.9935723,8.1120615
900,1715789519.0974474,4.4060874,-1.3220887,0.85886794,-5.6046124,0.9935723,8.1120615
901,1715789519.1096034,3.8935673,-1.029464,1.1749221,-5.6046124,0.9935723,8.1120615
902,1715789519.1110175,3.3258598,-0.66313404,1.3601615,-4.738405,0.1695151,6.8933854
903,1715789519.1243644,3.3258598,-0.66313404,1.3601615,-4.3572254,0.093767814,6.91782
904,1715789519.1269107,3.06301,-0.43027294,1.4272773,-4.3572254,0.093767814,6.91782
905,1715789519.1527553,3.06301,-0.2443013,1.3977463,-4.3572254,0.093767814,6.91782
906,1715789519.1538448,3.535535,0.29384494,1.790465,-3.3315828,-0.636827,6.576957
907,1715789519.1677089,3.535535,0.29384494,1.790465,-2.5783858,-1.4834863,5.9392138
908,1715789519.1686916,4.0522046,0.3607166,1.8795458,-2.5783858,-1.4834863,5.9392138
909,1715789519.1825519,4.0522046,0.3607166,1.8795458,-2.5783858,-2.681393,4.6203556
910,1715789519.1835988,4.857136,0.7329344,1.8175554,-1.1831696,-2.681393,4.6203556
911,1715789519.1930232,4.857136,0.7329344,1.8175554,-0.6999752,-2.7809641,4.2996516
912,1715789519.1948686,4.818331,1.1907858,1.6127913,-0.6999752,-2.7809641,4.2996516
913,1715789519.219828,5.4868035,2.5148573,2.1702182,0.43256894,-2.4065037,5.121265
914,1715789519.2282841,6.7261877,3.4979506,2.1990168,2.1533763,-2.9318478,5.707085
915,1715789519.2348542,7.968469,3.4222624,1.2986591,2.1533763,-2.9318478,5.707085
916,1715789519.23689,7.968469,3.4222624,1.2986591,2.5253932,-3.397938,5.057735
917,1715789519.250457,7.9950714,2.794791,0.01586372,2.5253932,-3.397938,5.057735
918,1715789519.2509627,7.9950714,2.794791,0.01586372,-0.15447254,-1.1340714,-3.4149659
919,1715789519.283906,5.0213866,-0.47664383,0.5127948,-1.7977,0.36071593,-5.089958
920,1715789519.2869127,4.089301,-0.86057633,1.1773627,-4.1812963,5.7149496,-4.4228935
921,1715789519.3092995,4.089301,-0.86057633,1.1773627,-3.4830773,7.1236053,-3.5377498
922,1715789519.3104172,3.793504,-0.58747625,2.319093,-0.9461539,7.2897606,-2.9458213
923,1715789519.3114305,3.850125,-0.43466598,2.0001101,1.6866753,5.744882,-3.1981087
924,1715789519.3506763,3.850125,-0.43466598,2.0001101,1.6866753,5.744882,-5.631185
925,1715789519.3530507,3.614122,-0.4288086,0.697058,4.6915216,-0.70280045,-5.631185
926,1715789519.3634193,3.4478881,-0.42734426,0.43930307,4.2523093,-0.69974613,-6.0196953
927,1715789519.3793275,3.4478881,-0.42734426,0.43930307,3.4447455,0.08582657,-6.201733
928,1715789519.381577,3.3173177,-0.41172457,0.1381364,3.4447455,0.08582657,-6.201733
929,1715789519.389382,3.2004142,-0.47762007,-0.08444381,2.5443301,1.2324207,-6.306802
930,1715789519.396223,3.2004142,-0.47762007,-0.08444381,1.3965143,2.8756483,-6.4369164
931,1715789519.4044585,3.2611845,-0.7085287,0.09396204,1.3965143,2.8756483,-6.4369164
932,1715789519.4060068,3.2611845,-0.7085287,0.09396204,0.33483052,4.577519,-6.7160816
933,1715789519.412552,3.395904,-0.98626584,0.2723679,0.11552989,5.225647,-7.04656
934,1715789519.428281,3.4954793,-1.2649792,0.40562314,0.22182044,5.5274143,-7.3794813
935,1715789519.4463885,3.4954793,-1.2649792,0.40562314,1.2511284,5.36187,-8.157113
936,1715789519.4478562,3.708572,-2.1765635,0.5713685,1.2511284,5.36187,-8.157113
937,1715789519.449308,3.708572,-2.1765635,0.5713685,1.9169714,5.111415,-8.362364
938,1715789519.4643548,3.708572,-2.1765635,0.49446,2.6829965,4.8359146,-8.464378
939,1715789519.467055,3.7273643,-2.4076858,0.49446,2.6829965,4.8359146,-8.464378
940,1715789519.4813814,3.752014,-2.538775,0.42099872,3.319518,4.5744643,-8.464378
941,1715789519.5003033,3.8174214,-2.5917354,0.18182266,4.910211,3.6251798,-8.300666
942,1715789519.5121965,3.8572028,-2.5736752,0.10860548,5.2077026,3.0014863,-8.581664
943,1715789519.5284836,3.8572028,-2.5736752,0.11153416,5.4068446,2.4333818,-8.928024
944,1715789519.5298374,3.733466,-2.5207148,0.11153416,5.4068446,2.4333818,-8.928024
945,1715789519.5425718,3.6011868,-2.5004275,0.110801995,5.4068446,2.4333818,-8.928024
946,1715789519.5435812,3.5633578,-2.4794385,0.07516963,5.4764833,1.5097535,-9.226127
947,1715789519.55209,3.4927945,-2.408906,0.05027579,5.3060517,1.1206323,-9.34891
948,1715789519.571798,3.1342747,-2.1965764,0.050031736,4.9627457,1.498147,-9.139384
949,1715789519.5856109,3.054956,-2.126776,0.064919226,4.85279,1.5861117,-9.053863
950,1715789519.5943542,3.054956,-2.126776,0.064919226,4.7788754,1.5855007,-9.044089
951,1715789519.5955405,2.9382968,-2.1358058,0.09689073,4.7788754,1.5855007,-9.044089
952,1715789519.6070795,2.8418941,-2.2829726,0.08078295,4.7788754,1.5855007,-9.044089
953,1715789519.6094878,2.8418941,-2.2829726,0.08078295,4.8002553,1.5097535,-9.178479
954,1715789519.6109066,2.5399952,-2.5373106,0.048323333,4.8918853,1.4004086,-9.4539795
955,1715789519.6256628,2.118722,-2.9800305,-0.038316987,5.0207777,1.4321736,-9.946337
956,1715789519.6352613,1.4328907,-3.5199156,-0.23819989,5.07881,1.6484199,-10.548039
957,1715789519.6491184,0.14960709,-4.215967,-0.5713685,5.07148,1.7675385,-10.893178
958,1715789519.6642842,0.14960709,-5.0821567,-1.2454547,4.3836455,0.2574797,-9.557827
959,1715789519.667175,-4.1737447,-6.0010624,-1.0660725,3.3463962,-2.0076087,-6.588411
960,1715789519.6851797,-4.1737447,-6.662,-0.86838615,2.871754,-2.2079725,-4.5725555
961,1715789519.6872466,-4.0055895,-6.9299746,-0.6760691,2.4447591,-1.3429873,-2.6599364
962,1715789519.698758,-4.4946804,-6.6971445,-0.48103684,1.946904,0.26236662,0.28871018
963,1715789519.706822,-4.4946804,-6.6971445,-0.48103684,1.7385988,0.8921687,2.1249712
964,1715789519.709296,-4.4070635,-6.4860044,-0.41758195,1.7385988,0.8921687,2.1249712
965,1715789519.7111423,-3.3212228,-6.126996,-0.41977844,1.6439147,1.0296134,4.726035
966,1715789519.7271285,-3.3212228,-6.126996,-0.41977844,1.5987107,0.9459248,5.9813633
967,1715789519.7283008,-2.4416096,-5.805817,-0.47444725,1.5987107,0.9459248,5.9813633
968,1715789519.74105,-2.4416096,-5.420664,-0.55916566,1.5052483,0.94897914,6.9202633
969,1715789519.7430515,-1.9059042,-5.420664,-0.55916566,1.5052483,0.94897914,6.9202633
970,1715789519.7445009,-1.2652233,-4.8739758,-0.71340984,1.2651783,0.9789116,7.86405
971,1715789519.7575116,-0.3018988,-4.2703915,-0.85179025,1.2651783,0.9789116,7.86405
972,1715789519.7599173,-0.3018988,-4.2703915,-0.85179025,0.6524804,0.96669424,9.143202
973,1715789519.7790186,-0.3018988,-4.2703915,-0.85179025,-1.1251374,0.36682457,10.401585
974,1715789519.7797592,1.5886296,-3.370522,-0.777841,-1.1251374,0.36682457,10.401585
975,1715789519.7869399,2.2056062,-3.0481224,-0.5760056,-1.7005725,0.15241088,10.574459
976,1715789519.8152523,2.2056062,-3.0481224,-0.5760056,-1.7005725,-0.1957823,10.691134
977,1715789519.8174045,4.06758,-2.1143289,0.7258568,-2.536236,-0.1957823,10.691134
978,1715789519.8281274,4.3897357,-1.9742401,0.8273846,-2.3621395,0.029626964,10.421132
979,1715789519.8455832,4.475888,-1.8143826,0.73830366,-2.295555,0.559858,9.820041
980,1715789519.8530777,4.475888,-1.8143826,0.73830366,-2.295555,0.559858,9.625786
981,1715789519.8549116,4.3965693,-1.7890006,0.5472069,-2.5838835,0.6026186,9.625786
982,1715789519.882041,4.3965693,-1.7890006,0.5472069,-2.5838835,0.6026186,9.569586
983,1715789519.8835123,4.1571493,-1.598636,0.46224442,-3.488575,0.28313604,9.388159
984,1715789519.8998528,4.1571493,-1.5534854,0.522069,-3.747582,0.1908954,9.262932
985,1715789519.9018736,4.1034565,-1.5129719,0.5979708,-3.8770854,0.008246681,9.004536
986,1715789519.9154582,4.1034565,-1.5129719,0.5979708,-3.7995055,-0.2733622,8.607473
987,1715789519.918438,4.140065,-1.4304501,0.654348,-3.7995055,-0.2733622,8.607473
988,1715789519.9303193,4.110046,-1.3455181,0.6894922,-3.660839,-0.46273044,8.300208
989,1715789519.938143,3.8820968,-1.1278191,0.70218325,-3.4855208,-0.61300325,7.8561087
990,1715789519.9448252,3.5272374,-1.0011533,0.6894922,-3.26622,-0.754724,7.471264
991,1715789519.95226,3.2279925,-0.87204707,0.5723447,-3.2527812,-0.70952,7.2110353
992,1715789519.964024,3.169175,-0.8344623,0.54989153,-3.3462434,-0.56413406,7.0876403
993,1715789519.9794855,3.169175,-0.8344623,0.58527976,-3.4421494,-0.18112154,6.8884983
994,1715789519.9807663,3.1347628,-0.7514828,0.58527976,-3.4421494,-0.18112154,6.8884983
995,1715789519.982967,3.0530035,-0.64385355,0.62603736,-3.4421494,-0.18112154,6.8884983
996,1715789519.9841213,3.0530035,-0.64385355,0.62603736,-3.4152713,0.082161374,6.696076
997,1715789519.9941075,3.0530035,-0.4971446,0.5950421,-3.394502,0.15668693,6.5537443
998,1715789519.9957166,2.8567815,-0.4971446,0.5950421,-3.394502,0.15668693,6.5537443
999,1715789520.0192332,2.8567815,-0.4971446,0.5950421,-3.394502,0.15668693,6.362543
1000,1715789520.020255,2.7044897,-0.20403185,0.80541945,-3.2704961,-0.7663304,6.362543
