id,timestamp,acc_x,acc_y,acc_z,gyro_x,gyro_y,gyro_z
0,1715789466.977717,0.183287,0.44735694,0.95014536,0.4545601,-0.5342017,-0.103465304
1,1715789466.996217,0.3973252,0.37682438,0.86570156,0.7092909,-0.49938235,-0.122402124
2,1715789467.0046275,0.5955302,0.24698594,0.86106443,0.65919995,-0.75716746,-0.39240456
3,1715789467.012837,0.76270944,0.21672285,0.78101367,0.62621325,-1.0906999,-0.73204565
4,1715789467.0426044,0.91622144,0.19036464,0.5625825,0.62621325,-1.0906999,-0.73204565
5,1715789467.0439186,0.63799614,0.40196228,0.32898918,-0.6669885,-2.3154848,0.23861924
6,1715789467.0532563,1.1485639,0.2660224,0.12715383,-1.1318569,-3.134655,-0.26045766
7,1715789467.080911,1.0921867,0.18841219,0.50010383,-0.8838456,-3.239724,-1.4620296
8,1715789467.0964725,0.884494,-0.11519502,0.5701482,1.7269924,-2.681393,-2.3722188
9,1715789467.1037085,1.0040821,-0.30751213,0.4283205,3.5540903,-2.712547,-2.8603
10,1715789467.1369421,1.0040821,-0.30751213,0.4283205,3.5540903,-2.712547,-2.3826036
11,1715789467.1392155,0.05418071,-0.96259224,-0.473227,6.1301093,-5.9709024,-2.3826036
12,1715789467.1472237,-0.5247536,-1.0619236,-0.6838789,6.2693863,-6.8988066,-1.0460304
13,1715789467.1485705,-0.5247536,-1.0619236,-0.6838789,5.9169173,-7.102225,0.71509415
14,1715789467.150269,-0.8002942,-1.1280631,-0.8757079,5.9169173,-7.102225,0.71509415
15,1715789467.1748035,-0.8002942,-1.1280631,-0.8757079,5.2034264,-7.136433,2.3668737
16,1715789467.177132,-0.7783291,-1.1407541,-1.0040821,5.2034264,-7.136433,2.3668737
17,1715789467.179143,-0.6306744,-1.1800473,-0.8964527,4.5601854,-7.168198,3.6967273
18,1715789467.1985707,-0.6306744,-1.1800473,-0.8964527,2.9358947,-6.2360177,6.4932685
19,1715789467.2010047,0.4234393,-0.9901707,-0.42978483,2.9358947,-6.2360177,6.4932685
20,1715789467.2146611,2.0169501,-0.39146784,-0.7082847,-0.12148582,-3.9538252,7.076645
21,1715789467.2290163,2.5578115,0.034168016,-0.42051062,-1.4238505,-3.0344732,6.7431126
22,1715789467.24535,2.5578115,0.034168016,-0.25894472,-3.3279176,-1.3918564,6.0619974
23,1715789467.247292,2.5673296,0.9184179,0.7231721,-5.1831155,0.03390302,5.497558
24,1715789467.2623272,2.5673296,1.5583665,2.3239741,-5.0694942,0.68936145,4.972825
25,1715789467.2636342,2.5846577,1.5583665,2.3239741,-5.0694942,0.68936145,4.972825
26,1715789467.2800062,3.1489182,3.4820564,3.0102935,-0.37927097,0.9728029,2.0308979
27,1715789467.319336,3.2555711,3.9148004,2.8999798,0.62804586,0.9624182,0.5697082
28,1715789467.3212683,3.1664903,4.224997,2.8806992,1.5767195,1.2140946,-1.0948995
29,1715789467.3238702,3.318538,3.921146,2.3603387,2.6347382,1.539075,-3.600669
30,1715789467.3357067,3.3226867,3.6997857,2.045749,2.7135398,1.7046194,-4.5756097
31,1715789467.3479478,3.6172945,3.42031,1.8993145,2.7135398,1.7046194,-4.5756097
32,1715789467.3490674,3.6172945,3.42031,1.8993145,2.5559366,2.0015,-5.910961
33,1715789467.3626046,4.4744234,2.8130953,2.182421,1.9078085,2.155438,-7.5822883
34,1715789467.3759928,4.725589,2.472849,2.472849,2.0293708,2.2262983,-8.248132
35,1715789467.4005485,4.4383035,0.4720067,2.560008,5.010393,2.2036965,-9.744141
36,1715789467.418804,4.4383035,0.4720067,2.560008,6.5015154,1.4822645,-10.051406
37,1715789467.4212196,4.3643537,-0.28359452,2.3657079,6.5015154,1.4822645,-10.051406
38,1715789467.4337585,4.3643537,-0.28359452,2.3657079,7.5045557,0.93431836,-10.203511
39,1715789467.4361222,3.567263,-1.6406139,1.5498245,8.678638,0.06566802,-10.245661
40,1715789467.4586873,3.567263,-1.6406139,1.5498245,8.678638,-2.3167064,-8.461324
41,1715789467.4606879,2.008408,-2.4115906,0.23136626,7.8386993,-2.3167064,-8.461324
42,1715789467.4630606,1.4465579,-2.298104,-0.11495096,7.8386993,-2.3167064,-8.461324
43,1715789467.4853928,0.94257957,-2.4106145,-0.5386648,4.541249,-2.8377745,-6.885291
44,1715789467.4985723,0.94257957,-2.4106145,-0.5386648,4.541249,-1.9996674,-5.9451694
45,1715789467.500974,0.7361072,-2.6547022,-0.113974735,1.7129425,-1.9996674,-5.9451694
46,1715789467.502249,0.38658667,-3.0622778,0.68753976,0.28901562,-0.29657507,-5.2958198
47,1715789467.5335045,-1.6864966,-4.639925,0.52768224,-0.07994699,1.5103643,-2.4192555
48,1715789467.5477035,-1.6864966,-4.639925,0.15888128,-0.07994699,1.5103643,-2.4192555
49,1715789467.5491796,-2.2588108,-4.9957604,0.15888128,-0.13370313,0.8023715,0.94722295
50,1715789467.5515318,-2.025736,-5.1722136,-0.024649782,-0.29313895,0.5488624,3.476816
51,1715789467.571505,-1.2718128,-5.189542,-0.16742326,-0.5942955,0.5030475,5.906838
52,1715789467.6065845,1.0924308,-4.0058336,-0.31898284,-1.5576301,-0.29901853,10.547581
53,1715789467.6289105,1.7289624,-3.5557919,-0.36803833,-1.74822,-0.890947,10.919598
54,1715789467.631067,2.1175015,-3.2318976,-0.4183141,-1.9858465,-1.0613784,11.025888
55,1715789467.637105,2.293467,-2.940005,-0.38268176,-2.939407,-0.30207285,11.7760315
56,1715789467.6435068,2.293467,-2.940005,-0.19597797,-2.939407,-0.30207285,11.7760315
57,1715789467.6460493,2.4023166,-2.666417,-0.19597797,-2.939407,-0.30207285,11.7760315
58,1715789467.6632984,3.011514,-2.5443883,0.10543273,-3.1965814,-0.3051272,12.239067
59,1715789467.6651108,4.4807687,-2.2358694,0.379509,-3.0438652,-0.5653558,11.773587
60,1715789467.6840394,5.6103272,-1.6647754,0.51011014,-2.7433195,-0.6221663,10.45473
61,1715789467.6853242,5.7765303,-0.79736555,0.34729347,-2.75065,-0.6789767,9.159084
62,1715789467.6963563,5.040911,0.05418071,-0.19378147,-4.194124,-0.559858,9.182908
63,1715789467.7131722,5.040911,0.05418071,-0.19378147,-6.058485,0.30085114,9.552482
64,1715789467.7156,5.5905585,0.24796216,0.24112856,-7.6711693,1.0259482,9.726578
65,1715789467.72737,5.5905585,0.39781332,1.0321486,-8.507444,0.8720101,9.957485
66,1715789467.729047,5.776774,0.39781332,1.0321486,-8.507444,0.8720101,9.957485
67,1715789467.7498474,5.776774,0.39781332,1.0321486,-8.507444,0.36682457,9.716193
68,1715789467.7523484,6.2602515,2.1253114,4.507646,-0.90461504,-1.4059063,7.7308817
69,1715789467.7755256,5.9717755,2.7174249,3.3253715,-0.90461504,-1.4059063,7.7308817
70,1715789467.7776744,5.340369,3.0781415,1.9703352,3.2107842,-1.2654073,4.930064
71,1715789467.786512,4.5825715,3.3002336,0.70535594,2.93956,-0.3539964,3.3974035
72,1715789467.806566,3.8925912,3.4176252,0.0873725,2.93956,-0.3539964,3.3974035
73,1715789467.8089175,3.4437394,3.4940455,-0.07516963,1.1106293,1.2379184,0.597808
74,1715789467.8327253,2.4213529,3.1620972,-0.8220153,-0.024358252,0.68569624,-3.2243757
75,1715789467.8511324,1.8639262,2.5631807,-0.32606047,-0.57230437,-0.26175576,-5.753358
76,1715789467.8667998,1.7987629,2.3644876,-0.12544543,-0.57230437,-0.26175576,-5.753358
77,1715789467.8689587,1.7987629,2.3644876,-0.12544543,-0.25221097,-0.82924956,-6.726466
78,1715789467.8890822,1.9127377,2.045749,-0.06955632,0.46250135,-1.8536706,-7.9720206
79,1715789467.9041505,1.9127377,2.045749,-0.06955632,0.46250135,-1.674687,-8.292725
80,1715789467.9071276,2.404757,2.0642972,-0.011714748,0.5987243,-1.1597277,-8.488202
81,1715789467.930267,2.404757,2.0642972,-0.011714748,0.6915758,-0.5354234,-9.216964
82,1715789467.931512,3.509421,2.0869946,0.12666571,0.55352026,-0.26542094,-9.809504
83,1715789467.9619246,4.5781784,1.7670356,0.18353106,0.32872185,0.14385876,-10.330571
84,1715789467.9642773,5.253485,1.2542408,0.4966565,0.5492442,0.569021,-11.210828
85,1715789467.992487,5.3625784,1.0175052,0.6231087,0.5492442,0.569021,-11.210828
86,1715789467.994812,5.3625784,1.0175052,0.6231087,0.8058076,0.5158757,-11.4454
87,1715789467.9966986,5.4955897,0.25772443,0.6675271,1.1283444,0.2611449,-11.896219
88,1715789468.0029497,5.4955897,0.25772443,0.6675271,1.3818536,0.06566802,-11.880337
89,1715789468.0052235,5.0516496,-0.42124277,0.84715325,1.3818536,0.06566802,-11.880337
90,1715789468.0147378,4.755608,-0.96966994,1.050697,1.8137352,-0.14202617,-11.783209
91,1715789468.0389395,4.755608,-0.96966994,1.050697,1.8137352,-0.14202617,-11.624384
92,1715789468.0403302,3.722727,-1.8141385,1.118789,2.8277717,-0.473726,-11.303069
93,1715789468.0426662,2.9927216,-2.1074953,0.86618966,2.8277717,-0.473726,-11.303069
94,1715789468.0447578,2.9927216,-2.1074953,0.86618966,3.034244,-0.5830709,-10.701978
95,1715789468.0595553,2.9927216,-2.1074953,0.86618966,2.5870907,-0.55741453,-9.494297
96,1715789468.0608041,1.5844806,-2.3683927,0.47151858,2.5870907,-0.55741453,-9.494297
97,1715789468.0631883,1.5844806,-2.3683927,0.47151858,1.9633973,-0.32406402,-8.530962
98,1715789468.078045,1.1065861,-2.57636,0.5044969,1.135064,0.12003502,-7.535863
99,1715789468.085787,1.1065861,-2.57636,0.5044969,0.56757015,0.4633413,-6.9793644
100,1715789468.0880919,0.85837984,-2.9890606,0.55037963,0.56757015,0.4633413,-6.9793644
101,1715789468.1003933,0.85837984,-2.9890606,0.55037963,0.56757015,1.7003434,-6.020306
102,1715789468.1034229,0.18816814,-3.8220587,0.61285824,-0.18745928,1.7003434,-6.020306
103,1715789468.104765,-0.88327366,-4.4402556,0.60041136,-0.29863673,2.5360072,-4.816291
104,1715789468.117105,-0.88327366,-4.4402556,0.3648656,-0.06895141,2.2989914,-2.4174228
105,1715789468.1194136,-2.2278156,-4.972331,0.3648656,-0.06895141,2.2989914,-2.4174228
106,1715789468.1355321,-2.9966264,-5.295219,0.048567392,0.23098342,1.1835514,0.6362925
107,1715789468.137365,-3.029818,-5.382835,-0.27602875,0.29512426,0.20738874,3.675958
108,1715789468.1472714,-3.029818,-5.2307873,-0.6475144,-0.2693152,0.129198,7.683234
109,1715789468.1498187,-1.8563606,-5.2307873,-0.6475144,-0.2693152,0.129198,7.683234
110,1715789468.151849,-0.41245672,-4.9083877,-0.7004748,-0.2693152,0.129198,7.683234
111,1715789468.1534164,-0.41245672,-4.9083877,-0.7004748,-1.2076043,0.80664754,10.101039
112,1715789468.1625175,0.8534987,-4.5918455,-0.5611181,-2.2723424,1.3845261,11.802909
113,1715789468.2024457,2.9109623,-3.379064,-0.14204131,-3.338913,1.044885,12.521287
114,1715789468.2044463,3.1830862,-2.8343284,0.05686534,-3.3492978,-0.38759398,11.603767
115,1715789468.2243154,3.1830862,-2.8343284,0.05686534,-3.3492978,-1.751656,10.182283
116,1715789468.2273211,3.258988,-1.8483065,0.35925224,-2.1086304,-1.751656,10.182283
117,1715789468.2340956,3.258988,-1.5852128,0.45174995,-2.1086304,-1.751656,10.182283
118,1715789468.2359586,3.1735678,-1.5852128,0.45174995,-1.4214071,-2.195755,9.746737
119,1715789468.27047,3.3258598,-1.2796227,0.42197496,-1.4214071,-2.195755,9.746737
120,1715789468.272845,3.899181,-0.38463423,-0.09152147,1.5150222,-3.5921931,8.357018
121,1715789468.2749772,4.1149273,0.15839316,-0.41929033,1.5150222,-3.5921931,8.357018
122,1715789468.2842975,4.096379,0.6816824,-0.58430356,1.2682326,-3.0876184,8.523173
123,1715789468.3120356,4.096379,1.3730966,-0.7168266,1.2682326,-3.0876184,8.523173
124,1715789468.3141382,5.0030823,1.8839389,-0.9128046,-1.8862755,0.06688975,9.2342205
125,1715789468.3332381,5.190518,2.1214066,-0.42587993,-2.7158306,0.18967366,8.7479725
126,1715789468.3419373,5.190518,2.5722108,0.39805737,-2.7158306,0.18967366,8.7479725
127,1715789468.3440292,4.9884386,2.5722108,0.39805737,-2.7158306,0.18967366,8.7479725
128,1715789468.3463438,4.9884386,2.5722108,0.39805737,-2.7848582,0.113926366,8.186587
129,1715789468.366004,4.5257063,3.0754569,1.2215371,-0.14225525,0.3484986,5.1365366
130,1715789468.3791149,3.8869777,3.373695,0.92037046,1.4215598,0.013744468,4.3894486
131,1715789468.3873847,3.7249238,3.5150347,0.40318257,2.6011405,-0.40286562,3.5366807
132,1715789468.3962867,3.6495101,3.6680584,-0.58503574,2.6011405,-0.40286562,3.5366807
133,1715789468.3982491,3.6495101,3.6680584,-0.58503574,2.580982,-0.23915374,2.243479
134,1715789468.405314,3.6495101,3.6680584,-0.58503574,1.2010374,0.46944994,0.5929211
135,1715789468.4077492,3.2580116,3.763485,-1.2869444,1.2010374,0.46944994,0.5929211
136,1715789468.415495,2.7374375,3.6795292,-1.3013438,-0.07689266,0.91415983,-0.4742605
137,1715789468.4464047,2.3679044,3.4622874,-1.0582627,-0.07689266,0.91415983,-0.4742605
138,1715789468.447641,1.9959611,2.9773457,-0.6131023,-1.2045499,0.33750305,-3.3251686
139,1715789468.4680417,1.9959611,2.679596,-0.56624335,-1.1996629,0.19883664,-4.6073747
140,1715789468.470883,1.7301829,2.679596,-0.56624335,-1.1996629,0.19883664,-4.6073747
141,1715789468.4961038,1.7301829,2.6222427,-0.5708804,-1.335275,0.31245756,-5.1608186
142,1715789468.4983692,2.3686366,2.6424994,-0.53280747,-1.5924493,0.84635377,-6.523048
143,1715789468.5215242,2.845799,2.696192,-0.3807293,-1.4849371,1.026559,-7.245091
144,1715789468.5239213,4.090277,2.4162278,-0.051007964,-1.0854312,1.0503827,-8.24691
145,1715789468.5359657,4.090277,2.4162278,-0.051007964,-0.682871,1.0167851,-9.025152
146,1715789468.5380626,4.4444046,1.9615492,-0.011470691,0.0067958757,1.0149527,-10.128375
147,1715789468.545967,4.4756436,1.5312762,-0.043198135,0.5785657,1.1316279,-10.855305
148,1715789468.565143,4.705088,1.0218983,-0.032703668,0.9884563,1.3387111,-11.26214
149,1715789468.5671437,4.705088,1.0218983,-0.032703668,1.3671927,1.38025,-11.598727
150,1715789468.5685315,4.86763,0.49470404,0.051252022,1.3671927,1.38025,-11.598727
151,1715789468.5820866,4.995028,-0.6787537,0.379509,1.8754326,1.0900891,-11.856513
152,1715789468.5841696,4.995028,-0.6787537,0.379509,2.2743278,0.8017606,-12.008618
153,1715789468.5985446,4.995028,-0.6787537,0.379509,3.02447,0.25381452,-12.126515
154,1715789468.6000063,4.7024035,-1.5715456,0.58820844,3.02447,0.25381452,-12.126515
155,1715789468.6023464,4.284303,-1.9717995,0.61822754,3.02447,0.25381452,-12.126515
156,1715789468.603744,4.284303,-1.9717995,0.61822754,3.5583663,-0.23915374,-11.864454
157,1715789468.611584,3.9555578,-2.2983482,0.64360946,3.8399754,-0.72356987,-11.461283
158,1715789468.640462,3.9555578,-2.2983482,0.64360946,3.207119,-1.2721269,-10.313467
159,1715789468.6427712,2.2837045,-2.8143158,0.52328926,2.4850762,-0.93737274,-9.515066
160,1715789468.6641529,1.5029656,-2.9753933,0.5916253,0.030008756,0.31306845,-7.897495
161,1715789468.6795726,1.5029656,-2.9753933,0.5657552,-1.0035752,1.1096367,-7.4924912
162,1715789468.6815338,0.11592719,-4.5793986,0.5657552,-1.0035752,1.1096367,-7.4924912
163,1715789468.688541,-1.3516195,-5.332559,0.6138345,-1.5197563,1.5543466,-6.386825
164,1715789468.6949208,-3.700518,-6.156527,0.456143,-1.8593974,0.78954333,-2.6214519
165,1715789468.7158763,-3.700518,-6.156527,0.456143,-1.8593974,0.78954333,7.2715106
166,1715789468.7178798,-3.5631137,-6.2844133,0.25162303,-1.1263591,-1.2409728,7.2715106
167,1715789468.7378862,-0.863261,-5.8050847,-0.020988923,-1.326723,-0.040011674,12.393616
168,1715789468.7974281,-0.863261,-5.8050847,-0.020988923,-1.326723,-0.040011674,13.570143
169,1715789468.8004267,4.4358625,-2.3034732,-0.30848834,-2.8337276,-1.6417004,12.78518
170,1715789468.8025277,4.815158,-1.7997391,-0.05198419,-3.0957887,-1.6557503,11.613541
171,1715789468.8185022,4.815158,-1.4314263,0.21550256,-2.7732518,-1.74738,10.603781
172,1715789468.820711,4.6855636,-1.4314263,0.21550256,-2.7732518,-1.74738,10.603781
173,1715789468.8269625,4.1117544,-1.2649792,0.5215808,-1.9662988,-1.8054122,9.964205
174,1715789468.835692,4.1117544,-1.2649792,0.5215808,-1.9662988,-1.8054122,10.275746
175,1715789468.8367085,3.6373072,-1.152957,0.7512387,-1.0096838,-2.0491474,10.275746
176,1715789468.8492413,3.551399,-0.92037046,0.68534327,0.15706873,-2.595261,11.27451
177,1715789468.8645144,4.2408605,-0.29116032,0.32020313,0.15706873,-2.595261,11.27451
178,1715789468.866883,6.070131,0.5979708,-0.37121108,0.81985754,-1.6966782,12.889639
179,1715789468.8794222,6.070131,0.5979708,-0.37121108,0.81985754,-1.6966782,11.508472
180,1715789468.881954,7.3553667,1.2796227,-0.8390993,-0.47639853,-0.38881573,11.508472
181,1715789468.8888226,7.3553667,1.2796227,-0.6589851,-1.7653242,0.4541783,9.716193
182,1715789468.8911095,7.550155,1.8292701,-0.6589851,-1.7653242,0.4541783,9.716193
183,1715789468.8931212,6.8948307,2.7738023,0.0993313,-2.8538861,0.9819659,7.1670527
184,1715789468.9022465,6.8948307,2.7738023,0.0993313,-2.6113725,0.5103779,5.430974
185,1715789468.9054017,5.738945,3.1142619,0.94916916,-2.6113725,0.5103779,5.430974
186,1715789468.9130762,5.085573,3.1850386,1.3462503,-1.7341701,-0.23854288,4.440761
187,1715789468.9461231,4.7107015,3.3470926,1.3972582,-0.58146733,-0.5177083,3.339982
188,1715789468.9481409,3.8935673,3.493039,0.33997175,0.48204905,0.24709499,0.5953645
189,1715789468.9546478,3.0354314,3.4893782,-0.2762728,0.48204905,0.24709499,0.5953645
190,1715789468.9562452,3.0354314,3.4893782,-0.2762728,-0.10132727,0.8384125,-0.7589237
191,1715789468.9811223,3.0354314,3.4893782,-0.2762728,-0.94187784,1.2464706,-1.7497472
192,1715789468.9824164,2.4543006,3.25972,-0.2438132,-0.94187784,1.2464706,-1.7497472
193,1715789468.984448,2.6056468,3.2187185,-0.060770255,-0.8087092,1.1090258,-2.4094815
194,1715789468.9983613,2.7064424,3.1923604,-0.08908089,-0.57169354,0.7180721,-3.0783792
195,1715789469.0006795,2.7064424,3.1923604,-0.08908089,-0.58513254,0.0015271631,-4.1412845
196,1715789469.0027037,2.7337768,3.1259766,-0.23258655,-0.58513254,0.0015271631,-4.1412845
197,1715789469.028449,2.8826518,2.9807627,-0.15741692,-0.58513254,0.0015271631,-4.1412845
198,1715789469.0304368,2.8623948,2.7689211,0.08517598,-1.1959978,0.4700608,-5.8559833
199,1715789469.0373352,2.8623948,2.7689211,0.08517598,-1.1562916,1.0241156,-6.391712
200,1715789469.0383165,2.7042458,2.5834374,0.43637437,-1.1562916,1.0241156,-6.391712
201,1715789469.0519738,2.699853,2.3857205,0.88986325,-1.1562916,1.0241156,-6.391712
202,1715789469.0540197,2.9031525,2.2068267,1.135873,0.5687919,1.9263636,-7.394753
203,1715789469.072446,3.2377548,2.049898,1.1039014,1.9084194,2.0570886,-7.970188
204,1715789469.0903273,4.2484264,1.4724278,0.658497,3.7208567,2.201253,-9.393504
205,1715789469.1043453,4.2484264,0.97381896,0.32386398,3.7208567,2.201253,-9.393504
206,1715789469.1072452,4.5362005,0.22843759,-0.058573738,4.4819946,1.6300939,-11.01474
207,1715789469.113816,4.5174084,-0.307024,-0.15155955,4.4819946,1.6300939,-11.01474
208,1715789469.1160433,4.5174084,-0.307024,-0.15155955,4.3604326,1.3741413,-11.200443
209,1715789469.138152,4.5174084,-0.307024,-0.15155955,4.3604326,1.3741413,-11.199222
210,1715789469.1414287,4.6247935,-1.1737018,0.004148973,3.836921,0.8927795,-11.146076
211,1715789469.1429956,4.5620704,-1.7577612,0.24332508,3.5168276,0.4578435,-10.978088
212,1715789469.1653476,3.7080839,-2.4289188,0.4978768,2.9279535,0.01740966,-10.594465
213,1715789469.1964583,1.9796093,-2.7964995,1.047036,1.08986,1.2049317,-8.476595
214,1715789469.2027755,1.9796093,-2.7964995,1.047036,0.7233408,2.2409592,-7.377649
215,1715789469.2046165,1.2417938,-2.8623948,1.3340474,0.7233408,2.2409592,-7.377649
216,1715789469.2145083,0.6475144,-3.088392,1.5161446,0.7233408,2.2409592,-7.377649
217,1715789469.2166073,0.6475144,-3.088392,1.5161446,1.0275517,2.8371637,-6.646443
218,1715789469.225436,0.22672918,-3.6507304,1.2867004,1.0275517,2.8371637,-6.646443
219,1715789469.2279596,0.22672918,-3.6507304,1.2867004,1.3280973,2.7290404,-6.1058273
220,1715789469.2362196,-0.31263736,-4.216455,0.8688744,1.3384821,2.4553728,-5.6824975
221,1715789469.276455,-0.31263736,-4.216455,0.8688744,1.3384821,2.4553728,-4.9653416
222,1715789469.2785075,-4.211086,-5.4289618,-0.8427602,0.59567,-0.6123924,2.47011
223,1715789469.280523,-3.5755608,-5.3842998,-1.2046971,-0.24060455,-1.4511104,6.808475
224,1715789469.2998574,-3.5755608,-5.3842998,-1.2046971,-0.24060455,-1.4511104,12.699048
225,1715789469.3028777,1.6318277,-4.803931,-0.85789174,-5.1171417,0.15302174,15.022779
226,1715789469.3122427,3.1882112,-4.4754,-0.5977267,-6.1751604,-0.39858958,15.170609
227,1715789469.3441575,3.1882112,-4.4754,-0.5977267,-6.616816,-1.3161092,14.485829
228,1715789469.3455067,4.904971,-2.345451,0.5645349,-5.6577578,-3.1267138,11.828566
229,1715789469.3736167,4.6243052,-1.6882051,0.75343525,-5.6577578,-3.1267138,11.828566
230,1715789469.3754225,4.2945533,-1.2230014,0.7656381,-3.3749542,-3.0314188,9.721081
231,1715789469.4191713,4.2945533,-1.2230014,0.7656381,-1.0884855,-2.0717494,8.606862
232,1715789469.421428,3.551887,-0.040513504,-0.21330604,0.009850202,-2.087632,9.019807
233,1715789469.423669,4.7736683,0.7888235,-0.72414833,-0.5069418,-1.8829921,9.873796
234,1715789469.4358652,6.132121,1.3652867,-0.940139,-0.5069418,-1.8829921,9.873796
235,1715789469.4373488,6.132121,1.3652867,-0.940139,-1.4684436,-1.1261301,8.818832
236,1715789469.439437,6.463795,1.9957172,-0.34607318,-2.1177936,-0.8891144,7.215922
237,1715789469.4471283,5.5681047,2.7430508,0.42441553,-2.0353267,-1.0485502,5.5372643
238,1715789469.4591498,4.1664233,2.8760622,0.2186753,-1.9217057,-1.8628336,4.2220716
239,1715789469.481153,4.1664233,2.8760622,0.513771,-2.0579286,-2.386956,4.128609
240,1715789469.4831548,3.7393231,2.8389654,0.513771,-2.0579286,-2.386956,4.128609
241,1715789469.4861567,4.2496467,3.1899197,1.3089095,-1.3419946,-1.221425,2.955137
242,1715789469.5011606,4.1339636,3.4161608,1.1944467,-0.7885507,-0.38637227,1.8824576
243,1715789469.5171752,4.1339636,3.4161608,0.24234885,-0.71035993,-0.16768251,-1.0142654
244,1715789469.5191758,2.9155993,3.3546581,0.24234885,-0.71035993,-0.16768251,-1.0142654
245,1715789469.5306933,2.568306,3.1584363,0.33094162,-1.1062006,-0.063224554,-1.8340465
246,1715789469.5386944,2.395971,3.0469022,0.47884035,-1.2082151,0.37232238,-2.289752
247,1715789469.5476983,2.3312957,3.0898561,0.65141934,-0.9699777,0.90010995,-2.8499155
248,1715789469.5556967,2.4608903,3.1254888,0.5950421,-0.71707946,0.91354895,-3.196276
249,1715789469.568701,2.4608903,3.1254888,0.5950421,-0.49472448,0.90316427,-3.9751291
250,1715789469.5717053,2.7591588,3.1042557,0.311173,-0.49472448,0.90316427,-3.9751291
251,1715789469.5861213,2.9339037,2.9597738,0.073461235,-0.76594865,0.8848383,-5.4149384
252,1715789469.6105118,2.9487913,2.7962554,0.13545178,-0.76594865,0.8848383,-5.4149384
253,1715789469.611783,3.0774093,2.2483163,0.37316352,-1.009073,1.393689,-6.8205395
254,1715789469.6142626,3.0774093,2.2483163,0.37316352,-0.80076796,1.7858646,-7.4796634
255,1715789469.626025,3.0508072,1.9937646,0.44930938,-0.47090074,2.1029036,-7.9091015
256,1715789469.6375694,3.303162,1.3196481,0.4829893,-0.06956228,2.4388795,-8.28906
257,1715789469.6508505,3.4381258,0.8437364,0.42978483,1.4453835,3.0448577,-9.384341
258,1715789469.6635377,3.4381258,0.39830142,0.3328941,2.110005,3.1786373,-9.855318
259,1715789469.666081,3.614122,0.39830142,0.3328941,2.110005,3.1786373,-9.855318
260,1715789469.6790903,3.769586,-0.22819352,0.22916976,2.8595366,3.2959235,-10.3928795
261,1715789469.7009554,3.769586,-0.22819352,0.22916976,2.8595366,3.2281175,-10.674488
262,1715789469.7029412,3.79448,-0.6538599,0.18011424,4.6237154,2.186592,-10.863246
263,1715789469.703939,3.761044,-1.692598,-0.028554698,4.6237154,2.186592,-10.863246
264,1715789469.716959,3.8142488,-1.9844904,-0.17376876,4.8130836,1.642922,-10.720914
265,1715789469.7269757,3.8142488,-1.9844904,-0.17376876,4.8130836,1.1939361,-10.587134
266,1715789469.729297,3.8730667,-2.1934035,-0.27358818,4.734893,1.1939361,-10.587134
267,1715789469.7559915,2.8521445,-2.598813,-0.27212384,3.4642932,0.93554014,-10.448468
268,1715789469.7579942,2.1060312,-2.794303,-0.1867038,3.4642932,0.93554014,-10.448468
269,1715789469.7646894,2.1060312,-2.794303,-0.1867038,3.0372984,1.1389582,-10.284145
270,1715789469.7836149,0.17376876,-3.348557,-0.50742555,2.4893522,1.1780536,-9.899301
271,1715789469.789974,-0.7080406,-3.6990538,-0.5184081,1.7398206,1.0106765,-9.126555
272,1715789469.7971213,-0.7080406,-3.6990538,-0.5184081,0.976239,0.56596667,-7.97874
273,1715789469.8036246,-2.0662498,-4.5855002,-0.77271575,-0.22411118,-0.7816021,-5.5841484
274,1715789469.8127675,-2.0662498,-4.5855002,-0.77271575,-1.5270867,-1.9092593,-2.625117
275,1715789469.8147566,-3.105476,-4.895209,-0.7793053,-1.5270867,-1.9092593,-2.625117
276,1715789469.8260987,-3.7071075,-4.7949014,-0.38756293,-2.472706,-2.363743,0.94477946
277,1715789469.8360133,-3.4312925,-4.691177,-0.036608588,-2.990109,-2.2379048,4.2116866
278,1715789469.8443031,-2.3117712,-4.5652432,0.50742555,-3.0322587,-1.5409076,7.8359504
279,1715789469.8539686,-0.8217713,-4.408772,0.8525225,-2.4543803,-0.7883216,10.860344
280,1715789469.8675718,0.38316986,-4.3253045,0.8261643,-1.7909806,-0.60994893,12.520676
281,1715789469.8760717,1.6781986,-4.101748,0.68119425,-1.0109056,-1.0363328,13.630618
282,1715789469.8840733,1.6781986,-4.101748,0.68119425,-0.51793736,-1.539075,13.9250555
283,1715789469.8870761,2.5011902,-3.836946,0.48567393,-0.51793736,-1.539075,13.9250555
284,1715789469.899078,3.1411083,-3.5277252,0.234539,-0.15813774,-2.0259347,13.989196
285,1715789469.9060793,3.585323,-3.092785,-0.0993313,-0.10865766,-2.1316142,13.93605
286,1715789469.9141033,3.585323,-2.8311555,-0.127886,-0.56802833,-1.593442,14.072273
287,1715789469.916105,3.8598874,-2.8311555,-0.127886,-0.56802833,-1.593442,14.072273
288,1715789469.9366584,3.760556,-2.6188257,0.022453265,-1.6425403,-0.01863139,14.59884
289,1715789469.9476607,4.3697233,-2.516322,0.108117364,-2.1293998,0.4981606,14.663591
290,1715789469.9536622,5.5954394,-1.7575173,-0.13838045,-3.0640237,0.9007208,13.334349
291,1715789469.961664,5.5954394,-1.1466115,0.16229807,-3.7457492,1.022283,11.440666
292,1715789469.963669,5.8089895,-1.1466115,0.16229807,-3.7457492,1.022283,11.440666
293,1715789469.996672,5.8089895,-1.1466115,0.16229807,-3.797673,1.276403,9.747958
294,1715789469.9986744,4.6933737,0.28871974,0.6453179,-3.4452035,0.11026118,8.6245775
295,1715789470.000674,4.260874,0.8739995,2.2944434,-3.4452035,0.11026118,8.6245775
296,1715789470.0026743,4.260874,0.8739995,2.2944434,-0.9376018,-1.8664987,9.026526
297,1715789470.013699,5.027244,1.2837716,2.12824,1.2340242,-2.1981986,8.690551
298,1715789470.0392556,5.4431176,2.5229113,0.58601195,2.8858037,-0.6795876,5.7138042
299,1715789470.0462573,4.9903913,2.9639227,-0.11299851,2.2706625,0.6765333,4.0180426
300,1715789470.0532587,4.214258,3.2848577,-0.7712514,0.5077054,1.8383989,2.3992496
301,1715789470.0612602,3.9189491,3.403226,-0.52450955,-0.5600871,1.6374242,1.4829518
302,1715789470.0812652,3.9536054,3.3639326,0.009030119,-0.7775551,0.87689704,0.39438987
303,1715789470.09927,3.9631233,3.3368423,0.046614934,0.10331258,0.3295618,-1.70943
304,1715789470.1012707,3.9631233,3.3368423,0.046614934,0.16317739,0.2770274,-3.1791718
305,1715789470.1032698,3.806927,3.1896758,-0.5718566,0.16317739,0.2770274,-3.1791718
306,1715789470.1298501,3.806927,3.1896758,-0.5718566,0.16317739,0.2770274,-5.082628
307,1715789470.1318505,3.327568,2.8287148,-1.1073182,-1.2155455,0.42730024,-5.082628
308,1715789470.1388521,3.327568,2.7027814,-0.7668584,-1.2155455,0.42730024,-5.082628
309,1715789470.1408525,3.8935673,2.5539064,-0.20964517,-1.6046666,0.33078352,-5.4607534
310,1715789470.143854,3.8935673,2.5539064,-0.20964517,-1.4531721,-0.043676864,-6.2304435
311,1715789470.1538541,3.8935673,2.5539064,-0.20964517,-1.0933725,-0.42363504,-7.013573
312,1715789470.1558588,4.003881,2.4023166,-0.0019524579,-1.0933725,-0.42363504,-7.013573
313,1715789470.1628563,4.003881,2.2861452,0.036608588,-0.90705854,-0.52931476,-7.6103883
314,1715789470.164857,4.0092506,2.2861452,0.036608588,-0.90705854,-0.52931476,-7.6103883
315,1715789470.1818616,3.9118717,2.0823574,0.08053889,-0.918665,-0.5335908,-8.136954
316,1715789470.1888633,3.8215706,1.8788137,0.19548985,-0.9406561,-0.39553526,-8.548677
317,1715789470.200866,3.8215706,1.8788137,0.19548985,-0.7176903,0.24770586,-9.203525
318,1715789470.2028663,3.5716558,1.3279461,0.4807928,-0.7176903,0.24770586,-9.203525
319,1715789470.2038667,3.3397708,1.0741265,0.5801546,-0.49533537,0.4822781,-9.405722
320,1715789470.2138932,3.3397708,1.0741265,0.5801546,0.05627596,0.8347474,-9.672058
321,1715789470.216957,3.0085852,0.6323828,0.7346428,0.05627596,0.8347474,-9.672058
322,1715789470.2228951,2.568794,0.1666911,0.85032594,0.8870527,1.112691,-9.777739
323,1715789470.2394488,2.568794,0.1666911,0.85032594,2.730644,1.3112222,-9.25606
324,1715789470.2414494,1.8736885,-0.7612451,0.86838615,2.730644,1.3112222,-9.25606
325,1715789470.2524521,1.9371434,-0.9652769,0.78906757,3.4361935,1.3613132,-8.732548
326,1715789470.279458,2.816024,-1.2952423,0.509378,4.126471,1.2660183,-8.1522255
327,1715789470.2864594,2.816024,-1.5078467,0.38487828,4.126471,1.2660183,-8.1522255
328,1715789470.2894602,3.242148,-1.5078467,0.38487828,4.0831,1.2544118,-8.272566
329,1715789470.3124654,3.242148,-2.8384771,0.46810177,3.4490216,2.31915,-9.777739
330,1715789470.31449,3.3612478,-2.8384771,0.46810177,3.4490216,2.31915,-9.777739
331,1715789470.3290453,3.3612478,-2.8384771,0.46810177,3.4490216,2.7809641,-10.256045
332,1715789470.3310454,2.811387,-3.182842,0.51791996,3.5357645,2.7809641,-10.256045
333,1715789470.3470492,2.811387,-3.182842,0.51791996,3.678096,3.080288,-10.606071
334,1715789470.3490498,0.90743536,-4.118588,0.067359805,3.760563,3.242778,-10.858358
335,1715789470.355051,-0.86472535,-4.628454,-0.54354596,3.334179,2.9281826,-10.01903
336,1715789470.3820572,-4.978432,-4.5762258,-1.8214604,1.0006737,0.37048978,-3.6470945
337,1715789470.3890588,-4.978432,-4.5762258,-1.8214604,1.0006737,0.37048978,-0.42478043
338,1715789470.3920593,-4.8808093,-4.3916883,-1.6059577,0.0055741454,-0.69974613,-0.42478043
339,1715789470.3993416,-3.204807,-3.7932599,-1.050697,-2.6339746,-0.39370266,6.694243
340,1715789470.4060624,-1.7926615,-3.319514,-0.63848424,-2.6339746,-0.39370266,6.694243
341,1715789470.413088,-1.7926615,-2.9597738,-0.082003236,-3.4280994,0.032070424,7.8304524
342,1715789470.4150887,-0.5481831,-2.9597738,-0.082003236,-3.4280994,0.032070424,7.8304524
343,1715789470.4316423,0.40220633,-2.7081506,0.36681804,-3.6406806,0.16768251,8.145048
344,1715789470.434643,0.82445586,-2.509,0.59357774,-3.6406806,0.16768251,8.145048
345,1715789470.4356434,0.82445586,-2.509,0.59357774,-3.3877823,0.061391957,7.9996624
346,1715789470.4606488,0.8222594,-2.2712579,0.6472703,-3.3877823,0.061391957,7.9996624
347,1715789470.4626493,0.5799105,-2.1890104,0.4595598,-2.4720953,-1.0326678,9.386326
348,1715789470.4636495,0.5911371,-2.2258632,0.34290043,-2.4720953,-1.0326678,9.386326
349,1715789470.4836538,0.81225306,-2.327879,0.33899552,-2.5105798,-1.2379184,10.5677395
350,1715789470.4856548,1.1348966,-2.4584496,0.35607952,-2.5942683,-1.2232577,11.669129
351,1715789470.497481,1.7855839,-2.6129684,0.4170938,-2.699948,-1.153619,12.668506
352,1715789470.5094838,2.9038846,-2.6676373,0.5032766,-2.7646997,-1.0198395,13.53349
353,1715789470.512484,2.9038846,-2.6676373,0.5032766,-2.7372108,-1.040609,13.379553
354,1715789470.5135086,3.7593358,-2.6039383,0.47981656,-2.7372108,-1.040609,13.379553
355,1715789470.5380661,4.2867436,-2.3776667,0.4983649,-2.7372108,-1.040609,13.379553
356,1715789470.5390663,4.2867436,-2.3776667,0.4983649,-2.6339746,-1.0503827,12.5915365
357,1715789470.5410671,4.5532846,-2.1153052,0.57795805,-2.4427738,-1.0827587,11.703339
358,1715789470.5430684,4.5689044,-1.7938818,0.6253052,-2.4427738,-1.0827587,11.703339
359,1715789470.5500686,4.5689044,-1.7938818,0.6253052,-2.4427738,-1.0827587,10.73756
360,1715789470.5530696,3.7915516,-1.4341109,0.37169918,-1.6822466,-0.745561,9.863412
361,1715789470.5901358,3.7915516,-1.1856606,-0.0776102,-2.0689242,-0.08093964,10.494436
362,1715789470.5930786,3.535535,-0.99505186,-0.65239555,-4.591798,1.0589349,12.350855
363,1715789470.605081,4.3179827,-0.8625288,-0.11861181,-4.591798,1.0589349,12.350855
364,1715789470.6070817,6.070375,-0.1803583,1.0026177,-5.1140876,0.6105598,10.835299
365,1715789470.6366625,6.070375,-0.1803583,1.0026177,-1.9467512,0.52564955,2.97835
366,1715789470.638663,5.548825,2.3029852,0.40220633,-1.9467512,0.52564955,2.97835
367,1715789470.650666,4.708505,2.387429,-0.37609223,-1.9467512,0.52564955,2.97835
368,1715789470.652666,3.6587842,2.263692,-0.22794947,-3.0023263,0.60994893,1.409648
369,1715789470.6546667,3.6587842,2.263692,-0.22794947,-5.352936,1.1652255,-0.033826664
370,1715789470.678672,3.584835,1.867099,0.70315945,-6.303442,1.575116,-0.5567273
371,1715789470.6806724,3.665618,1.7580053,1.4497305,-5.96319,2.0418172,-1.0692433
372,1715789470.691675,3.688071,1.9617932,1.8910165,-5.96319,2.0418172,-1.0692433
373,1715789470.6946757,3.7373707,2.1306808,2.0650294,-3.7671297,1.8891008,-2.4693463
374,1715789470.713704,3.7373707,2.2190294,1.8226806,-3.7671297,1.8891008,-2.4693463
375,1715789470.7147043,3.5967934,2.0386713,1.4694992,-0.7005861,1.5451837,-4.949459
376,1715789470.7332609,3.5967934,1.7619102,1.089258,0.26213756,1.4492778,-5.951278
377,1715789470.7362614,3.3351338,1.7619102,1.089258,0.26213756,1.4492778,-5.951278
378,1715789470.7482636,3.3351338,1.7619102,1.089258,0.67141724,1.3381003,-6.0850577
379,1715789470.7502644,3.3178058,1.6528167,1.050697,0.67141724,1.3381003,-6.0850577
380,1715789470.7572663,3.5601852,1.658674,1.0260471,1.1839333,0.98624194,-6.2640414
381,1715789470.7702687,3.7083278,1.6689246,1.0311724,1.1839333,0.98624194,-6.2640414
382,1715789470.7722695,3.7083278,1.6689246,1.0311724,1.488755,0.6771441,-6.545039
383,1715789470.778271,3.7539663,1.5905821,1.0448396,1.7544813,0.6068946,-7.035564
384,1715789470.7962747,3.5233324,1.2930459,1.0138444,1.9603429,1.1169671,-7.757607
385,1715789470.819304,3.5233324,1.2930459,1.0138444,2.3103688,1.9324722,-8.454604
386,1715789470.8223007,2.999555,0.79687744,0.8964527,2.3103688,1.9324722,-8.454604
387,1715789470.828856,2.999555,0.547695,0.7475779,2.6420686,2.1242838,-8.643361
388,1715789470.8308568,2.7040017,0.547695,0.7475779,2.6420686,2.1242838,-8.643361
389,1715789470.8578627,2.7040017,0.547695,0.7475779,2.961551,2.2317963,-8.728883
390,1715789470.8608632,2.1431277,-0.5298788,0.38902727,3.9609265,2.038152,-9.081352
391,1715789470.8748665,2.0970008,-0.66069347,0.36144876,4.200997,1.8915442,-9.096623
392,1715789470.8828683,2.0970008,-0.66069347,0.36144876,4.7324495,1.2880094,-9.03065
393,1715789470.8848689,2.220982,-1.2354482,0.049787678,4.7324495,1.2880094,-9.03065
394,1715789470.8918705,2.220982,-1.2354482,0.049787678,4.585231,0.80848014,-8.870604
395,1715789470.894871,2.378887,-1.3677273,-0.058085624,4.585231,0.80848014,-8.870604
396,1715789470.9028728,2.6908226,-1.6650196,-0.17498904,3.8796816,0.8793405,-8.778974
397,1715789470.9304552,2.8565376,-1.9288454,-0.09030118,3.8796816,0.8793405,-8.778974
398,1715789470.932456,2.8213933,-2.2527094,0.09298581,2.9413924,1.4932601,-9.073411
399,1715789470.9394572,2.6742268,-2.4462469,0.18645974,2.870532,1.6875153,-9.252394
400,1715789470.9634626,2.6742268,-2.4462469,0.18645974,3.0690634,1.892155,-9.540723
401,1715789470.9664636,0.23990828,-3.6348667,0.09127741,4.0482802,1.8567249,-9.17176
402,1715789470.9824667,-0.90694726,-3.9850888,-0.43832684,4.0238457,1.6368134,-8.165665
403,1715789470.9844677,-0.90694726,-3.9850888,-0.43832684,3.5247688,1.3686435,-6.7221904
404,1715789470.9864678,-2.2529535,-4.071485,-1.0348332,3.5247688,1.3686435,-6.7221904
405,1715789471.005472,-4.036585,-3.7063754,-1.747755,0.26335928,-1.1157454,0.15554157
406,1715789471.0134985,-3.182842,-3.5269935,-1.2364244,-1.0579423,-1.6172657,2.750497
407,1715789471.0330536,-3.182842,-3.0454378,0.0656514,-3.0377564,-0.91721416,6.4443994
408,1715789471.0360546,-0.91109616,-3.0454378,0.0656514,-3.0377564,-0.91721416,6.4443994
409,1715789471.0420558,-0.2848148,-2.9070573,0.4932397,-3.365791,-0.3118467,7.212257
410,1715789471.0520582,-0.2848148,-2.731336,0.83104545,-3.2631657,0.3222314,7.9391866
411,1715789471.0540586,0.20940112,-2.731336,0.83104545,-3.2631657,0.3222314,7.9391866
412,1715789471.070062,0.20940112,-2.6354215,0.86472535,-2.998661,0.45845437,8.399168
413,1715789471.0720627,0.40098605,-2.6354215,0.86472535,-2.998661,0.45845437,8.399168
414,1715789471.0790646,0.4368625,-2.5568354,0.7368393,-2.790967,0.30451632,9.10655
415,1715789471.0970683,1.417515,-2.8750858,0.65410393,-2.89909,-0.09865474,12.724094
416,1715789471.1110713,2.2268393,-3.0220082,0.7580723,-2.89909,-0.09865474,12.724094
417,1715789471.117097,2.2268393,-3.0220082,0.7580723,-2.8654926,-0.21471913,13.587247
418,1715789471.1366534,2.2268393,-3.0220082,0.7580723,-2.5899923,-0.42363504,13.782723
419,1715789471.1386535,4.0382934,-2.782344,0.8190866,-2.3297637,-0.47555858,13.446136
420,1715789471.158658,4.0382934,-2.782344,0.8190866,-2.202093,-0.44990227,12.761356
421,1715789471.1616585,4.8312654,-2.1411753,0.6018757,-2.2399664,-0.355829,11.558563
422,1715789471.1636593,4.7751327,-1.6301193,0.43442193,-2.4989734,-0.32895094,10.864009
423,1715789471.176662,4.4917517,-1.2125069,0.08151512,-3.248505,-0.16340645,10.964191
424,1715789471.1906655,4.4917517,-1.2125069,0.08151512,-4.4018188,0.32284227,11.452272
425,1715789471.1936657,4.3035836,-0.8454448,-0.2511349,-4.4018188,0.32284227,11.452272
426,1715789471.1966667,4.3043156,-0.42685616,-0.42587993,-6.0749784,0.8738427,12.068636
427,1715789471.202668,4.3043156,-0.42685616,-0.42587993,-6.0749784,0.8738427,12.136441
428,1715789471.2046685,5.1629395,-0.2962855,0.25162303,-7.8110576,0.33261612,12.136441
429,1715789471.2322483,6.4188886,0.9386747,3.5284576,-4.3388996,-1.5732834,8.65451
430,1715789471.234249,6.4188886,0.9386747,3.5284576,-0.43424883,-1.6490307,6.131636
431,1715789471.2352495,6.5389953,1.871004,4.094671,-0.43424883,-1.6490307,6.131636
432,1715789471.2732575,6.5389953,1.871004,4.094671,-0.43424883,-1.6490307,-0.6697374
433,1715789471.2752583,2.6146767,2.1804683,-1.4885356,0.5119814,0.03268129,-1.1614839
434,1715789471.288261,2.430627,2.0723512,-1.5525092,-1.2937362,0.98990715,-1.3160328
435,1715789471.2982633,2.430627,2.0723512,-1.5525092,-3.2814918,1.7314975,-1.5383878
436,1715789471.3002636,2.3813276,1.9774128,-1.221049,-3.2814918,1.7314975,-1.5383878
437,1715789471.3122666,2.3813276,1.9774128,-1.221049,-3.2814918,1.5592335,-2.085723
438,1715789471.3132668,2.696192,1.9183509,0.5040087,-4.194124,1.0870347,-2.5994606
439,1715789471.3348475,2.696192,1.9183509,0.5040087,-4.194124,0.30024028,-3.0753248
440,1715789471.3368478,2.8094347,2.1672895,1.0897461,-3.0114894,0.30024028,-3.0753248
441,1715789471.3498507,3.0617898,2.3000565,1.1927383,-3.0114894,0.30024028,-3.0753248
442,1715789471.3518515,3.7478652,2.1511817,0.3265486,-0.94737566,-0.43585235,-4.3453135
443,1715789471.3528514,3.7478652,2.1511817,0.3265486,-0.7635052,-0.33017266,-5.4717493
444,1715789471.3858588,3.8786798,1.9161544,0.09054524,-1.2564734,0.087659165,-6.34101
445,1715789471.387859,3.7412755,1.6362208,0.67899776,-1.652925,1.099252,-7.1229177
446,1715789471.4078639,3.4620438,1.5715456,1.0319046,-0.45196393,1.3405437,-7.7453895
447,1715789471.4364448,3.3146331,1.5119957,0.96308035,-0.45196393,1.3405437,-7.7453895
448,1715789471.4384587,3.3146331,1.5119957,0.96308035,0.19372064,1.3338243,-8.218199
449,1715789471.4399424,2.7750225,1.1973754,0.7495303,0.2120466,1.6099354,-8.307385
450,1715789471.4474947,2.7750225,1.1973754,0.83031327,0.25663975,2.0949624,-8.391074
451,1715789471.4494953,2.012069,0.45809543,0.83031327,0.25663975,2.0949624,-8.391074
452,1715789471.4514956,2.012069,0.45809543,0.83031327,0.6903541,2.9379563,-8.369083
453,1715789471.475501,2.012069,0.45809543,0.83031327,0.6903541,2.9379563,-7.786928
454,1715789471.4775014,1.6689246,-0.10714114,0.9298886,2.2199607,3.4901786,-7.786928
455,1715789471.4925048,1.6689246,-0.3109289,0.8488616,2.2199607,3.4901786,-7.786928
456,1715789471.4945054,1.8182874,-0.52572984,0.62847793,2.8870256,3.5573738,-7.6415424
457,1715789471.4965055,1.8182874,-0.52572984,0.62847793,3.6817613,3.4981198,-7.513261
458,1715789471.5135093,2.4399014,-1.0321486,0.19573392,4.7214537,3.1242702,-7.5456367
459,1715789471.520535,2.667149,-1.3269697,0.10201593,4.898605,2.9739974,-7.778987
460,1715789471.5390906,2.7794156,-1.6245061,0.020012695,4.9346457,2.962391,-7.979962
461,1715789471.5480928,2.8477514,-1.9964494,-0.016839951,4.9120436,3.029586,-8.200484
462,1715789471.5510936,2.6949718,-2.5578115,-0.08517598,4.9120436,3.029586,-8.200484
463,1715789471.552094,2.6949718,-2.5578115,-0.08517598,4.85279,3.1517591,-8.557229
464,1715789471.5640965,2.191207,-2.9922335,-0.20329969,4.7367253,3.1413746,-8.822956
465,1715789471.5799067,2.191207,-2.9922335,-0.20329969,4.7367253,2.8481593,-8.852278
466,1715789471.5824575,1.4853629,-3.3090196,-0.29482117,4.564461,2.8481593,-8.852278
467,1715789471.5884593,1.4853629,-3.3090196,-0.29482117,4.564461,2.8481593,-8.531573
468,1715789471.5914595,0.3397277,-3.5401723,-0.42148685,4.3036222,2.2812762,-8.531573
469,1715789471.6034625,-1.9215238,-3.7034469,-0.7056,3.2010102,1.0253373,-5.9683824
470,1715789471.6174893,-2.8736217,-3.5587208,-0.8608204,2.390392,0.7583892,-3.7094028
471,1715789471.6300447,-3.2148137,-3.3632002,-0.94038314,1.1631638,0.50915617,-0.60315305
472,1715789471.637046,-2.9346359,-3.2072477,-0.8671659,0.2786309,0.3924809,1.3913219
473,1715789471.6510494,-2.2004812,-2.909986,-0.6023638,-0.7940485,0.43951756,3.5886042
474,1715789471.65305,-1.5210258,-2.5873425,-0.2928687,-1.7537178,0.5983425,5.4413586
475,1715789471.6840565,-0.79248434,-2.3093307,0.021965152,-2.4110088,0.75411314,6.673474
476,1715789471.6870573,-0.1786499,-2.0098724,0.36803833,-2.5924358,0.7987063,7.76509
477,1715789471.6950593,-0.026602242,-1.9625254,0.35437113,-2.5399013,0.6618725,8.19575
478,1715789471.7070618,0.1210524,-1.944465,0.25796852,-2.5350144,0.42424592,8.927567
479,1715789471.7150877,0.30043447,-2.0555112,0.19744232,-2.5350144,0.42424592,8.927567
480,1715789471.7180884,0.30043447,-2.0555112,0.19744232,-2.7396543,0.16707164,9.806602
481,1715789471.72509,0.30043447,-2.0555112,0.19744232,-3.0884583,0.05100725,10.774823
482,1715789471.7270904,0.5462307,-2.2046301,0.17230442,-3.0884583,0.05100725,10.774823
483,1715789471.7376425,0.9367222,-2.3652198,0.17401282,-3.5093446,0.043676864,11.658745
484,1715789471.7456446,0.9367222,-2.6080873,0.24454537,-4.056069,0.01985312,12.53778
485,1715789471.747645,1.6379292,-2.6080873,0.24454537,-4.056069,0.01985312,12.53778
486,1715789471.7626483,1.6379292,-2.802845,0.7597807,-4.591798,-0.18967366,13.082061
487,1715789471.7646487,3.2963288,-2.802845,0.7597807,-4.591798,-0.18967366,13.082061
488,1715789471.7856534,3.2963288,-2.802845,0.7597807,-4.591798,-0.18967366,12.6568985
489,1715789471.787654,4.3789973,-2.4198887,1.1129316,-3.775071,-0.7699956,12.070468
490,1715789471.7966561,4.538641,-1.8468423,0.71560633,-3.5178967,-0.9233228,11.604989
491,1715789471.8186848,4.538641,-1.8468423,0.71560633,-3.5178967,-0.9233228,10.757719
492,1715789471.8206856,4.469786,-1.2413056,-0.058817793,-5.0047426,0.49205196,10.757719
493,1715789471.8266866,4.1276183,-1.2198286,-0.117391534,-6.484258,1.180497,10.823692
494,1715789471.838241,4.1276183,-1.2198286,-0.117391534,-6.793356,0.74128497,10.727176
495,1715789471.8412375,4.214258,-1.4319144,0.9291565,-6.793356,0.74128497,10.727176
496,1715789471.863247,4.214258,-1.4319144,0.9291565,-0.88934344,-2.8725939,10.276968
497,1715789471.8652475,5.130968,0.20696054,2.7716057,2.617023,-3.4364223,9.397933
498,1715789471.8782501,5.130968,0.20696054,2.7716057,5.2834496,-2.989269,7.492644
499,1715789471.8802507,5.4245687,0.9806526,1.6786869,5.2834496,-2.989269,7.492644
500,1715789471.8862517,5.4245687,0.9806526,1.6786869,5.846057,-2.1242838,5.6081247
501,1715789471.8882527,5.269593,1.7614222,0.4617563,5.846057,-2.1242838,5.6081247
502,1715789471.9152827,4.3375072,2.5929558,-1.854408,-0.35117117,1.5012014,-1.5579355
503,1715789471.9298358,3.935301,2.1724145,-1.455832,-2.106798,2.0100522,-2.8444176
504,1715789471.9498417,3.1708834,1.4926846,-0.7085287,-3.8178315,2.1358902,-4.202982
505,1715789471.9518414,2.8396976,1.5590987,-0.16083373,-3.6138024,1.6380352,-4.602488
506,1715789471.968845,2.8396976,1.6611147,0.20305562,-3.0841823,0.95264435,-4.738711
507,1715789471.9708455,2.9922335,1.6611147,0.20305562,-3.0841823,0.95264435,-4.738711
508,1715789471.9728458,3.4493525,1.7980309,0.51645565,-2.4226153,0.21471913,-5.0569715
509,1715789471.9998517,3.4493525,1.7980309,0.51645565,-2.4226153,-0.28008172,-5.5499396
510,1715789472.0018525,4.7656145,1.6459831,0.7873592,-1.2607495,0.01863139,-7.778376
511,1715789472.014879,4.815158,1.3596735,0.78809136,-1.1758392,0.550695,-8.69223
512,1715789472.0444374,4.5269265,1.1239141,0.86521345,-1.1758392,0.550695,-8.69223
513,1715789472.0464377,3.9040618,0.89620876,1.0450836,-0.5545893,1.4450017,-9.561492
514,1715789472.0684426,3.9040618,0.89620876,1.0450836,-0.020082194,1.4407257,-9.679999
515,1715789472.0704439,3.4059105,0.47664383,0.9264718,0.40813434,1.3552046,-9.964052
516,1715789472.0764444,3.4059105,0.47664383,0.9264718,0.7392233,1.3607023,-10.163805
517,1715789472.0784447,3.0146866,0.15546446,0.829337,0.7392233,1.3607023,-10.163805
518,1715789472.1014502,2.7872252,-0.09030118,0.7575842,0.7392233,1.3607023,-10.163805
519,1715789472.1034505,2.1555748,-1.0143324,0.80493134,2.095955,1.93797,-10.376997
520,1715789472.1164777,1.7963223,-1.3457621,0.79590124,2.095955,1.93797,-10.376997
521,1715789472.118478,1.7963223,-1.3457621,0.79590124,2.9652162,2.0076087,-10.149144
522,1715789472.1194782,1.7963223,-1.3457621,0.79590124,3.8155408,1.9672915,-9.664728
523,1715789472.1204786,1.4509509,-1.5498245,0.78345424,3.8155408,1.9672915,-9.664728
524,1715789472.1380327,1.2137271,-1.666972,0.69046843,4.6780825,1.7907515,-8.800354
525,1715789472.1500356,1.522246,-1.9205476,0.36364532,5.1673856,1.666135,-8.029442
526,1715789472.1520362,1.522246,-1.9205476,0.36364532,5.546733,1.6148223,-7.127194
527,1715789472.1860442,1.522246,-1.9205476,0.36364532,5.599267,1.6691893,-6.8914
528,1715789472.188045,2.110424,-2.4181802,0.0622346,5.599267,1.6691893,-6.8914
529,1715789472.1950495,1.862706,-3.0683792,-0.34168017,5.381799,1.74738,-7.2347064
530,1715789472.1970491,1.862706,-3.0683792,-0.34168017,5.001841,1.8664987,-7.584121
531,1715789472.2200756,1.862706,-3.0683792,-0.34168017,4.1612906,2.0167716,-7.9213185
532,1715789472.2230763,0.6057806,-4.0861287,-1.1290393,3.070896,1.883603,-7.918875
533,1715789472.2260795,-0.44906533,-4.4207306,-1.3081774,1.6286432,1.7510452,-7.222489
534,1715789472.2426398,-1.8224366,-4.4663696,-1.3945737,0.4405102,1.462106,-5.617746
535,1715789472.2596438,-1.8224366,-4.4663696,-0.8630169,-1.3285556,-0.07422013,0.50190216
536,1715789472.261644,-3.5411487,-3.9680047,-0.8630169,-1.3285556,-0.07422013,0.50190216
537,1715789472.2736435,-3.5411487,-3.4522815,-0.30751213,-1.4611133,-0.5488624,4.345466
538,1715789472.2766254,-2.9468386,-3.4522815,-0.30751213,-1.4611133,-0.5488624,4.345466
539,1715789472.2797832,-2.1665573,-3.1716154,-0.0776102,-1.4611133,-0.5488624,4.345466
540,1715789472.2807922,-2.1665573,-3.1716154,-0.0776102,-1.435457,-0.52198434,6.4731097
541,1715789472.3047132,-2.1665573,-3.1716154,0.37536004,-1.208826,-0.8597928,9.814543
542,1715789472.3067262,0.5572132,-2.2956636,0.37536004,-1.208826,-0.8597928,9.814543
543,1715789472.3238857,0.5572132,-2.2956636,0.37536004,-1.1098658,-1.0784826,9.846308
544,1715789472.326888,1.2405735,-2.093584,0.46590528,-1.1098658,-1.0784826,9.846308
545,1715789472.3290136,1.6874728,-1.8983383,0.47810817,-1.0445032,-0.990518,9.532934
546,1715789472.3365228,1.7850957,-1.6725852,0.4471129,-1.0445032,-0.990518,9.532934
547,1715789472.3375616,1.7850957,-1.6725852,0.4471129,-1.149572,-0.35827246,9.137704
548,1715789472.3535151,1.7850957,-1.6725852,0.28749946,-1.8954386,0.95386606,9.562256
549,1715789472.355528,1.4946371,-1.6989436,0.28749946,-1.8954386,0.95386606,9.562256
550,1715789472.3799484,1.7362843,-1.8592892,0.25796852,-1.8954386,0.95386606,9.562256
551,1715789472.3810627,2.4408774,-1.9886395,0.47664383,-2.7420976,1.3057245,10.697243
552,1715789472.383083,2.4408774,-1.9886395,0.47664383,-3.3132567,1.0088439,11.752208
553,1715789472.3900886,2.9534283,-2.0401356,0.6746047,-3.4733033,0.72234815,12.41072
554,1715789472.3979344,3.772027,-2.0701547,0.8478854,-3.5337791,0.49877146,13.325796
555,1715789472.4049547,4.354347,-1.9805855,0.999933,-3.3853388,0.5879578,13.956209
556,1715789472.414268,6.240483,-1.9593526,1.1229379,-2.9345202,0.7516697,13.728356
557,1715789472.4239323,6.873354,-1.5212698,0.9987128,-2.3450353,1.0204504,12.159043
558,1715789472.43787,6.873354,-1.5212698,0.9987128,-2.5069146,1.2819008,11.364919
559,1715789472.4404316,5.909053,-0.80541945,0.24820623,-2.5069146,1.2819008,11.364919
560,1715789472.4474761,5.909053,-0.80541945,0.24820623,-3.5392768,1.4957036,11.398517
561,1715789472.4486394,5.2944865,-0.71072525,-0.3431445,-5.533141,1.4437801,11.479761
562,1715789472.4506788,5.002594,-0.79736555,-0.5225571,-5.533141,1.4437801,11.479761
563,1715789472.4642284,5.09802,-0.7114574,0.33020946,-6.508082,0.64476824,10.950752
564,1715789472.4790878,4.9493895,-0.25528386,1.7184682,-5.554521,-0.3436117,9.999635
565,1715789472.4877744,4.9493895,-0.25528386,1.7184682,-5.554521,-0.3436117,8.7180395
566,1715789472.4899125,4.715583,0.5801546,2.803333,-2.4665976,-0.97585726,8.7180395
567,1715789472.5074208,4.715583,0.5801546,2.803333,-2.4665976,-1.1206323,7.764479
568,1715789472.5094233,4.10126,1.6913778,1.2208048,2.2663865,-1.4223998,5.5824685
569,1715789472.515822,3.7534783,2.1865697,0.042954076,2.050751,-1.2690725,3.5379024
570,1715789472.5229957,3.1728358,2.6481125,-0.6650865,0.6659195,-0.514654,1.6808721
571,1715789472.5369923,2.8472633,2.6752028,-0.7253686,-1.2247084,0.79443026,0.003436117
572,1715789472.546035,2.8472633,2.6752028,-0.44564855,-2.310216,1.602605,-1.0594695
573,1715789472.5483673,2.6949718,2.4745574,-0.44564855,-2.310216,1.602605,-1.0594695
574,1715789472.571004,2.5314531,1.3089095,0.77320385,-1.9864575,0.72112644,-3.6886334
575,1715789472.5916955,2.2824843,1.3189158,0.8129852,-1.9864575,0.72112644,-3.6886334
576,1715789472.593696,2.178516,1.387252,0.7348869,-1.3389403,0.36987892,-4.0466003
577,1715789472.5957294,2.178516,1.387252,0.7348869,-0.9131672,0.23243423,-4.151058
578,1715789472.6124723,2.178516,1.387252,0.5725888,-0.31940615,0.3576616,-4.706946
579,1715789472.613768,2.9236534,1.7038248,0.5725888,-0.31940615,0.3576616,-4.706946
580,1715789472.635222,2.9236534,1.7038248,0.5725888,-0.13187054,0.30818152,-5.3288064
581,1715789472.6362784,3.6231518,1.850259,0.594798,0.020845776,0.3491095,-5.9525
582,1715789472.6441834,3.853542,1.7702082,0.49421594,0.020845776,0.3491095,-5.9525
583,1715789472.6455898,3.853542,1.7702082,0.49421594,0.0538325,0.3643811,-6.541985
584,1715789472.6678534,4.2393966,1.4777972,0.39268813,-0.4311945,0.5384777,-7.9084907
585,1715789472.6692343,4.3367753,1.3140347,0.4795725,-0.4311945,0.5384777,-7.9084907
586,1715789472.6703265,4.280886,1.1878572,0.633115,-0.47090074,0.80664754,-8.286005
587,1715789472.6880336,4.280886,1.1878572,0.633115,-0.47090074,0.80664754,-8.511415
588,1715789472.6891727,4.087105,1.0687572,0.7668584,-0.32429308,1.0473285,-8.511415
589,1715789472.7025316,4.087105,1.0687572,0.7668584,0.04772385,1.2226468,-8.683679
590,1715789472.7041075,3.999244,0.9735749,0.86521345,0.04772385,1.2226468,-8.683679
591,1715789472.705515,3.836458,0.8339742,0.8522784,0.60361123,1.25319,-8.936577
592,1715789472.7142897,3.836458,0.675581,0.7592926,0.9860129,1.3002267,-9.183977
593,1715789472.7160332,3.705643,0.675581,0.7592926,0.9860129,1.3002267,-9.183977
594,1715789472.7179317,3.705643,0.675581,0.7592926,1.3904057,1.4480561,-9.5419445
595,1715789472.7241423,3.3968804,0.40684342,0.6526396,1.3904057,1.4480561,-9.5419445
596,1715789472.7363687,3.3968804,0.40684342,0.6526396,1.7269924,1.5781704,-9.6354065
597,1715789472.737473,2.8941224,0.11592719,0.5462307,1.7269924,1.5781704,-9.6354065
598,1715789472.7459526,2.8941224,-0.15936938,0.47395915,2.0336468,1.7449366,-9.508347
599,1715789472.7469678,2.5019224,-0.15936938,0.47395915,2.0336468,1.7449366,-9.508347
600,1715789472.7550678,2.5019224,-0.15936938,0.46419686,2.5003479,1.9184223,-9.24262
601,1715789472.7566817,2.2158568,-0.42612398,0.46419686,2.5003479,1.9184223,-9.24262
602,1715789472.764542,1.9813178,-0.77222764,0.447601,2.5003479,1.9184223,-9.24262
603,1715789472.7659597,1.9813178,-0.77222764,0.447601,3.328681,1.9269744,-8.977505
604,1715789472.7791762,1.9813178,-0.77222764,0.447601,3.328681,1.9269744,-8.689787
605,1715789472.7817812,1.8329308,-0.9608839,0.28994003,4.0244565,1.720502,-8.689787
606,1715789472.788898,1.7436061,-1.1053658,0.13496366,4.4270167,1.4480561,-8.394739
607,1715789472.7909522,1.7436061,-1.1053658,0.13496366,4.5766788,1.2055426,-8.09908
608,1715789472.8138316,1.7436061,-1.1053658,0.13496366,4.5766788,1.2055426,-7.621995
609,1715789472.8158674,2.037695,-1.4448494,0.23893206,4.5943937,0.36682457,-7.621995
610,1715789472.8367226,2.037695,-1.6486678,0.41148052,4.55652,-0.15118915,-7.530976
611,1715789472.839139,2.4787064,-2.0245159,0.5750294,4.431293,-0.6630942,-7.684303
612,1715789472.846434,2.564645,-2.3425224,0.5618503,4.144797,-0.8060367,-7.97874
613,1715789472.8542042,2.3386176,-3.0100496,0.4234393,3.066009,-0.14080444,-8.689177
614,1715789472.8633876,1.9447093,-3.6766005,0.08175918,1.7752508,1.1096367,-9.289657
615,1715789472.8734465,0.9879743,-4.5403495,-0.336799,1.7752508,1.1096367,-9.289657
616,1715789472.8754952,0.9879743,-4.5403495,-0.336799,0.032452215,2.549446,-9.409997
617,1715789472.8923595,-0.28798756,-5.19003,-0.6326269,-1.9760727,4.0802746,-8.577388
618,1715789472.8946717,-0.28798756,-5.19003,-0.6326269,-3.2582788,4.540256,-7.2206564
619,1715789472.8956819,-1.7511717,-5.692818,-0.8454448,-3.2582788,4.540256,-7.2206564
620,1715789472.9203918,-3.9846008,-4.357276,0.12129646,-2.9027553,0.754724,6.033898
621,1715789472.936266,-2.1026142,-3.7405434,0.21037734,-2.269288,0.8970556,8.941006
622,1715789472.9473054,-0.7558758,-3.2397072,0.2421048,-1.8538997,1.2409728,10.37043
623,1715789472.9597685,0.9042626,-2.7010732,0.21769907,-1.3028992,1.1114693,11.103469
624,1715789472.9671803,2.0181704,-2.2514892,0.060038086,-0.7793877,0.4560109,10.711293
625,1715789472.9853086,2.0181704,-2.2514892,0.060038086,-0.47823113,-0.042455133,9.927553
626,1715789472.987316,2.1887665,-1.5939989,-0.4417436,-0.6107889,-0.16218472,9.400987
627,1715789473.0026894,1.8431814,-1.7292067,-0.6973021,-1.8991036,0.26419923,9.81271
628,1715789473.014646,2.0303733,-2.0603924,-0.49397188,-3.2961526,0.5830709,11.253741
629,1715789473.0301254,2.743783,-2.4181802,0.008786061,-3.9937606,0.39553526,12.632464
630,1715789473.0479047,5.0274878,-2.37425,0.88107723,-3.5282812,-0.6441574,13.367946
631,1715789473.062611,6.30589,-1.5569022,0.5559929,-1.8581758,-0.30085114,13.082061
632,1715789473.0798645,6.1445684,-1.1583261,-0.22013964,-2.6028204,0.0290161,12.977603
633,1715789473.101451,6.2475605,-1.272789,0.108117364,-5.1171417,-0.5103779,13.207899
634,1715789473.1128974,6.970488,0.23575929,2.2773592,-4.046295,-1.0393872,11.5628395
635,1715789473.1320174,6.8555374,1.408729,2.6983883,-4.046295,-1.0393872,11.5628395
636,1715789473.13352,6.8555374,1.408729,2.6983883,-2.1721604,0.23548855,9.115713
637,1715789473.1567488,4.0690446,3.90577,0.9811407,0.6885215,1.9782871,-0.33437237
638,1715789473.1643288,4.0690446,3.90577,0.9811407,0.6885215,1.9782871,-2.1523073
639,1715789473.165315,2.722794,3.6888032,0.7204875,0.8235227,1.7540996,-2.1523073
640,1715789473.1722286,1.9717995,3.4737585,0.5559929,1.1478921,1.4718798,-2.956817
641,1715789473.1858668,1.9717995,3.4737585,0.5559929,1.1478921,1.0363328,-3.4827719
642,1715789473.1876273,1.7526362,3.2750955,0.16791138,1.6152041,1.0363328,-3.4827719
643,1715789473.2015316,1.7919292,3.0954697,-0.41343296,1.6720145,0.6068946,-3.8389063
644,1715789473.2025564,2.071131,2.9143791,-0.9664972,1.1106293,-0.0021380284,-4.369748
645,1715789473.228859,2.5202267,2.7964995,-1.1353848,-0.3187953,-0.52503866,-5.168149
646,1715789473.2306457,3.0818024,2.6249273,-0.82372373,-1.4739414,-0.6252206,-5.848042
647,1715789473.2467475,3.0818024,2.6249273,-0.82372373,-1.4739414,-0.26419923,-7.204163
648,1715789473.248393,3.7781281,2.174367,0.23819989,-2.83556,-0.26419923,-7.204163
649,1715789473.2553937,4.003149,1.8868676,0.927204,-2.6962829,0.17684549,-7.910323
650,1715789473.2751982,4.253552,1.3848114,1.5454315,-1.0872638,0.6826419,-8.741711
651,1715789473.298949,4.253552,1.1080505,1.5251747,-0.18623754,0.8194757,-9.006826
652,1715789473.3003788,4.5220456,0.8083481,1.4299619,0.53763777,0.95081174,-9.212077
653,1715789473.3022733,4.5916014,0.36388937,1.1627192,1.3940709,1.1346822,-9.557216
654,1715789473.3139892,4.5916014,0.36388937,1.1627192,1.3940709,1.1346822,-9.690385
655,1715789473.3156402,4.2872314,0.17376876,0.8220153,1.7862463,1.2562444,-9.690385
656,1715789473.327414,4.2872314,0.17376876,0.8220153,1.8656588,1.3912456,-9.646402
657,1715789473.328436,4.1161475,0.0039049159,0.56795174,1.8656588,1.3912456,-9.646402
658,1715789473.3538718,3.994363,-0.1513155,0.3968371,1.8619937,1.5250251,-9.695882
659,1715789473.3553088,2.9849117,-0.70218325,0.051252022,1.4258358,1.4816537,-9.653122
660,1715789473.3646877,2.4194005,-0.9574671,0.18792409,1.1411726,1.7357736,-9.363571
661,1715789473.3791468,1.943977,-1.1029252,0.43613032,1.193707,2.0723603,-8.985446
662,1715789473.3960302,1.943977,-1.1029252,0.43613032,1.193707,2.7339275,-7.959803
663,1715789473.398057,1.1807795,-1.2915815,0.7583164,2.0611358,2.7339275,-7.959803
664,1715789473.4041617,1.0077429,-1.3352678,0.78931165,3.1503084,3.0027082,-6.904228
665,1715789473.4138474,1.0624117,-1.3772455,0.6650865,3.1503084,3.0027082,-6.904228
666,1715789473.4148667,1.0624117,-1.3772455,0.6650865,3.923053,2.9287934,-6.2035656
667,1715789473.4307172,1.1641835,-1.4546117,0.51865214,3.923053,2.9287934,-6.2035656
668,1715789473.431849,1.1715053,-1.4636419,0.49812084,4.6683087,2.5873199,-5.6971583
669,1715789473.438269,1.1715053,-1.4636419,0.49812084,4.7410016,2.5396724,-5.658063
670,1715789473.4474993,1.1715053,-1.4636419,0.49812084,4.7410016,2.5396724,-5.421658
671,1715789473.44939,1.3513755,-1.7887566,0.18109047,5.3934054,1.8762726,-5.421658
672,1715789473.4556599,1.3762693,-2.0735714,-0.11348662,5.342704,1.5793921,-5.527949
673,1715789473.4630158,1.3762693,-2.0735714,-0.11348662,4.5045967,1.5097535,-5.8553724
674,1715789473.4640608,1.2518002,-2.460402,-0.671432,4.5045967,1.5097535,-5.8553724
675,1715789473.472543,0.9333054,-2.8699608,-1.2496036,2.8735864,1.8976529,-6.2121177
676,1715789473.4852946,0.42612398,-3.3771117,-1.6740497,0.8485682,2.5696046,-6.315354
677,1715789473.5029702,-0.19768637,-3.8977163,-1.9059042,-1.0872638,3.3056972,-6.055125
678,1715789473.5043159,-2.0796728,-4.4229274,-1.8309784,-3.9351175,4.0717225,-4.2640686
679,1715789473.519336,-3.045926,-4.4117007,-1.3259935,-4.8495827,3.6117408,-2.1791854
680,1715789473.5207977,-3.4661925,-4.1068735,-0.45467865,-4.822094,2.4578164,0.8458193
681,1715789473.5397527,-2.8089464,-3.5645783,0.31263736,-3.761021,1.3087788,4.088903
682,1715789473.5572326,-0.91402483,-2.606623,0.69364125,-1.2644147,0.5983425,7.3032756
683,1715789473.5644283,-0.38170552,-2.2412388,0.513771,-0.067118816,0.4034765,8.085794
684,1715789473.573523,-0.38170552,-2.2412388,0.513771,0.577344,0.030848695,8.494463
685,1715789473.5761046,0.061014313,-1.9508107,0.16449459,0.577344,0.030848695,8.494463
686,1715789473.6240163,0.061014313,-1.9508107,0.16449459,0.577344,-0.4560109,8.759579
687,1715789473.626001,1.3550363,-1.6991876,-0.61066175,-0.19112447,-0.59773165,9.3258505
688,1715789473.6274781,1.8451338,-1.7087059,-0.5730769,-2.2027037,0.16890424,10.146853
689,1715789473.638581,1.8451338,-1.7087059,-0.5730769,-2.2027037,0.16890424,10.424187
690,1715789473.6395662,2.0782084,-1.7255458,-0.5108423,-2.985222,0.39858958,10.424187
691,1715789473.6420736,2.0782084,-1.7255458,-0.5108423,-4.188016,0.4718934,10.8969965
692,1715789473.6610558,2.4708965,-1.7445823,-0.37023485,-4.188016,0.4718934,10.8969965
693,1715789473.6620712,4.2015676,-1.7423856,0.60138756,-5.7445006,0.5366451,11.43639
694,1715789473.6812334,4.2015676,-1.7423856,0.60138756,-5.7445006,0.5403103,10.967856
695,1715789473.684042,4.765126,-1.5249307,1.0956035,-5.451285,0.5403103,10.967856
696,1715789473.6853013,4.696302,-1.3167193,1.2249539,-5.451285,0.5403103,10.967856
697,1715789473.6867015,4.696302,-1.3167193,1.2249539,-4.933882,0.23793201,10.825524
698,1715789473.6964118,4.6040487,-1.183464,0.9948079,-4.609513,-0.16218472,11.127293
699,1715789473.7124095,4.7751327,-1.2754737,0.7077965,-4.5020003,-0.51159966,11.427838
700,1715789473.7137754,5.0216303,-1.323309,0.6333591,-4.4164796,-1.5726726,12.027097
701,1715789473.7383358,5.489,-1.3245293,0.99383163,-4.1208205,-2.4120014,11.981282
702,1715789473.7418318,6.147497,-1.0650963,1.7084616,-2.9369638,-2.7198775,11.093083
703,1715789473.742841,6.147497,-1.0650963,1.7084616,-1.7720437,-2.4694228,10.140134
704,1715789473.745209,5.9524956,-0.6045603,1.9808297,-1.7720437,-2.4694228,10.140134
705,1715789473.7607858,5.2857003,-0.08542004,1.820484,-0.31574097,-1.8964312,8.96544
706,1715789473.762337,4.735595,0.44101146,1.2871884,0.6848563,-1.1890492,7.834118
707,1715789473.7723198,3.8103437,1.2888968,0.4283205,0.7911469,-0.35888332,6.7058496
708,1715789473.7961023,3.403226,1.8766171,0.04783522,0.25847235,0.07544186,5.638057
709,1715789473.7980556,3.094005,2.3200693,-0.0012202862,-0.061621033,0.1151481,4.631351
710,1715789473.8120387,2.8899734,2.6464043,0.019280521,-0.002977968,-0.8555168,1.372996
711,1715789473.8200357,2.9292667,2.7759986,0.03294773,-0.002977968,-0.8555168,1.372996
712,1715789473.8213267,3.0781415,2.6900907,-0.076633975,-0.002977968,-0.8555168,1.372996
713,1715789473.8224528,3.0781415,2.6900907,-0.076633975,0.07582365,-0.7987063,-0.70883274
714,1715789473.8362865,2.8299353,2.5019224,-0.3270367,-0.06650795,-0.42424592,-2.1956787
715,1715789473.8462324,2.8299353,2.5019224,-0.3270367,-0.5271003,0.06566802,-3.3105078
716,1715789473.84756,2.4433181,2.1328773,-0.58601195,-0.5271003,0.06566802,-3.3105078
717,1715789473.864644,2.4433181,2.1328773,-0.58601195,-0.5271003,0.50732356,-4.39235
718,1715789473.866112,2.4442945,1.3433216,-0.36901456,-1.5790102,0.50732356,-4.39235
719,1715789473.8963666,2.854829,1.1995718,-0.10836142,-1.6559793,0.32162055,-4.8388925
720,1715789473.898153,3.8545182,1.3228208,0.11690342,-1.8129717,0.28191432,-6.18524
721,1715789473.9003549,3.8545182,1.3228208,0.11690342,-2.0890827,0.66859204,-6.9555407
722,1715789473.9023848,4.2823505,1.4555879,0.06833603,-2.0890827,0.66859204,-6.9555407
723,1715789473.919365,4.2823505,1.4555879,0.0976229,-2.9687288,1.4840971,-7.9854593
724,1715789473.920643,4.764638,1.4441173,0.0976229,-2.9687288,1.4840971,-7.9854593
725,1715789473.9227252,5.2598305,1.2354482,0.48787045,-3.26622,1.9465221,-8.579221
726,1715789473.9370546,5.5346694,0.8085922,1.1356289,-2.8019626,2.1609359,-9.296988
727,1715789473.952583,5.1827083,0.06467517,1.6950387,-0.737238,2.1493294,-10.278037
728,1715789473.982871,4.116636,-0.3372871,1.0409347,2.0861812,2.3515258,-10.4209795
729,1715789473.9895968,3.8030221,-0.5030325,0.6765572,2.612747,2.3295345,-10.328128
730,1715789474.0041614,3.228237,-0.7656381,0.3145898,2.9016862,2.1981986,-10.297585
731,1715789474.005587,3.228237,-0.7656381,0.3145898,3.0800588,1.9281962,-10.367834
732,1715789474.0187428,2.401096,-1.0416669,0.22258021,3.1918473,1.5470163,-10.404486
733,1715789474.0374157,1.6184046,-1.3684595,0.21257387,3.3146312,1.7308867,-9.75758
734,1715789474.053637,1.6184046,-1.4489985,0.12520137,3.3360114,2.0680842,-9.279883
735,1715789474.0556402,1.2369126,-1.5288357,-0.024405725,3.2425492,2.4449883,-8.521189
736,1715789474.0705652,1.0436193,-1.6188927,-0.00073217176,3.0379093,2.2079725,-7.285408
737,1715789474.0859969,0.98406935,-1.8002273,0.12056428,3.1350367,1.8536706,-6.7887745
738,1715789474.0982964,0.956979,-1.9317741,0.19378147,3.2871423,1.4688255,-6.4198117
739,1715789474.1100392,1.0353214,-2.0928519,0.17206036,3.2871423,1.4688255,-6.4198117
740,1715789474.1115794,1.3638223,-2.688626,-0.12935033,3.1460323,1.153619,-6.0679536
741,1715789474.1320896,1.408973,-3.3636887,-0.5713685,2.4594197,1.7742581,-6.518772
742,1715789474.1467845,0.9276921,-4.2047405,-1.1773627,1.4276685,2.3845124,-6.972645
743,1715789474.1487577,-0.08371163,-4.777329,-1.5503126,-0.29802588,3.030808,-7.0202923
744,1715789474.155761,-1.5400622,-5.1363373,-1.6442746,-1.643762,2.9917126,-6.064288
745,1715789474.1648629,-3.602407,-4.900578,-0.9713784,-2.7708085,1.960572,-2.321517
746,1715789474.1856928,-3.8823404,-4.328965,-0.18353106,-2.5209646,1.221425,1.9148334
747,1715789474.1876009,-3.012002,-3.8745308,0.16425052,-1.9088775,1.0919216,5.2483253
748,1715789474.1966197,-3.012002,-3.8745308,0.16425052,-1.9088775,1.2311989,7.3002214
749,1715789474.198828,-2.0005982,-3.5108855,0.27505252,-1.4232397,1.2311989,7.3002214
750,1715789474.2122724,0.11495096,-2.7706294,0.16913168,-0.46845728,1.0827587,9.710695
751,1715789474.2286296,0.11495096,-2.7706294,0.0046370877,-0.3169627,0.49449542,9.865855
752,1715789474.2297773,0.7927284,-2.5241315,0.0046370877,-0.3169627,0.49449542,9.865855
753,1715789474.2463346,0.7927284,-2.5241315,0.0046370877,-0.32918,-0.113926366,9.654496
754,1715789474.2486005,1.5910702,-2.1372705,-0.25430766,-0.4892267,-0.45234573,9.432752
755,1715789474.2603838,1.5910702,-2.1372705,-0.25430766,-0.918665,-0.5488624,9.595853
756,1715789474.261442,1.6237738,-2.0567315,-0.3031191,-1.5747342,-0.30634892,10.331335
757,1715789474.269023,1.8614857,-2.1131086,-0.2277054,-1.5747342,-0.30634892,10.331335
758,1715789474.2708774,2.301765,-2.080649,-0.018304294,-1.9235383,-0.06627888,10.943421
759,1715789474.2899966,2.8340843,-2.038427,0.13349932,-1.9235383,-0.06627888,10.943421
760,1715789474.2936988,2.8340843,-2.038427,0.13349932,-2.0841959,0.23243423,11.430282
761,1715789474.2951212,3.1452572,-2.0821135,0.19329333,-2.2045362,0.45662177,11.758316
762,1715789474.3075109,3.1452572,-2.0821135,0.24967057,-2.2045362,0.45662177,11.758316
763,1715789474.3099222,3.5206478,-2.165581,0.24967057,-2.4720953,0.6722572,12.268999
764,1715789474.316887,3.5206478,-2.165581,0.24967057,-2.4720953,0.6722572,12.958666
765,1715789474.3183022,4.24623,-2.1636286,0.32923323,-2.9791133,0.8249735,12.958666
766,1715789474.3424406,4.24623,-2.1636286,0.32923323,-3.2423964,0.5348125,13.210954
767,1715789474.3437247,6.4677,-1.8734444,0.7675905,-3.1422145,0.08399397,12.699048
768,1715789474.345855,6.688359,-1.5778911,0.66923547,-3.1446579,-0.08093964,12.287936
769,1715789474.354319,6.824786,-1.4797496,0.5235333,-3.4152713,-0.16523905,11.977616
770,1715789474.3647642,6.824786,-1.4797496,0.5235333,-4.2026763,-0.26297748,11.377136
771,1715789474.3658748,6.6368623,-1.2591219,0.4971446,-4.2026763,-0.26297748,11.377136
772,1715789474.373277,6.5121493,-0.89352405,0.8010264,-4.747568,-0.49510628,10.62455
773,1715789474.388267,6.5121493,-0.89352405,0.95282996,-5.1085896,-0.40591997,9.606849
774,1715789474.3902595,6.3620234,-0.42661208,0.95282996,-5.1085896,-0.40591997,9.606849
775,1715789474.3983972,6.3620234,-0.42661208,0.95282996,-5.1085896,-0.116980694,8.405276
776,1715789474.399558,6.184838,0.011470691,1.1500282,-5.355379,-0.116980694,8.405276
777,1715789474.4130714,4.874708,1.6181606,2.3688805,-3.4598644,0.94225967,4.0669117
778,1715789474.4451036,3.972154,2.0579517,2.2402625,-3.4598644,0.94225967,4.0669117
779,1715789474.4463398,2.7469559,2.4342878,1.6428103,0.40324742,0.97097033,0.035811976
780,1715789474.4549506,2.7469559,2.4980175,1.1793152,0.40324742,0.97097033,0.035811976
781,1715789474.456935,2.3376412,2.4980175,1.1793152,1.3580298,1.0479393,-0.9403507
782,1715789474.4643996,2.3376412,2.472605,0.3316738,1.8974239,1.2623531,-2.1064925
783,1715789474.4668264,2.0001101,2.472605,0.3316738,1.8974239,1.2623531,-2.1064925
784,1715789474.4789596,1.9161544,2.4338,-0.18743597,1.8974239,1.2623531,-2.1064925
785,1715789474.480026,1.9161544,2.4338,-0.18743597,1.6964492,1.4859297,-2.8731284
786,1715789474.4956129,1.9161544,2.4572294,-0.53451586,1.2040918,1.9214766,-3.7747655
787,1715789474.4968915,2.2627158,2.4391692,-0.76075697,0.7208974,2.1126773,-4.5499535
788,1715789474.5185223,2.5356023,2.357654,-0.91719764,0.08498663,1.9117028,-5.44426
789,1715789474.5205412,2.9197483,2.2519772,-0.8649694,-0.73296195,1.0974194,-6.4949484
790,1715789474.521626,3.4539897,2.147765,-0.5193843,-0.73296195,1.0974194,-6.4949484
791,1715789474.5272787,3.4539897,2.147765,-0.5193843,-1.3725379,0.09254608,-7.299458
792,1715789474.538524,3.9555578,1.9683827,-0.14985114,-1.7909806,-0.58368176,-8.028831
793,1715789474.547423,4.2430573,1.7279862,0.11983211,-1.7909806,-0.58368176,-8.028831
794,1715789474.5486956,4.2430573,1.7279862,0.11983211,-2.1232913,-0.70646566,-8.6287
795,1715789474.5510817,4.3977895,1.4868273,0.40000984,-2.1232913,-0.70646566,-8.6287
796,1715789474.5565886,4.3977895,1.4868273,0.40000984,-2.4580455,-0.28924468,-9.243842
797,1715789474.5642478,4.3977895,1.4868273,0.40000984,-2.3969588,0.81153446,-9.692828
798,1715789474.565593,4.309197,1.1795592,1.0426431,-2.3969588,0.81153446,-9.692828
799,1715789474.585091,4.5225334,0.5415935,1.6398817,-0.69081223,1.7150042,-9.953056
800,1715789474.5975745,4.4280524,0.3265486,1.6864966,0.36781722,1.6490307,-10.133873
801,1715789474.615707,3.7515259,-0.42465958,1.0914545,2.7648525,1.5311338,-10.503446
802,1715789474.6317728,3.2948644,-0.6404367,0.74586946,3.2596533,1.5726726,-10.446635
803,1715789474.647785,3.2948644,-0.6404367,0.74586946,3.2596533,1.6985108,-10.057514
804,1715789474.6497838,2.7489083,-1.0502088,0.37658033,3.6127334,1.6985108,-10.057514
805,1715789474.6627889,2.4111025,-1.2949983,0.31947094,3.8259254,1.815186,-9.839436
806,1715789474.678793,1.2981709,-1.7379928,0.30409533,4.6365438,1.7620409,-8.824178
807,1715789474.6927972,1.2981709,-1.7379928,0.22209209,5.0635386,1.4676038,-7.991568
808,1715789474.6947966,0.87863666,-1.7343318,0.22209209,5.0635386,1.4676038,-7.991568
809,1715789474.713823,0.51596755,-1.6447629,-0.057109397,5.2174764,0.7626653,-6.5358763
810,1715789474.7172022,0.4761557,-1.5681288,-0.14594623,5.069647,0.44929138,-6.023971
811,1715789474.718488,0.5725888,-1.5259069,-0.3236199,5.069647,0.44929138,-6.023971
812,1715789474.7374098,0.5725888,-1.5259069,-0.3236199,4.304844,0.03145956,-5.204801
813,1715789474.739425,0.6231087,-1.59888,-0.4566311,3.5583663,0.08460484,-5.0209303
814,1715789474.7511032,0.6848551,-1.7335995,-0.6052925,2.6390142,0.28863382,-5.0435324
815,1715789474.7589142,0.98431337,-2.3225098,-1.0350773,2.6390142,0.28863382,-5.0435324
816,1715789474.7602699,0.98431337,-2.3225098,-1.0350773,0.727006,0.9428705,-5.504125
817,1715789474.7617552,1.2454547,-3.3985887,-1.5678847,-1.5674039,2.2421808,-6.6165104
818,1715789474.7784836,0.36974674,-4.5581656,-2.0430644,-3.878307,3.5304956,-7.504098
819,1715789474.7986012,0.36974674,-4.5581656,-2.0430644,-5.82208,3.6355646,-6.823594
820,1715789474.7996008,-4.1466546,-4.7109456,-1.0187255,-6.490978,1.9905044,-4.1370087
821,1715789474.8223162,-4.784895,-4.046347,0.522069,-6.490978,1.9905044,-4.1370087
822,1715789474.823335,-1.3308747,-3.1821098,1.3730966,-1.5570191,-0.8512407,8.397946
823,1715789474.8435457,-0.06418706,-2.8001604,1.2320315,0.83757263,0.6123924,9.89029
824,1715789474.8603833,0.6145667,-2.5697703,1.0685132,0.83757263,0.6123924,9.89029
825,1715789474.8618522,1.1719935,-2.4071977,0.8222594,2.9145145,0.26358834,8.845711
826,1715789474.8628566,1.5774031,-2.0423322,0.22672918,2.9145145,0.26358834,8.845711
827,1715789474.8769877,1.7001638,-1.769232,-0.30092257,2.9145145,0.26358834,8.845711
828,1715789474.878002,1.7001638,-1.769232,-0.30092257,3.0623438,-0.07422013,8.100455
829,1715789474.8880465,1.7001638,-1.769232,-0.30092257,2.6524532,-0.16462818,7.7174425
830,1715789474.8890266,1.5451875,-1.5808198,-0.675825,2.6524532,-0.16462818,7.7174425
831,1715789474.8964252,1.340393,-1.4934168,-0.9364782,1.8852065,-0.024740042,7.777307
832,1715789474.9039645,1.2112865,-1.5115075,-1.1222057,0.6213263,0.26236662,8.282493
833,1715789474.9135182,1.2112865,-1.5115075,-1.1222057,-1.1440742,0.68875057,9.3240185
834,1715789474.9145222,1.3311187,-1.5820401,-1.047036,-1.1440742,0.68875057,9.3240185
835,1715789474.927486,1.3311187,-1.5820401,-1.047036,-2.6443594,1.0864239,10.49749
836,1715789474.9284856,1.5456756,-1.6057136,-0.8988933,-2.6443594,1.0864239,10.49749
837,1715789474.9358466,2.0540469,-1.6533049,-0.7151182,-3.888692,1.325883,11.525577
838,1715789474.9479132,2.408906,-1.5886296,-0.50034785,-4.811098,1.3277156,12.306873
839,1715789474.9636211,3.2397072,-1.5891178,-0.19060871,-4.811098,1.3277156,12.306873
840,1715789474.966414,3.2397072,-1.5891178,-0.19060871,-5.7518306,1.044885,13.013644
841,1715789474.9674733,4.6294303,-1.3882282,0.53671235,-5.77932,0.7272351,12.695383
842,1715789474.9800682,5.2564135,-0.9154892,1.1390457,-4.931439,0.35155296,12.0191555
843,1715789474.9880698,5.2564135,-0.9154892,1.1390457,-4.931439,-0.38453966,11.456549
844,1715789474.9900672,5.609839,-0.62652546,1.8317106,-3.3792303,-0.38453966,11.456549
845,1715789474.9970608,5.8053284,-0.39293218,2.0367186,-3.3792303,-0.38453966,11.456549
846,1715789474.998578,5.8053284,-0.39293218,2.0367186,-1.8899407,-0.69058317,11.02711
847,1715789475.0057187,5.7433386,-0.23380683,1.387252,-0.13309227,-0.7290677,10.479775
848,1715789475.0223522,5.7433386,-0.23380683,1.387252,-0.13309227,-0.7290677,9.887847
849,1715789475.023338,6.332248,0.2716357,-0.21623473,-0.7616726,0.22204952,8.517676
850,1715789475.0415292,6.332248,0.2716357,-0.21623473,-1.0842094,0.38087448,8.156044
851,1715789475.0440006,5.943709,1.323309,-0.13203497,-1.0842094,0.38087448,8.156044
852,1715789475.045488,5.943709,1.323309,-0.13203497,-3.5765398,1.385137,5.523825
853,1715789475.0649624,5.5441875,1.6843,0.24771811,-3.5765398,1.385137,5.523825
854,1715789475.067068,4.879833,2.0738153,1.1734577,-4.422588,1.7345519,4.132885
855,1715789475.0682182,4.879833,2.0738153,1.1734577,-4.522159,1.815797,1.9136118
856,1715789475.0820844,4.879833,2.0738153,1.1734577,-3.5081227,1.565953,0.26977336
857,1715789475.0848246,4.3777766,2.3786428,1.7006519,-2.3163247,1.402852,-1.2170726
858,1715789475.086092,4.0524483,2.464063,1.7084616,-2.3163247,1.402852,-1.2170726
859,1715789475.0974174,3.7495735,2.3478918,1.4424088,-1.362764,1.4895949,-2.5695283
860,1715789475.112416,2.725479,1.7560529,0.67680126,0.40691262,2.2311852,-5.464419
861,1715789475.1286194,2.6468923,1.5617833,0.43442193,0.96524346,2.3307564,-6.265263
862,1715789475.1459785,2.6468923,1.5617833,0.24600971,1.452714,2.087021,-6.9750886
863,1715789475.1480198,2.7659924,1.3611377,0.12983845,1.7715856,1.6997325,-7.4417896
864,1715789475.1494052,2.9766138,1.2715688,-0.06638357,1.7715856,1.6997325,-7.4417896
865,1715789475.1552894,2.9766138,1.2715688,-0.06638357,1.9016999,1.2611313,-7.832743
866,1715789475.1645467,2.9766138,1.1180567,-0.14130914,1.6500233,0.58062744,-8.428947
867,1715789475.1671464,3.2926676,1.1180567,-0.14130914,1.6500233,0.58062744,-8.428947
868,1715789475.179076,3.6600044,0.94087124,-0.00097622897,1.3769666,0.25442538,-8.857164
869,1715789475.1932168,3.6868508,0.6470263,0.12568948,1.3769666,0.25442538,-8.857164
870,1715789475.1946177,3.6809933,0.50156814,0.23014598,0.9646326,0.5476407,-9.541333
871,1715789475.2032044,3.6478016,0.33020946,0.3082443,0.7972555,0.61850107,-9.8785305
872,1715789475.212869,3.4915743,-0.07565775,0.447601,0.66103256,0.5580254,-10.430753
873,1715789475.2283819,3.4915743,-0.33191785,0.5406173,0.6139959,0.3277292,-10.691592
874,1715789475.2296083,2.8858244,-0.5269501,0.63555557,0.6139959,0.3277292,-10.691592
875,1715789475.2306118,2.8858244,-0.5269501,0.63555557,0.55168766,0.0693332,-10.702588
876,1715789475.2527275,2.8858244,-0.89254785,0.84031963,0.7092909,-0.043066,-10.772226
877,1715789475.2539847,2.5160778,-1.3277019,1.0895021,1.1692724,-0.09865474,-10.838811
878,1715789475.2672722,2.5160778,-1.3277019,1.0895021,1.1692724,-0.22449298,-10.612791
879,1715789475.269274,2.0489216,-1.8207281,1.1693088,2.1576524,-0.22449298,-10.612791
880,1715789475.2866838,2.0489216,-1.8207281,1.1693088,2.9291751,-0.24281894,-10.28781
881,1715789475.2881486,1.387984,-2.1716824,0.9433118,3.4704018,-0.22082779,-9.956721
882,1715789475.3005607,1.0175052,-2.2658885,0.74611354,3.8302014,-0.18967366,-9.576763
883,1715789475.3088129,0.7793053,-2.319581,0.6228646,3.9108357,-0.11209377,-9.358074
884,1715789475.3154979,0.05344854,-2.4913974,0.24283697,3.609679,0.35155296,-8.839449
885,1715789475.3237133,0.05344854,-2.4913974,0.24283697,3.609679,0.35155296,-8.308607
886,1715789475.3271883,-0.65337175,-2.6119921,-0.09298581,2.9584968,1.0436633,-8.308607
887,1715789475.336755,-1.4831663,-2.8594663,-0.49006698,2.9584968,1.0436633,-8.308607
888,1715789475.339638,-1.4831663,-2.8594663,-0.49006698,1.8662697,2.1927009,-7.1436872
889,1715789475.346584,-2.0618565,-3.0957136,-0.69364125,1.1124619,3.0644054,-5.9641066
890,1715789475.361159,-2.0618565,-3.0957136,-0.69364125,0.19677497,3.9116757,-3.8663952
891,1715789475.3622873,-3.5845907,-3.6338906,-1.5066264,-1.0237337,3.9745948,-0.19570595
892,1715789475.3714283,-3.353926,-3.5445657,-1.489756,-1.8862755,3.1823025,2.7052932
893,1715789475.3853886,-3.353926,-3.5445657,-1.489756,-2.6944501,2.3570235,5.3515615
894,1715789475.386843,-2.2829726,-3.3412352,-1.2242217,-2.6944501,2.3570235,5.3515615
895,1715789475.4106135,-1.3333153,-3.0881479,-0.91085213,-3.2570572,2.005776,6.803588
896,1715789475.4116359,0.42636803,-2.6190698,-0.0741934,-3.797673,1.7150042,8.336249
897,1715789475.4354043,0.9345257,-2.4669917,0.15204766,-3.6070828,1.6911805,8.402833
898,1715789475.4366562,1.2281265,-2.3010328,0.26480213,-3.3034828,1.6417004,8.209189
899,1715789475.446725,1.2281265,-2.3010328,0.26480213,-3.3034828,1.6417004,7.9171953
900,1715789475.4489849,1.3386846,-2.1626523,0.30092257,-2.985222,1.5922203,7.9171953
901,1715789475.4561377,1.3386846,-2.0189025,0.25308737,-2.6492462,1.4242324,7.591604
902,1715789475.458451,1.3111061,-2.0189025,0.25308737,-2.6492462,1.4242324,7.591604
903,1715789475.465445,1.0968238,-1.7602019,0.14643435,-2.6492462,1.4242324,7.591604
904,1715789475.4666986,1.0968238,-1.7602019,0.14643435,-2.2069798,0.8622363,7.2880044
905,1715789475.4902785,1.0492326,-1.6108389,0.119099945,-1.9327012,0.41325033,7.212257
906,1715789475.4925756,1.0546019,-1.4458256,0.09176553,-1.5686256,-0.08399397,7.1450615
907,1715789475.5047348,0.9433118,-1.2630267,0.006833603,-0.8178722,-0.8200866,7.3411493
908,1715789475.5125034,0.92744803,-1.2720569,-0.036608588,-0.25648704,-1.2324207,7.9214716
909,1715789475.5362177,0.9189061,-1.3428334,-0.06613952,0.028176159,-1.3038919,8.606862
910,1715789475.537378,1.3865197,-1.442897,-0.11373068,0.17905988,-1.3655893,9.502391
911,1715789475.5463352,1.3865197,-1.442897,-0.11373068,0.17905988,-1.6441438,9.851194
912,1715789475.5473204,1.9879073,-1.2701045,-0.26529023,0.16073392,-1.6441438,9.851194
913,1715789475.5549083,2.4399014,-0.9711343,-0.4600479,0.16073392,-1.6441438,9.851194
914,1715789475.5567207,2.4399014,-0.9711343,-0.4600479,-0.1764637,-2.0271564,10.295294
915,1715789475.5642264,2.4399014,-0.9711343,-0.4600479,-0.1764637,-2.0271564,11.2018175
916,1715789475.56565,3.3336697,-0.7785731,-0.667039,-1.3798683,-2.1884248,11.2018175
917,1715789475.577215,4.7126536,-0.260165,-0.65019906,-2.7243826,-2.1065688,11.984947
918,1715789475.5955007,7.8452206,0.5618503,-0.032459613,-5.6479836,-0.9660834,10.407083
919,1715789475.610324,7.8452206,0.5618503,-0.032459613,-5.6479836,0.17012598,8.16765
920,1715789475.6121018,7.967737,1.9364113,1.7067534,-7.343135,1.933083,3.871435
921,1715789475.6303012,7.0705523,2.0467253,2.8089464,-6.5862727,2.005165,1.7364608
922,1715789475.6564908,7.0705523,2.0467253,2.8089464,-6.5862727,1.2928963,-0.29894218
923,1715789475.6590202,4.6765337,1.7218848,3.4744906,0.73067117,0.26908615,-1.6513978
924,1715789475.6704192,3.6995418,1.594243,0.64605004,3.2804227,0.4914411,-3.3245578
925,1715789475.685161,3.5150347,1.5554379,0.009030119,2.7184267,1.0913107,-4.2219186
926,1715789475.6953416,3.3304965,1.5371336,-0.17596528,2.12772,1.5213599,-4.9677854
927,1715789475.7200947,3.3304965,1.5371336,-0.17596528,1.0642036,1.738828,-6.4711246
928,1715789475.7230356,2.6939955,1.1773627,-0.32679266,1.0642036,1.738828,-6.4711246
929,1715789475.734513,2.6939955,1.1773627,-0.32679266,0.54985505,1.2000448,-7.2792993
930,1715789475.7489269,2.6742268,1.0519172,-0.41904628,0.54985505,1.2000448,-7.2792993
931,1715789475.7513163,2.6725185,0.9081675,-0.47273886,0.22120957,1.0338894,-7.5835104
932,1715789475.7635658,2.6322489,0.7077965,-0.48738232,-0.27603474,0.9935723,-7.873671
933,1715789475.7654397,2.691799,0.39927766,-0.16815543,-0.6840927,1.0870347,-8.350146
934,1715789475.7816904,2.691799,-0.42465958,0.40708748,-0.5258786,1.1432343,-8.918251
935,1715789475.7828116,2.5607402,-0.42465958,0.40708748,-0.5258786,1.1432343,-8.918251
936,1715789475.7942162,2.4567413,-0.761001,0.522313,0.35254562,1.1676689,-9.554161
937,1715789475.8123276,2.33276,-1.0794957,0.6497109,0.35254562,1.1676689,-9.554161
938,1715789475.8141437,2.2358694,-1.5144362,0.7077965,1.8161787,0.8689558,-9.5957
939,1715789475.8298147,2.2370899,-1.7802145,0.76246536,2.4924066,0.64721173,-9.48269
940,1715789475.8311884,2.178516,-2.0110927,0.81664604,3.1002176,0.43279803,-9.485744
941,1715789475.8532434,2.025004,-2.2063386,0.8281168,3.1002176,0.43279803,-9.485744
942,1715789475.8552449,1.6943065,-2.413299,0.7871151,4.113032,0.064446285,-9.488799
943,1715789475.879745,0.41123646,-2.4630868,0.6985224,4.587674,-0.09987647,-9.121058
944,1715789475.8871963,0.41123646,-2.4630868,0.6985224,4.812473,-0.20922135,-8.708113
945,1715789475.8884406,-0.41880223,-2.4765098,0.6816824,4.812473,-0.20922135,-8.708113
946,1715789475.8961868,-0.9640566,-2.6178496,0.55184394,4.8717265,-0.31245756,-8.104578
947,1715789475.910734,-1.5442113,-2.7730699,0.31947094,4.720232,-0.4266894,-6.9903603
948,1715789475.9117877,-2.2868774,-2.9512317,-0.06467517,4.3182826,-0.2660318,-5.1198907
949,1715789475.9222486,-2.6556783,-3.225064,-0.63677585,3.6616027,-0.17379116,-3.5707364
950,1715789475.938171,-3.2004142,-3.2887628,-1.3450301,2.1026745,-0.28619036,-1.5499942
951,1715789475.953035,-3.2004142,-3.2887628,-1.3450301,0.49182287,-0.34422258,0.38767037
952,1715789475.9541342,-3.2973049,-3.09669,-1.3999429,-1.3413837,0.05467244,2.8213575
953,1715789475.9725704,-1.8073049,-2.956601,-0.43881494,-4.155029,2.0613647,7.778529
954,1715789475.9868329,-1.0941391,-2.9331715,-0.12007617,-4.450688,2.4523184,9.23361
955,1715789475.998254,-0.4937278,-2.9148672,0.034168016,-4.4567966,2.3900104,10.257421
956,1715789476.0137866,-0.4937278,-2.9148672,0.034168016,-4.2356634,1.9868392,11.142564
957,1715789476.0152957,1.2505798,-2.77429,0.27261195,-3.6528978,0.9062186,11.731438
958,1715789476.0240934,1.2505798,-2.77429,0.27261195,-3.0829606,0.03390302,11.615984
959,1715789476.0260997,1.8517234,-2.5827053,0.31995904,-3.0829606,0.03390302,11.615984
960,1715789476.0338166,2.2368457,-2.2902942,0.35412705,-2.5105798,-0.5580254,11.317883
961,1715789476.0467796,2.2368457,-2.1114001,0.34070393,-2.0909154,-0.8597928,10.9904585
962,1715789476.0481932,2.4428298,-2.1114001,0.34070393,-2.0909154,-0.8597928,10.9904585
963,1715789476.0631826,2.5021663,-1.87979,0.3145898,-1.6718618,-0.872621,10.615387
964,1715789476.0643654,2.5104644,-1.6359768,0.30946457,-1.4360678,-0.5421429,10.408915
965,1715789476.0770197,2.5104644,-1.6359768,0.3145898,-1.3291664,-0.17012598,10.237872
966,1715789476.078181,2.551222,-1.4465579,0.3145898,-1.3291664,-0.17012598,10.237872
967,1715789476.0792694,2.6451838,-1.2442343,0.32069123,-1.3291664,-0.17012598,10.237872
968,1715789476.0812812,2.6451838,-1.2442343,0.32069123,-1.2112694,0.4297437,9.8102665
969,1715789476.0976634,2.696436,-1.0968238,0.33484653,-1.113531,0.6930266,9.42481
970,1715789476.1123922,2.4164717,-0.81640196,0.16595893,-1.0347294,1.058324,8.847543
971,1715789476.130662,2.4164717,-0.81640196,0.16595893,-1.0121274,0.7339546,8.856095
972,1715789476.1325107,2.5141253,-0.79687744,0.7358631,-0.4030947,0.12492194,8.995983
973,1715789476.1470942,2.5141253,-0.85545117,0.84202796,0.29756773,-0.18845193,9.17008
974,1715789476.1482642,2.6559227,-0.85545117,0.84202796,0.29756773,-0.18845193,9.17008
975,1715789476.1554742,2.6559227,-0.85545117,0.8000502,1.1161271,-0.57757306,9.29775
976,1715789476.1573057,3.1206076,-1.0175052,0.8000502,1.1161271,-0.57757306,9.29775
977,1715789476.1909037,3.1206076,-1.0175052,0.8000502,1.1161271,-0.57757306,8.941006
978,1715789476.1929097,3.6219316,-0.714142,0.16693515,2.8992429,-1.412015,9.11388
979,1715789476.1941085,3.6219316,-0.714142,0.16693515,2.7734046,-1.6276505,9.211618
980,1715789476.203257,4.3157864,-0.58650005,-0.06809197,2.7734046,-1.6276505,9.211618
981,1715789476.2044158,5.373805,-0.25870067,-0.47225076,2.2889884,-1.5121969,8.870145
982,1715789476.2210746,6.5282564,0.60968554,-0.90792346,0.6903541,-1.0687088,7.255628
983,1715789476.2224555,7.281662,1.3650427,-0.81981885,-0.7879398,-0.768163,4.7254243
984,1715789476.237385,7.222111,2.0311053,-0.30238694,-2.1031327,-0.35643986,0.85131705
985,1715789476.2470682,6.6749353,2.110424,0.08639627,-2.7249935,0.006414085,-1.655063
986,1715789476.2622297,6.6749353,2.110424,0.08639627,-3.6272414,0.85062987,-4.3367615
987,1715789476.2642467,4.7663465,0.6001673,0.38561043,-3.6272414,0.85062987,-4.3367615
988,1715789476.2657115,4.7663465,0.6001673,0.38561043,-4.4207554,2.3564126,-6.0001473
989,1715789476.2846606,3.4710739,0.0014643435,0.86838615,-3.8141663,4.402811,-6.98303
990,1715789476.295777,3.302674,0.13740423,1.0001771,-2.999272,3.977649,-7.02579
991,1715789476.3127773,3.3827248,0.24161668,1.1300155,-2.038992,2.8976393,-7.1552935
992,1715789476.3146539,3.6417005,0.30433938,1.3184278,-0.4715116,0.9300423,-7.6733074
993,1715789476.3289433,3.6255922,0.30726805,1.24277,0.58345264,0.03940081,-8.282951
994,1715789476.338344,3.6255922,0.30726805,1.24277,0.58345264,0.03940081,-8.702616
995,1715789476.3399534,3.5226002,0.21208574,0.9464845,1.0208322,0.04550946,-8.702616
996,1715789476.3484757,3.438858,0.099087246,0.6492228,1.0690905,0.4914411,-9.017211
997,1715789476.355594,3.3051145,-0.020500809,0.41196862,0.9023243,1.0412198,-9.276217
998,1715789476.3637316,3.3051145,-0.020500809,0.41196862,0.9023243,1.0412198,-9.627465
999,1715789476.3648562,3.0139544,-0.3436326,0.2716357,0.5846744,1.8958203,-9.627465
1000,1715789476.3727872,3.0139544,-0.3436326,0.2716357,0.55535287,2.368019,-9.866924
