id,timestamp,acc_x,acc_y,acc_z,gyro_x,gyro_y,gyro_z
0,1715789402.1800973,0.20866893,0.1786499,1.0404466,0.28405234,-0.3198643,-0.18280143
1,1715789402.1850977,0.20866893,0.1786499,1.0404466,0.43799037,-0.50251305,-0.22800545
2,1715789402.2063222,0.21916342,0.16986385,1.0233626,0.5369505,-0.58803415,-0.2518292
3,1715789402.2076173,0.23161033,0.17498904,1.0240947,0.5369505,-0.58803415,-0.2518292
4,1715789402.2098064,0.23161033,0.17498904,1.0240947,0.56138515,-0.5984189,-0.22922719
5,1715789402.242197,0.37487194,0.1398448,0.95941955,0.47525316,-0.6143014,-0.1693624
6,1715789402.265984,0.37487194,0.1398448,0.95941955,0.5039638,-0.6845509,-0.24266621
7,1715789402.268363,0.9494132,0.34900185,0.71975535,0.57848936,-0.842765,-0.45830166
8,1715789402.2694838,0.9494132,0.34900185,0.71975535,0.6169739,-1.7407368,-0.74296486
9,1715789402.27569,0.9494132,0.34900185,0.71975535,0.6169739,-3.0883057,-1.1125383
10,1715789402.2799902,0.8613085,0.17376876,0.72366023,1.1734722,-3.0883057,-1.1125383
11,1715789402.2962914,0.6577648,0.027090356,0.6250611,1.1734722,-3.0883057,-1.1125383
12,1715789402.2976372,0.42441553,-0.054912884,0.48225713,2.8930578,-4.921512,-1.6617062
13,1715789402.3223848,0.18865626,-0.25430766,0.27602875,4.5307875,-6.0265675,-1.6995798
14,1715789402.3248773,0.11495096,-0.39805737,0.0036608586,5.6187387,-6.9520283,-1.6366607
15,1715789402.3358665,-0.07614586,-0.473227,-0.36803833,5.7946677,-7.62398,-1.1840096
16,1715789402.348399,-0.07004443,-0.586256,-0.70999306,5.7946677,-7.62398,-1.1840096
17,1715789402.3501692,-0.07004443,-0.586256,-0.70999306,5.5735345,-7.65208,-0.6702719
18,1715789402.3657994,-0.032703668,-0.69559366,-0.94453204,4.547281,-7.0778666,0.45188758
19,1715789402.3805175,-0.032703668,-0.7495303,-1.0450836,3.4483342,-6.562907,1.3956743
20,1715789402.381952,0.16278619,-0.7495303,-1.0450836,3.4483342,-6.562907,1.3956743
21,1715789402.3841531,0.16278619,-0.7495303,-1.0450836,2.1533,-5.9636483,2.349846
22,1715789402.3921626,0.16278619,-0.7495303,-1.0450836,1.1093313,-5.484119,3.0016391
23,1715789402.3997316,0.5472069,-0.7844305,-0.91719764,1.1093313,-5.484119,3.0016391
24,1715789402.412241,0.9128046,-0.8002942,-0.79516906,1.1093313,-5.484119,3.0016391
25,1715789402.414782,0.9128046,-0.8002942,-0.79516906,0.25534168,-5.0693417,3.3095152
26,1715789402.4160023,1.3203802,-0.78101367,-0.54330194,-0.48808134,-4.6979356,3.3370042
27,1715789402.4309137,1.504674,-0.7678346,-0.24869433,-1.2907583,-4.1915283,3.1769574
28,1715789402.4333878,1.4348431,-0.7434289,0.06272271,-1.2907583,-4.1915283,3.1769574
29,1715789402.4345722,1.4348431,-0.7434289,0.06272271,-1.9095647,-3.435277,3.1720705
30,1715789402.4533596,1.3391726,-0.7165826,0.21159762,-2.360994,-2.6759715,3.4695618
31,1715789402.475129,1.8602654,-0.4424758,1.2637589,-2.855795,-2.4401777,4.8348455
32,1715789402.488763,2.4281864,-0.22624107,1.5539736,-2.519819,-2.3479369,5.1439433
33,1715789402.4968376,2.8365247,0.007321717,1.7650831,-2.1380284,-2.052278,5.1335588
34,1715789402.5297377,3.7317572,1.477065,1.7160275,-1.2669345,-0.049861874,3.4707837
35,1715789402.5378847,3.7317572,1.477065,1.7160275,-1.0500773,0.5286275,2.3657284
36,1715789402.5399911,3.4652164,2.1001737,1.6647754,-1.0500773,0.5286275,2.3657284
37,1715789402.5487883,3.1330545,2.2539296,1.6557454,-0.8014552,0.40156755,1.551445
38,1715789402.5565348,3.1330545,1.9027313,1.6054696,-0.64568454,0.02405282,0.81413066
39,1715789402.5588808,3.4027379,1.9027313,1.6054696,-0.64568454,0.02405282,0.81413066
40,1715789402.5715892,3.1118214,2.204874,1.2579015,-0.64996064,-0.19585867,-0.027641652
41,1715789402.5737412,2.2058504,3.0005312,1.0399585,-0.64996064,-0.19585867,-0.027641652
42,1715789402.5757525,2.2058504,3.0005312,1.0399585,-0.31337386,0.26656634,-1.2896893
43,1715789402.5845196,1.552265,3.2450767,0.81371737,-0.100792766,0.76319975,-1.6372715
44,1715789402.5971487,1.552265,3.2450767,0.81371737,-0.100792766,0.76319975,-1.9714148
45,1715789402.599132,1.8346393,2.6442077,0.4724948,-0.41722095,0.7558694,-1.9714148
46,1715789402.6166832,1.8941894,2.700585,0.43930307,-0.41722095,0.7558694,-1.9714148
47,1715789402.6192107,2.0984652,2.701317,0.6052925,-0.7715228,1.1468232,-3.0147727
48,1715789402.6252239,2.4672356,2.6137006,0.79663336,-0.77274454,1.2806026,-4.193132
49,1715789402.6344616,2.5241315,2.5314531,0.94233555,-0.6780604,1.496849,-5.07461
50,1715789402.6492043,2.5861223,2.408174,1.0531375,-0.5748242,1.7925076,-5.9066086
51,1715789402.6568213,2.6864297,2.267597,1.1883452,-0.4905248,2.15414,-6.446003
52,1715789402.6839142,2.6864297,1.6359768,2.2841928,1.4831808,3.2634711,-7.831445
53,1715789402.686088,3.2777803,1.6359768,2.2841928,1.4831808,3.2634711,-7.831445
54,1715789402.6986213,3.2777803,1.6359768,2.2841928,2.620001,3.3202817,-8.3378525
55,1715789402.7011309,3.6263247,1.2906053,2.3561897,2.620001,3.3202817,-8.3378525
56,1715789402.7153337,3.9465277,0.50815773,2.130437,4.520403,3.3654857,-9.201616
57,1715789402.7301676,3.9465277,-0.17889395,1.7099261,4.520403,3.3654857,-9.201616
58,1715789402.732416,4.138601,-0.17889395,1.7099261,5.580865,3.3129513,-9.7013035
59,1715789402.7339191,4.320912,-0.81981885,1.5036978,6.234491,3.0942616,-10.087981
60,1715789402.7646556,4.177894,-1.8319546,1.2710807,7.2699075,2.5200481,-10.640815
61,1715789402.7666595,3.9172409,-2.2200058,1.0834006,7.647422,2.0521255,-10.681131
62,1715789402.7791278,3.5589647,-2.6293201,0.7707633,7.952244,1.1810316,-10.626764
63,1715789402.7862654,3.5589647,-2.6293201,0.7707633,7.952244,1.1810316,-10.63776
64,1715789402.7893105,2.9895487,-2.8252983,0.41123646,7.841677,0.18654297,-10.63776
65,1715789402.7983196,2.9895487,-2.8252983,0.41123646,7.3994107,-0.6344599,-10.612103
66,1715789402.800465,2.0660055,-2.8140714,0.16132185,7.3994107,-0.6344599,-10.612103
67,1715789402.8187864,2.0660055,-2.8140714,0.0046370877,6.828252,-0.9179014,-10.165562
68,1715789402.8219461,-0.23039004,-2.4560091,-0.123004854,4.5039096,-0.7731263,-7.2670054
69,1715789402.8386834,-0.61237013,-2.335933,-0.16254212,3.6279287,-0.7199811,-5.852853
70,1715789402.857388,-0.6494669,-2.34057,-0.1666911,3.4263432,-0.670501,-5.527872
71,1715789402.8665805,-1.400675,-2.6168733,-0.52670604,1.1215485,-0.44570255,-2.4619396
72,1715789402.8799343,-1.8739326,-2.9875963,-0.5901609,-0.31887165,-0.2764929,-0.6818783
73,1715789402.8868601,-2.2204938,-3.2121289,-0.42319524,-0.9993755,-0.047418416,0.75670934
74,1715789402.898605,-2.2204938,-3.2121289,-0.42319524,-0.9993755,0.23113614,3.3760996
75,1715789402.9014294,-2.463819,-3.3941958,-0.35559142,-1.8881844,0.23113614,3.3760996
76,1715789402.9140894,-1.773381,-3.4430072,0.08517598,-2.2968533,0.404011,7.2153873
77,1715789402.9355633,0.42368335,-3.3566108,0.27334413,-1.6597209,-0.41454843,10.573314
78,1715789402.9615953,0.42368335,-3.3566108,0.24747404,-1.6597209,-0.41454843,10.573314
79,1715789402.9640982,1.8617296,-2.8902175,0.16522676,-0.83077675,-1.1365912,11.07178
80,1715789402.9650898,2.1641166,-2.691311,0.06687169,-0.65179324,-1.2636511,11.035739
81,1715789402.9772522,2.1641166,-2.691311,0.06687169,-0.5540548,-1.2489903,10.898905
82,1715789402.9797285,2.4460027,-2.4308712,-0.12983845,-0.5540548,-1.2489903,10.898905
83,1715789402.9862494,2.6215105,-2.0650294,-0.15570852,-0.8765916,-0.7016551,10.649061
84,1715789403.0017838,2.5248637,-1.9019992,-0.18523945,-0.96577793,-0.38950294,10.503064
85,1715789403.0140543,2.5248637,-1.9019992,-0.18523945,-1.1368202,-0.0687987,10.540327
86,1715789403.0161655,2.8084583,-1.6616027,-0.19329333,-1.3432927,0.18471038,10.35829
87,1715789403.0232263,2.960018,-1.404336,-0.16888762,-1.4202617,0.17921259,9.69489
88,1715789403.0340915,2.960018,-1.404336,-0.16888762,-1.4202617,0.17921259,8.950245
89,1715789403.0352497,2.7740462,-1.2447225,-0.117147475,-1.450805,0.2775619,8.950245
90,1715789403.0513854,2.4933498,-1.225686,-0.0017084008,-1.3616186,0.37957639,8.672301
91,1715789403.0594506,2.2700374,-1.2622945,0.073949344,-1.183246,0.30505082,8.61488
92,1715789403.0665367,2.2700374,-1.2622945,0.073949344,-0.95111716,0.23724478,8.815244
93,1715789403.0696087,2.1309247,-1.3840791,0.09567044,-0.95111716,0.23724478,8.815244
94,1715789403.0706196,2.3605828,-1.6059577,-0.06345488,-0.95111716,0.23724478,8.815244
95,1715789403.0787182,2.3605828,-1.6059577,-0.06345488,-0.7703011,0.2506838,9.361968
96,1715789403.1024,2.4394133,-1.6620909,-0.13740423,-0.7703011,0.2506838,9.361968
97,1715789403.1044738,2.4394133,-1.6620909,-0.13740423,-0.784351,0.28183794,9.595929
98,1715789403.1063313,3.2360466,-1.6891813,-0.29579738,-1.4520267,0.18104519,11.334452
99,1715789403.1074674,3.2360466,-1.6891813,-0.29579738,-1.8533652,0.12301299,12.170727
100,1715789403.109991,3.8391426,-1.4990606,-0.1564407,-1.8533652,0.12301299,12.170727
101,1715789403.117423,3.8391426,-1.2166559,-0.04368625,-2.1673498,0.001450805,12.568399
102,1715789403.119515,5.177583,-1.2166559,-0.04368625,-2.1673498,0.001450805,12.568399
103,1715789403.1270895,6.933392,-0.7600248,0.12764193,-2.92299,0.011835515,11.663709
104,1715789403.1351044,6.933392,-0.7600248,0.12764193,-3.7635407,1.2274574,8.810357
105,1715789403.1373603,7.389535,0.30409533,0.281398,-3.7635407,1.2274574,8.810357
106,1715789403.147557,7.389535,0.30409533,0.281398,-4.7574186,2.2237785,6.8018317
107,1715789403.1495607,6.9377847,0.8105446,0.36755022,-4.7574186,2.2237785,6.8018317
108,1715789403.164438,6.9377847,0.8105446,0.5943099,-5.285817,2.6825383,5.4664803
109,1715789403.1659305,5.8229012,1.5283475,1.2317874,-5.266269,2.8334222,3.7933204
110,1715789403.1839461,4.5181403,1.8229246,2.126776,-2.3109033,1.016098,0.57833666
111,1715789403.2008042,4.0741696,1.8148707,1.9378756,-2.3109033,1.016098,0.57833666
112,1715789403.202788,4.0741696,1.8148707,1.9378756,-1.0800097,0.30260736,-0.29764408
113,1715789403.2151396,4.0741696,1.7414094,0.9071913,0.20891592,0.62636596,-1.5096008
114,1715789403.2174604,3.1725917,1.7414094,0.9071913,0.20891592,0.62636596,-1.5096008
115,1715789403.2585955,3.1725917,1.7414094,0.9071913,0.059864793,1.2952634,-2.2811236
116,1715789403.261533,2.633469,1.8436695,0.26162934,0.0061086523,1.0087676,-3.6830592
117,1715789403.2628224,2.4748015,1.7804586,0.28505886,0.0061086523,1.0087676,-3.6830592
118,1715789403.2757661,2.4628427,1.7953461,0.2723679,0.0061086523,1.0087676,-3.6830592
119,1715789403.2788124,2.4628427,1.7953461,0.2723679,-0.03970624,0.9580658,-3.970166
120,1715789403.2803483,2.8489718,1.6164521,0.3743838,-0.27916542,0.771141,-4.435645
121,1715789403.2967956,2.8489718,1.6164521,0.3743838,-0.27916542,0.771141,-5.2645893
122,1715789403.2978132,2.662268,1.473404,0.4651731,-0.23640485,1.8016707,-5.542533
123,1715789403.3161867,2.6727624,1.3796861,0.7180469,-0.16676621,2.4400249,-6.1246877
124,1715789403.3192792,2.7850287,1.2544848,1.0116477,0.22907446,2.5426502,-6.4472246
125,1715789403.3328285,3.0173714,1.1351408,1.200304,0.8393288,2.498668,-6.8045807
126,1715789403.346636,3.247517,0.9567349,1.1780949,0.8393288,2.498668,-6.8045807
127,1715789403.3490229,3.5340712,0.65337175,1.1075623,2.8185322,2.3001368,-8.340907
128,1715789403.3654249,3.6692786,0.093473926,0.7775969,3.604105,2.5536458,-9.328676
129,1715789403.3981302,3.598746,-1.080716,0.78198993,4.7305403,2.6489408,-10.356152
130,1715789403.417626,3.598746,-1.080716,0.78198993,4.7305403,1.9708804,-10.751381
131,1715789403.4205313,3.6685464,-1.756785,0.7851626,5.6199603,1.9708804,-10.751381
132,1715789403.4275644,3.6685464,-2.3352005,0.6338472,6.1721826,1.3813953,-10.952355
133,1715789403.4299853,3.5628695,-2.3352005,0.6338472,6.1721826,1.3813953,-10.952355
134,1715789403.4481075,3.5628695,-2.3352005,0.6338472,6.266256,0.98494387,-10.923645
135,1715789403.4496288,3.3466046,-2.6883821,0.50108004,6.2418213,0.4705953,-10.806359
136,1715789403.4517856,3.0881479,-2.8931463,0.3773125,6.2418213,0.4705953,-10.806359
137,1715789403.4584045,2.7615993,-3.0581288,0.27432033,6.052453,0.014278975,-10.63776
138,1715789403.4666398,2.1670454,-2.9800305,0.29164842,5.8038306,-0.39805508,-10.350042
139,1715789403.5203037,0.97430706,-2.8126073,0.22331238,4.8698177,-1.2257775,-9.156412
140,1715789403.523304,-0.2186753,-2.7010732,-0.060770255,3.335935,-1.0309114,-7.3928437
141,1715789403.5333083,-0.6775334,-2.6376183,-0.32947728,2.366492,-0.7859545,-6.547406
142,1715789403.574837,-3.6556115,-3.42934,-0.84764135,-3.3903022,0.6129269,0.56306505
143,1715789403.576837,-3.174056,-3.3163414,0.032703668,-4.111123,-0.012599096,5.930127
144,1715789403.6018434,-0.413677,-3.2116408,0.6218884,-2.918714,-0.60513836,10.460303
145,1715789403.6216683,1.1327002,-3.0525155,0.60089946,-1.7794504,-0.5067891,11.759004
146,1715789403.627722,2.1382465,-2.8909495,0.52377737,-1.1820242,-0.5226716,11.98991
147,1715789403.6338475,2.1382465,-2.8909495,0.52377737,-0.7079928,-0.57398427,11.793212
148,1715789403.6358433,2.69668,-2.6437197,0.4932397,-0.7079928,-0.57398427,11.793212
149,1715789403.6499515,2.69668,-2.6437197,0.4932397,-0.3915646,-0.5996406,11.45357
150,1715789403.652242,2.987108,-2.358386,0.456143,-0.3915646,-0.5996406,11.45357
151,1715789403.6811435,2.987108,-2.358386,0.456143,-0.3915646,0.019776762,11.186011
152,1715789403.683203,2.7552538,-1.9364113,0.18182266,-0.24923302,0.019776762,11.186011
153,1715789403.6854053,2.7552538,-1.9364113,0.18182266,-0.5925393,0.8456666,11.353389
154,1715789403.6956027,3.1884556,-1.8548961,0.13325526,-1.2681563,1.8065577,11.363773
155,1715789403.6976066,3.4752226,-1.7123666,0.16034561,-1.6181821,2.0008128,10.999698
156,1715789403.7200975,3.2182302,-1.5451875,0.2884757,-2.0702224,2.017306,9.992991
157,1715789403.7266278,3.203343,-1.4961015,0.2711476,-2.185065,1.8578703,9.884869
158,1715789403.7359972,3.362468,-1.3303866,0.093717985,-2.5705209,1.1413254,9.7517
159,1715789403.7467868,3.3976123,-1.1961551,0.14960709,-2.9077187,0.7540368,9.923353
160,1715789403.7592618,3.3976123,-1.1961551,0.14960709,-2.9077187,0.53473616,9.98444
161,1715789403.7612588,3.7053993,-1.0228745,0.379509,-3.0457742,0.53473616,9.98444
162,1715789403.7627084,3.7053993,-1.0228745,0.379509,-2.9584203,0.3832416,9.708328
163,1715789403.7644558,4.0709968,-0.7675905,0.6211562,-2.9584203,0.3832416,9.708328
164,1715789403.7953844,4.216699,0.31898284,1.0782754,-1.5106697,-0.054137934,6.6930976
165,1715789403.8108726,4.1991267,0.5313431,1.1327002,-1.0207558,-0.46830457,6.0321417
166,1715789403.8242302,4.338484,1.0860853,0.9076794,-0.5235115,-0.8421541,5.308266
167,1715789403.827433,4.338484,1.0860853,0.9076794,0.12095132,-0.9563859,3.8947241
168,1715789403.8344262,4.328965,1.3289223,0.55770135,0.12095132,-0.9563859,3.8947241
169,1715789403.8367662,4.328965,1.3289223,0.55770135,0.06291912,-0.76701766,2.8953485
170,1715789403.845686,4.217431,1.6088864,0.18548352,-0.45753807,-0.20990857,1.8147279
171,1715789403.865083,4.1200523,1.7450703,-0.0061014313,-0.45753807,-0.20990857,1.8147279
172,1715789403.8664615,3.968249,1.7787503,-0.054912884,-2.080607,1.392391,-0.47723848
173,1715789403.8756325,3.6336462,1.5971717,0.07370529,-2.7733283,2.2048419,-1.7221818
174,1715789403.9078226,3.6336462,1.5971717,0.07370529,-2.7733283,2.6074018,-2.4411702
175,1715789403.9098227,3.0344553,1.2793787,0.4249037,-2.2626448,2.1571941,-3.4588718
176,1715789403.9178247,2.9944298,1.2693722,0.5025444,-1.7690657,1.383228,-3.862043
177,1715789403.9248261,2.9944298,1.3543042,0.6750929,-0.9279043,-0.06085745,-4.5468225
178,1715789403.9278266,3.0222526,1.3543042,0.6750929,-0.9279043,-0.06085745,-4.5468225
179,1715789403.9348283,3.1479418,1.3870078,0.58772033,-0.48930305,-0.81466514,-5.1460814
180,1715789403.9488554,3.1479418,1.3870078,0.43124917,-0.49235737,-0.90812755,-5.6757016
181,1715789403.9508562,3.2301893,1.3560126,0.43124917,-0.49235737,-0.90812755,-5.6757016
182,1715789403.9584074,3.29462,1.2913374,0.34704942,-0.7415904,-0.5293911,-6.0892577
183,1715789403.9674094,3.29462,1.2913374,0.34704942,-0.7415904,0.118126065,-6.5022025
184,1715789403.96941,3.3563669,1.2205608,0.37145513,-1.0451905,0.118126065,-6.5022025
185,1715789403.9814126,3.3563669,1.0392263,1.0157968,-0.7672467,1.4168255,-7.483863
186,1715789403.983413,3.2689943,1.0392263,1.0157968,-0.7672467,1.4168255,-7.483863
187,1715789403.9974163,3.314145,0.9689378,1.2010362,-0.08246681,1.4901294,-7.78563
188,1715789404.0084186,3.311216,0.90279824,1.2112865,0.6096435,1.5157857,-8.027533
189,1715789404.0164201,3.311216,0.90279824,1.0851091,1.2388347,1.5585463,-8.237671
190,1715789404.019421,3.373451,0.8002942,1.0851091,1.2388347,1.5585463,-8.237671
191,1715789404.0304236,3.373451,0.60089946,0.85545117,1.2388347,1.5585463,-8.237671
192,1715789404.0324242,3.4825444,0.36559775,0.7070644,2.094046,1.823051,-8.605412
193,1715789404.0394497,3.4825444,0.36559775,0.7070644,2.5088236,2.0881665,-8.872971
194,1715789404.0464509,3.4825444,0.048323333,0.6257933,2.9345965,2.3551147,-9.136253
195,1715789404.0484366,3.5155225,0.048323333,0.6257933,2.9345965,2.3551147,-9.136253
196,1715789404.0640087,3.5155225,0.048323333,0.6257933,2.9345965,2.5768588,-9.3384495
197,1715789404.0660112,3.5623815,-0.44808912,0.5528202,3.7336085,2.7515662,-9.609063
198,1715789404.0870137,3.5579886,-1.442897,0.44369608,5.0665164,2.3563364,-10.179611
199,1715789404.1030176,3.6595163,-1.9508107,0.45077375,5.6376753,1.823051,-10.384251
200,1715789404.1150203,3.6595163,-1.9508107,0.39293218,6.396981,0.7412086,-10.849119
201,1715789404.1170208,3.686607,-2.6427433,0.39293218,6.396981,0.7412086,-10.849119
202,1715789404.123022,3.686607,-2.6427433,0.39293218,6.44585,-0.008933905,-11.1808195
203,1715789404.1250224,3.4815683,-3.0576408,0.2272173,6.44585,-0.008933905,-11.1808195
204,1715789404.147051,3.0232286,-3.22482,0.07248501,6.44585,-0.008933905,-11.1808195
205,1715789404.1490517,2.4438062,-3.2477612,-0.0046370877,5.2516084,-0.6533967,-11.286499
206,1715789404.1596036,2.4438062,-3.2477612,-0.0046370877,4.492303,-0.53366715,-11.113625
207,1715789404.1616044,1.8375679,-3.204075,0.040513504,4.492303,-0.53366715,-11.113625
208,1715789404.1686058,1.0050583,-3.0903444,0.19573392,3.7409387,-0.2599995,-10.811856
209,1715789404.1816087,-0.3277689,-3.0554442,0.30604777,3.0335567,0.028328875,-9.863793
210,1715789404.197741,-1.6559894,-3.3544145,0.011470691,1.9168952,0.5573382,-6.74044
211,1715789404.2141342,-1.9542273,-3.5875196,-0.26675457,1.9168952,0.5573382,-6.74044
212,1715789404.216135,-2.5929558,-3.7817893,-0.6382402,0.54611355,0.79496473,-4.0630174
213,1715789404.2351391,-2.5929558,-3.7817893,-0.6382402,0.54611355,-0.051083606,2.1299343
214,1715789404.2371395,-3.913092,-3.302186,-0.74513733,-1.9761491,-0.051083606,2.1299343
215,1715789404.263721,-3.913092,-3.302186,-0.74513733,-2.770274,-0.20013472,5.279556
216,1715789404.2657216,-1.4123898,-2.9029086,0.14399378,-3.1166344,-0.111559264,6.9490504
217,1715789404.2677069,-1.4123898,-2.9029086,0.14399378,-3.4104607,0.16577356,8.587391
218,1715789404.2887268,-1.4123898,-2.9029086,0.14399378,-3.566842,0.42050436,10.529331
219,1715789404.2907276,0.5145032,-2.8782585,0.40830776,-3.566842,0.42050436,10.529331
220,1715789404.298729,0.9989568,-2.879479,0.44320798,-3.5369098,0.22197317,10.8029995
221,1715789404.3217342,2.213416,-2.6254153,0.5528202,-3.2265902,-0.44020477,10.838429
222,1715789404.3297362,2.213416,-2.6254153,0.5528202,-2.9865203,-0.6906595,10.859199
223,1715789404.3357372,2.213416,-2.6254153,0.5528202,-2.7635543,-0.7743481,11.126758
224,1715789404.337738,2.3649757,-2.5216908,0.5396411,-2.7635543,-0.7743481,11.126758
225,1715789404.3487647,2.455765,-2.4735813,0.5296347,-2.7635543,-0.7743481,11.126758
226,1715789404.3497646,2.455765,-2.4735813,0.5296347,-2.6853635,-0.5923102,11.472507
227,1715789404.3643181,2.722062,-2.429407,0.5372005,-2.6627617,-0.41088325,11.740677
228,1715789404.365318,3.0534918,-2.310307,0.55940974,-2.6627617,-0.41088325,11.740677
229,1715789404.3723207,3.0534918,-2.310307,0.55940974,-2.516154,0.4003458,11.456625
230,1715789404.3793213,3.0534918,-2.0943162,0.5284144,-2.516154,0.4003458,11.456625
231,1715789404.381322,3.3080435,-2.0943162,0.5284144,-2.516154,0.4003458,11.456625
232,1715789404.3973255,3.3563669,-2.054779,0.51645565,-2.516154,0.4003458,11.456625
233,1715789404.3993263,3.543101,-1.6769783,0.41977844,-2.525317,0.92691165,10.482905
234,1715789404.407328,3.4708295,-1.5444553,0.38878322,-2.525317,0.92691165,10.482905
235,1715789404.4093285,3.4708295,-1.5444553,0.38878322,-2.56991,0.88842714,10.085843
236,1715789404.41733,3.4705858,-1.332339,0.39976576,-2.6077838,0.6868416,9.893421
237,1715789404.4293327,3.4705858,-1.332339,0.3265486,-2.7159069,0.44982588,10.026589
238,1715789404.4313333,3.5740962,-1.0309283,0.3265486,-2.7159069,0.44982588,10.026589
239,1715789404.4373345,3.5740962,-1.0309283,0.29213652,-2.765998,0.44371724,10.046137
240,1715789404.439335,3.644141,-0.92695993,0.29213652,-2.765998,0.44371724,10.046137
241,1715789404.4453607,4.11688,-0.6055366,0.3863426,-2.765998,0.44371724,10.046137
242,1715789404.447361,4.11688,-0.6055366,0.3863426,-3.019507,0.022831088,9.522626
243,1715789404.4679172,4.473203,-0.1181237,1.067781,-2.103209,-0.9313404,8.146957
244,1715789404.4749188,4.552308,0.28798756,1.1153722,-2.103209,-0.9313404,8.146957
245,1715789404.4769197,4.552308,0.28798756,1.1153722,-1.1746938,-1.2984704,7.1830115
246,1715789404.4839208,4.4517264,0.5823511,0.69046843,-0.50762904,-1.490893,6.025422
247,1715789404.4989243,4.4517264,0.8195747,0.40489095,-0.71837753,-1.386435,5.3528595
248,1715789404.5009253,4.4954123,0.8195747,0.40489095,-0.71837753,-1.386435,5.3528595
249,1715789404.535933,4.694594,0.9540503,0.2767609,-0.71837753,-1.386435,5.3528595
250,1715789404.5379333,4.857136,1.1356289,0.2328306,-1.7837266,-0.47685668,3.705356
251,1715789404.5399578,4.563047,1.8058406,0.7475779,-2.6725354,1.2225704,0.77320266
252,1715789404.545959,4.2044964,1.892969,0.884494,-2.483778,1.6581173,-0.6042985
253,1715789404.5635133,3.8022897,1.7970546,0.80786,-2.2785273,1.8395443,-1.5939001
254,1715789404.5664945,3.4647284,1.6323159,0.6750929,-2.1239784,1.9476675,-2.3171647
255,1715789404.5815175,2.9888165,1.4070204,0.6560564,-1.8240436,2.0258582,-2.9640708
256,1715789404.5975208,2.8094347,1.3416132,0.75392336,-1.3041973,1.8975766,-3.2242994
257,1715789404.5995214,2.7406104,1.3613818,0.8381231,-0.49296826,1.2726613,-3.4735324
258,1715789404.6175258,2.9153554,1.4487543,0.7754004,0.52290064,-0.09812023,-4.2035165
259,1715789404.6325285,2.9153554,1.4487543,0.7754004,0.4092797,-0.3571271,-5.4502926
260,1715789404.6345298,3.3546581,1.4946371,0.4075756,0.4092797,-0.3571271,-5.4502926
261,1715789404.6465566,3.3546581,1.4946371,0.4075756,-0.09896017,0.16210836,-6.2108197
262,1715789404.6485574,3.4349532,1.4341109,0.41026023,-0.09896017,0.16210836,-6.2108197
263,1715789404.6631126,3.4349532,1.4341109,0.5279263,-0.09896017,0.16210836,-6.2108197
264,1715789404.6651137,3.364909,1.3645545,0.5279263,-0.45998153,0.648968,-6.721503
265,1715789404.667114,3.3124363,1.2535084,0.7007189,-0.6713409,1.1315515,-7.134448
266,1715789404.6791162,3.1516027,1.0524054,0.9457524,-0.6713409,1.1315515,-7.134448
267,1715789404.6811166,3.1516027,1.0524054,0.9457524,-0.039095376,2.3881013,-7.849771
268,1715789404.6831174,3.0754569,0.8666778,1.2986591,-0.039095376,2.3881013,-7.849771
269,1715789404.6931198,3.1242685,0.74050015,1.4748684,-0.039095376,2.3881013,-7.849771
270,1715789404.69512,3.1242685,0.74050015,1.4748684,0.7458665,2.7173576,-8.090452
271,1715789404.7091231,3.119143,0.57112443,1.5134599,1.5674802,2.9140563,-8.30792
272,1715789404.7191255,3.2092004,0.29652956,1.4665705,2.5631905,3.0343966,-8.559596
273,1715789404.7301278,3.1123095,0.013911263,1.3125703,3.5631769,3.0802116,-8.839373
274,1715789404.743155,2.9658754,-0.30019042,1.0377619,4.632191,2.911002,-8.982926
275,1715789404.7461555,3.153311,-0.6243289,0.8454448,5.1569242,2.7411814,-9.034239
276,1715789404.7652376,3.7036905,-1.2361805,0.52499765,6.0640593,2.1199315,-9.81859
277,1715789404.7763877,3.7036905,-1.2361805,0.52499765,6.0640593,1.746082,-10.314001
278,1715789404.7784553,3.831821,-1.5652002,0.4085518,6.2766404,1.746082,-10.314001
279,1715789404.7805173,3.831821,-1.5652002,0.4085518,6.413474,1.283657,-11.023216
280,1715789404.7967553,3.831821,-1.5652002,0.4085518,6.3810983,0.98188955,-11.373853
281,1715789404.798756,3.7237036,-2.5187624,0.16937573,6.3810983,0.98188955,-11.373853
282,1715789404.8147595,3.7237036,-3.1369593,0.23990828,6.115983,0.08208502,-11.855214
283,1715789404.81676,3.2113967,-3.1369593,0.23990828,6.115983,0.08208502,-11.855214
284,1715789404.8237615,2.7115676,-3.3136566,0.24649782,5.988312,-0.15370896,-11.89492
285,1715789404.838765,1.722861,-3.280221,0.31385764,5.988312,-0.15370896,-11.89492
286,1715789404.8417897,1.722861,-3.280221,0.31385764,5.3829446,-0.6314056,-11.536954
287,1715789404.8527918,0.8532546,-3.1052318,0.3521746,5.3829446,-0.6314056,-11.536954
288,1715789404.8547926,0.8532546,-3.1052318,0.3521746,4.9919906,-0.70898545,-10.996338
289,1715789404.856345,0.8532546,-3.1052318,0.3521746,4.5588875,-0.7230354,-10.13685
290,1715789404.862346,0.14423785,-3.0303063,0.27920148,4.5588875,-0.7230354,-10.13685
291,1715789404.8743486,-0.9503894,-2.976858,-0.13838045,2.737898,-0.30337095,-7.091687
292,1715789404.8853514,-0.9503894,-2.976858,-0.13838045,1.378112,0.23113614,-5.5749087
293,1715789404.8873518,-1.3582091,-3.203831,-0.4368625,1.378112,0.23113614,-5.5749087
294,1715789404.8903525,-1.8024237,-3.5611613,-0.84007555,1.378112,0.23113614,-5.5749087
295,1715789404.9123573,-2.4403894,-3.8081472,-1.033857,-1.4147639,0.6813438,-3.1742086
296,1715789404.933362,-3.5201597,-3.7996051,-0.8923038,-2.8099802,0.4547128,-1.0221303
297,1715789404.9353623,-3.2863224,-3.6238842,0.028066583,-4.3805146,-0.20807597,6.457304
298,1715789404.9493892,-1.9688708,-3.620223,0.43661842,-4.356691,0.02405282,9.383348
299,1715789404.9709454,0.12324891,-3.6604927,0.7077965,-4.1538835,0.21525364,10.818271
300,1715789404.9729455,1.0311724,-3.6451168,0.71121335,-3.7238345,0.2757293,12.333827
301,1715789404.978947,1.0311724,-3.6451168,0.71121335,-3.2766812,0.023441954,13.157885
302,1715789404.996951,1.0311724,-3.6451168,0.654348,-2.1801782,-0.9881509,13.470648
303,1715789404.9989514,2.8877769,-3.3712542,0.6077331,-2.1801782,-0.9881509,13.470648
304,1715789405.0129547,3.3287883,-3.1003509,0.5462307,-2.1801782,-0.9881509,13.470648
305,1715789405.0149548,3.3287883,-3.1003509,0.5462307,-1.831374,-1.2379948,13.090078
306,1715789405.0219567,3.3287883,-3.1003509,0.2853029,-1.5839735,-1.3552809,12.552517
307,1715789405.023957,3.5787334,-2.4142754,0.2853029,-1.5491543,-0.86964303,11.82742
308,1715789405.032959,3.42031,-2.242703,0.113974735,-1.5491543,-0.86964303,11.82742
309,1715789405.0349596,3.42031,-2.242703,0.113974735,-2.0134118,0.06009387,11.708912
310,1715789405.0645423,3.42031,-2.242703,0.113974735,-2.0134118,1.5108988,11.193342
311,1715789405.0665426,3.7791045,-1.7941259,-0.022453265,-3.93947,1.5108988,11.193342
312,1715789405.073544,4.097843,-1.5771589,-0.10006347,-5.183192,1.2683853,11.1059885
313,1715789405.0835466,4.219628,-1.4067765,0.530611,-5.6596665,0.9788352,10.632567
314,1715789405.1035507,4.033656,-1.0109156,1.2720569,-5.2290063,0.35025486,10.430371
315,1715789405.1255558,3.980696,-0.7605129,1.6232858,-5.2290063,0.35025486,10.430371
316,1715789405.127552,4.971843,-0.12690976,1.932018,-1.1123856,-1.5415949,9.460318
317,1715789405.1345577,4.971843,0.2774931,1.6398817,-1.1123856,-1.5415949,9.460318
318,1715789405.1365585,5.048721,0.2774931,1.6398817,0.084910266,-1.1274282,8.026006
319,1715789405.149585,4.5855002,0.62017995,1.2456987,0.9761627,-0.6332382,6.3785024
320,1715789405.1641824,4.1449466,0.6921768,0.93110895,1.3176364,-0.2862667,5.5013
321,1715789405.1661832,3.5267494,0.77173954,0.5996792,1.3176364,-0.2862667,5.5013
322,1715789405.1681833,3.5267494,0.77173954,0.5996792,1.5467108,0.053985216,4.614323
323,1715789405.1791859,3.118655,0.8183544,0.4087959,1.5448782,-0.0687987,4.331493
324,1715789405.1861873,3.118655,0.8183544,0.4087959,1.5448782,-0.0687987,4.1787763
325,1715789405.188189,2.951964,0.83836716,0.18963248,1.4544702,-0.5959754,4.1787763
326,1715789405.210193,2.951964,1.1383135,0.05686534,1.0977248,-1.0755047,3.5892916
327,1715789405.2131934,3.5374875,1.1383135,0.05686534,1.0977248,-1.0755047,3.5892916
328,1715789405.2151937,3.943599,1.4963455,-0.012202863,0.9779953,-0.69310296,2.7090347
329,1715789405.227197,3.943599,1.7397012,-0.26797485,0.7458665,-0.22762366,1.6534595
330,1715789405.2291973,4.160566,1.7397012,-0.26797485,0.7458665,-0.22762366,1.6534595
331,1715789405.248225,3.831333,1.8500149,-0.897429,-1.1117748,0.6123161,-1.8064812
332,1715789405.2588782,3.480348,1.6003444,-0.90328634,-1.1117748,0.6123161,-1.8064812
333,1715789405.2617803,3.480348,1.6003444,-0.90328634,-1.9669861,0.69661546,-2.6787968
334,1715789405.2807844,3.0229845,1.1244023,0.16571487,-3.1398473,0.6923394,-4.254829
335,1715789405.2977881,3.0481224,1.1778508,0.62701356,-2.4990497,0.0026725354,-4.686711
336,1715789405.3127916,3.0481224,1.2232454,0.7700311,-1.8338175,-0.5471062,-5.052619
337,1715789405.3147922,3.0386043,1.2232454,0.7700311,-1.8338175,-0.5471062,-5.052619
338,1715789405.326795,3.0749688,1.3001235,0.5789343,-1.2901474,-0.65889454,-5.8577394
339,1715789405.3387973,3.1374474,1.2505798,0.52768224,-1.3817772,-0.2129629,-6.2749605
340,1715789405.3408215,3.0556881,1.2127509,0.6445857,-1.3817772,-0.2129629,-6.2749605
341,1715789405.3428223,3.0556881,1.2127509,0.6445857,-1.4679092,0.38507417,-6.645145
342,1715789405.3568742,3.0556881,1.2127509,0.6445857,-1.2815952,0.8468883,-6.8742194
343,1715789405.3589246,3.0168831,1.2081139,0.8927919,-1.2815952,0.8468883,-6.8742194
344,1715789405.368005,3.0061445,1.1388016,1.0814482,-1.2815952,0.8468883,-6.8742194
345,1715789405.3700056,3.0061445,1.1388016,1.0814482,-0.84788096,1.1346059,-7.125896
346,1715789405.387009,3.0061445,1.1388016,1.0814482,0.17959438,1.4937946,-7.5571666
347,1715789405.3890057,2.8892412,0.8774163,1.0953594,0.7819075,1.7625753,-7.822893
348,1715789405.400012,2.7757547,0.6487347,0.9652769,1.4269812,2.080836,-8.179638
349,1715789405.409014,2.5075357,0.34704942,0.8281168,2.0280726,2.2616522,-8.398328
350,1715789405.421017,2.0347662,-0.25772443,0.66142565,3.3328807,2.285476,-8.369006
351,1715789405.4370203,2.0176823,-0.582107,0.5908931,4.05248,2.1474204,-8.309752
352,1715789405.4530435,2.0354984,-0.86863023,0.49519217,4.644408,1.8939114,-8.301811
353,1715789405.4605951,2.0354984,-0.86863023,0.49519217,4.644408,1.5799266,-8.335409
354,1715789405.4625957,2.1126206,-1.0829124,0.4075756,5.0469685,1.5799266,-8.335409
355,1715789405.4645958,2.2112198,-1.2845038,0.29897013,5.315749,1.2720505,-8.410545
356,1715789405.4815998,2.2112198,-1.2845038,0.06833603,5.3200254,0.8835402,-8.525999
357,1715789405.4836001,2.4997258,-1.7760656,-0.054912884,5.3200254,0.8835402,-8.525999
358,1715789405.4896014,2.4997258,-1.7760656,-0.054912884,5.095838,0.7595346,-8.6048
359,1715789405.4986036,2.7174249,-2.0064557,-0.13789235,4.56072,0.7173849,-8.783784
360,1715789405.510606,2.7174249,-2.0064557,-0.13789235,4.56072,0.8823185,-8.984148
361,1715789405.5126066,2.751349,-2.191207,-0.12690976,4.01033,0.8823185,-8.984148
362,1715789405.5146072,2.751349,-2.191207,-0.12690976,3.4422257,1.156597,-9.229105
363,1715789405.5156076,2.5910034,-2.3779106,-0.023429496,3.4422257,1.156597,-9.229105
364,1715789405.5396128,1.4255689,-2.606379,0.302631,2.933375,1.7680731,-9.462456
365,1715789405.5621934,0.9113403,-2.657631,0.40318257,2.933375,1.7680731,-9.462456
366,1715789405.564194,-0.16034561,-2.6930192,0.41245672,3.5515707,1.2799917,-8.036085
367,1715789405.565194,-0.9716224,-2.6974123,0.19573392,3.5515707,1.2799917,-8.036085
368,1715789405.582198,-0.9716224,-2.6974123,-0.9437999,3.4825428,0.86887944,-7.134448
369,1715789405.5841987,-2.8811872,-2.57636,-0.9437999,2.2742512,-0.15859589,-3.512017
370,1715789405.5922003,-2.9465947,-2.5197384,-1.1790711,2.2742512,-0.15859589,-3.512017
371,1715789405.6042027,-2.9465947,-2.5197384,-1.1790711,1.0231993,-0.67233354,-1.272585
372,1715789405.6062033,-2.9465947,-2.5197384,-1.1790711,-0.453262,-0.7505243,0.84711736
373,1715789405.608204,-2.602718,-2.4835875,-1.1366051,-0.453262,-0.7505243,0.84711736
374,1715789405.6172059,-2.3466713,-2.4286747,-1.029708,-1.3805555,-0.48968485,2.0780108
375,1715789405.6242077,-2.139711,-2.3652198,-0.91670954,-2.140472,-0.20379992,3.0627255
376,1715789405.644236,-1.6569656,-2.3840122,-0.6135904,-2.140472,-0.20379992,3.0627255
377,1715789405.6462367,-1.30232,-2.4569852,-0.36291313,-4.615087,0.5622251,6.7401342
378,1715789405.6647909,-1.30232,-2.4569852,-0.36291313,-4.615087,0.25495988,9.087689
379,1715789405.6667914,-0.57698184,-2.6766675,-0.021232981,-5.4318137,0.25495988,9.087689
380,1715789405.673793,-0.16180995,-2.824322,0.13764828,-5.5619283,0.06925685,9.81523
381,1715789405.6817946,-0.16180995,-2.824322,0.13764828,-5.5637608,-0.5574909,11.503661
382,1715789405.6837955,0.6482466,-3.0659387,0.42563587,-5.5637608,-0.5574909,11.503661
383,1715789405.7047994,1.5256628,-3.2389753,0.6765572,-5.144707,-1.2031754,12.276406
384,1715789405.7068002,2.0523384,-3.2658217,0.8107887,-4.632802,-1.5984052,12.5629015
385,1715789405.7178028,2.0523384,-3.2284808,0.8752198,-3.6816847,-2.0858757,12.749216
386,1715789405.7198033,2.8052855,-3.2284808,0.8752198,-3.6816847,-2.0858757,12.749216
387,1715789405.7348065,3.6863627,-3.0876598,0.8210391,-1.7373008,-2.292959,11.883009
388,1715789405.736807,4.0853963,-2.7972317,0.6109058,-1.7373008,-2.292959,11.883009
389,1715789405.749834,4.0853963,-2.7972317,0.4217309,-1.3695599,-1.9233856,11.267868
390,1715789405.7518346,4.327257,-2.5338938,0.4217309,-1.3695599,-1.9233856,11.267868
391,1715789405.7673903,4.2140145,-2.2097552,0.28725538,-1.2168436,-1.3393984,10.605079
392,1715789405.7693906,3.9301758,-2.0311053,0.19134088,-1.2168436,-1.3393984,10.605079
393,1715789405.771391,3.9301758,-2.0311053,0.19134088,-1.2895365,-0.7334201,10.25994
394,1715789405.7823937,3.463752,-1.9674065,-0.19280522,-2.3060162,0.65996355,10.677772
395,1715789405.797397,3.8386543,-1.9161544,-0.32630453,-3.3157766,0.725937,10.949607
396,1715789405.8144007,4.085152,-1.7296947,-0.08346757,-3.3157766,0.725937,10.949607
397,1715789405.8164015,4.085152,-1.7296947,-0.08346757,-4.2051964,-0.62163174,10.785895
398,1715789405.8184016,4.224753,-1.4612013,0.5525761,-4.2051964,-0.62163174,10.785895
399,1715789405.8264036,4.496907,-1.1446589,1.2664436,-3.8136318,-1.2990813,10.511617
400,1715789405.840407,4.8927684,-0.46419686,2.0040152,-1.3994923,-2.6038895,8.947802
401,1715789405.8424313,4.8927684,-0.46419686,2.0040152,0.29932398,-2.704682,7.4963856
402,1715789405.8454318,4.9066796,0.10152781,1.9395839,0.29932398,-2.704682,7.4963856
403,1715789405.8599873,4.6970344,0.4127008,1.4084848,0.29932398,-2.704682,7.4963856
404,1715789405.8629878,4.6970344,0.4127008,1.4084848,1.3805555,-2.106645,5.913023
405,1715789405.87399,4.6970344,0.84031963,0.53305155,1.2211196,-0.4909066,4.487263
406,1715789405.8759909,4.1857038,0.84031963,0.53305155,1.2211196,-0.4909066,4.487263
407,1715789405.8979957,3.7629964,1.1846844,0.55037963,-0.39950588,1.972102,2.6931522
408,1715789405.922001,3.722727,1.6545252,0.7578283,0.2657264,1.8603138,1.4292719
409,1715789405.9290028,3.7051551,1.7797265,0.53524804,0.5662721,1.4925729,0.83184576
410,1715789405.9460306,3.7051551,1.7797265,0.12764193,0.86009824,0.7155523,-0.6586655
411,1715789405.948031,3.1962652,1.9127377,-0.44955346,0.37201694,0.43333253,-2.011121
412,1715789405.9575822,3.0127342,1.769476,-0.68827194,-0.3042109,0.5145776,-2.6152668
413,1715789405.9665842,2.8472633,1.5969275,-0.7671024,-1.2064588,0.7888561,-3.117398
414,1715789405.977587,2.730848,1.4843867,-0.62750167,-1.9779817,1.0454195,-3.475976
415,1715789405.9855888,2.6986325,1.3569888,-0.16864355,-2.4776695,1.0808496,-3.892586
416,1715789406.0025926,2.7396343,1.293778,0.18621568,-2.392759,0.85849476,-4.1796927
417,1715789406.0245974,2.7396343,1.293778,0.69412935,-0.77518797,-0.2746603,-5.562081
418,1715789406.0275984,3.1450133,1.2759619,0.69412935,-0.77518797,-0.2746603,-5.562081
419,1715789406.0295987,3.1450133,1.2759619,0.69412935,-0.59315014,-0.26061037,-5.9005003
420,1715789406.055628,3.1877232,1.2539966,0.65312773,-0.59315014,-0.26061037,-5.9005003
421,1715789406.0571566,3.225064,1.1060979,0.5320753,-0.41050145,0.1614975,-6.815576
422,1715789406.0601816,3.165514,1.0282438,0.6228646,-0.3182608,0.37652206,-7.135059
423,1715789406.0741844,3.165514,1.0282438,0.78003746,0.20647246,0.69478285,-7.577936
424,1715789406.0771854,3.0913208,0.8688744,0.78003746,0.20647246,0.69478285,-7.577936
425,1715789406.0841868,3.2028546,0.6975461,0.77906126,0.9016371,0.9336312,-7.945066
426,1715789406.0951896,3.2028546,0.6975461,0.77906126,1.3616186,1.1168908,-8.318305
427,1715789406.0971897,3.2392194,0.5423257,0.7085287,1.3616186,1.1168908,-8.318305
428,1715789406.1141934,3.233118,0.3219115,0.6223765,1.713477,1.3227524,-8.634122
429,1715789406.149228,3.156972,-0.19134088,0.55696917,2.420248,1.6379588,-9.309739
430,1715789406.151228,2.8531206,-0.8354385,0.4566311,3.4733799,1.6489544,-9.7611685
431,1715789406.1677806,2.8555613,-1.1212295,0.3841461,3.857614,1.505401,-9.798431
432,1715789406.1767826,2.9170637,-1.8058406,0.16473864,4.442823,1.011211,-9.995741
433,1715789406.192788,2.8357928,-2.0245159,0.08127106,4.469701,0.8187885,-9.969474
434,1715789406.212792,2.5358462,-2.2632039,0.04148973,4.261396,0.5396231,-9.680534
435,1715789406.2198815,2.3083544,-2.3254385,0.04490653,4.261396,0.5396231,-9.680534
436,1715789406.2228818,2.3083544,-2.3254385,0.04490653,4.0311,0.41500658,-9.442297
437,1715789406.2341645,2.3083544,-2.3254385,0.04490653,3.853338,0.33376148,-9.263925
438,1715789406.2356076,1.4799937,-2.2719898,0.107385196,3.5100317,0.24396431,-8.888242
439,1715789406.2445958,1.1346527,-2.2734542,0.09225364,3.1306844,0.19570595,-8.615796
440,1715789406.2593014,0.8664337,-2.33276,0.05662128,2.8069258,0.15355626,-8.543103
441,1715789406.2726896,-0.42734426,-2.5531745,-0.27871338,1.8661933,0.088804536,-7.927962
442,1715789406.2828398,-1.8841829,-2.6993647,-0.6994986,0.7452556,0.08208502,-6.390414
443,1715789406.2960718,-2.6219985,-2.8348165,-0.84983784,-0.68539083,-0.34429893,-4.155869
444,1715789406.3029115,-2.9541605,-2.972709,-0.75734013,-1.6285667,-0.7175376,-2.3373232
445,1715789406.321527,-2.9541605,-2.972709,-0.75734013,-2.4807239,-1.105437,-0.1742493
446,1715789406.3236046,-2.8760622,-3.151847,-0.30873242,-2.8600712,-1.1029936,1.1830933
447,1715789406.3449225,-1.8597772,-3.0449498,0.21428227,-3.3139439,-0.45791987,6.8977375
448,1715789406.3614569,-1.033613,-3.0310385,0.33826336,-3.0622675,-0.44020477,8.870221
449,1715789406.3699696,-1.033613,-2.981739,0.3912238,-2.7739391,-0.60574925,9.92824
450,1715789406.3724036,-0.27432033,-2.981739,0.3912238,-2.7739391,-0.60574925,9.92824
451,1715789406.3744042,0.44027928,-2.908522,0.3785328,-2.3182335,-0.9380599,11.003363
452,1715789406.396967,1.3943295,-2.8106549,0.23966423,-2.3182335,-0.9380599,11.003363
453,1715789406.3991964,2.302741,-2.751349,0.114218794,-1.6377298,-1.4792866,12.506091
454,1715789406.411942,2.927802,-2.589295,0.0102504045,-1.604743,-1.5018885,12.542744
455,1715789406.4199245,2.927802,-2.589295,-0.03904916,-1.604743,-1.5018885,12.542744
456,1715789406.4219422,3.2021227,-2.4206207,-0.03904916,-1.7311921,-1.2917509,12.474326
457,1715789406.4295638,3.3068233,-2.2907825,-0.08297946,-1.7311921,-1.2917509,12.474326
458,1715789406.4315693,3.3068233,-2.2907825,-0.08297946,-2.0665572,-0.8128326,12.474326
459,1715789406.4325848,3.3068233,-2.2907825,-0.08297946,-2.1801782,-0.6735553,12.485933
460,1715789406.4351356,3.3475807,-2.2607634,-0.102504045,-2.1801782,-0.6735553,12.485933
461,1715789406.4432492,3.6756244,-2.2305002,0.061258372,-3.2467487,0.39118284,12.457222
462,1715789406.486162,4.249159,-1.9361672,0.23112221,-3.5014796,0.26962066,11.98258
463,1715789406.4881248,3.5533514,-1.653549,0.012935034,-3.803247,-0.83238024,11.013747
464,1715789406.4949713,3.5533514,-1.653549,0.012935034,-4.4312167,-0.83543456,11.553753
465,1715789406.4972613,3.5399284,-1.6337801,-0.10933765,-4.4312167,-0.83543456,11.553753
466,1715789406.5173073,3.5399284,-1.6337801,-0.10933765,-4.4312167,-0.83543456,12.329552
467,1715789406.5191698,3.93945,-1.3255055,0.8217713,-4.709771,-1.1268173,12.329552
468,1715789406.5355306,3.93945,-1.3255055,0.8217713,-2.0641136,-2.266081,11.810316
469,1715789406.537967,4.574762,-0.81322926,1.4992741,-2.0641136,-2.266081,11.810316
470,1715789406.5439763,4.7046003,-0.4229512,1.2764499,-2.0641136,-2.266081,11.810316
471,1715789406.5458078,4.7046003,-0.4229512,1.2764499,-0.7110472,-2.1200843,10.671052
472,1715789406.574101,4.497884,-0.13716017,0.8700946,-0.7110472,-2.1200843,10.671052
473,1715789406.575083,4.141773,0.18377511,0.10640897,-0.062308256,-1.4102588,6.9392767
474,1715789406.5831983,4.139821,0.4417436,0.09640261,-0.062308256,-1.4102588,6.9392767
475,1715789406.5960991,3.981184,0.5645349,0.39537275,-1.4587462,-0.65645105,3.8513527
476,1715789406.602882,3.6946604,0.66191375,0.5457425,-1.6603317,-0.35224018,3.200781
477,1715789406.6155517,3.6946604,0.66191375,0.5457425,-1.6603317,-0.35224018,2.4298692
478,1715789406.616534,3.6258366,0.777841,0.6243289,-1.9327776,0.06314819,2.4298692
479,1715789406.6268997,3.725168,0.85447496,0.6916887,-2.021964,0.35392004,1.9014708
480,1715789406.635155,3.896496,0.9860218,0.8190866,-2.0195205,1.1859186,0.22708915
481,1715789406.643486,3.896496,0.9860218,0.77173954,-2.007914,2.0802252,-1.730123
482,1715789406.6453552,3.8474405,0.880345,0.77173954,-2.007914,2.0802252,-1.730123
483,1715789406.6614811,3.6211994,0.6311625,0.8024908,-1.9773707,2.6605473,-3.0129402
484,1715789406.6809397,3.3905346,0.4544346,0.8254321,-1.8393153,3.0930398,-3.8418841
485,1715789406.6831641,3.1118214,0.27993366,0.8669218,-1.5974126,3.4106898,-4.3562326
486,1715789406.6850605,2.9724646,0.17376876,0.95014536,-0.98532563,3.5554647,-4.7484083
487,1715789406.698582,2.9724646,0.17376876,0.95014536,-0.98532563,3.0942616,-5.0104694
488,1715789406.7005665,3.0093174,0.17791773,0.96674126,-0.15332718,3.0942616,-5.0104694
489,1715789406.702578,3.0093174,0.17791773,0.96674126,0.4361578,2.4595726,-5.230992
490,1715789406.7041798,3.0974221,0.22282428,0.9071913,0.4361578,2.4595726,-5.230992
491,1715789406.7236385,3.2951086,0.3922,0.7929725,1.3017539,0.6709591,-6.1314073
492,1715789406.7396424,3.5182073,0.50888985,0.66215783,1.3029755,0.14072809,-6.8363457
493,1715789406.746757,3.7075956,0.49006698,0.57869023,0.9407325,0.42600214,-7.422776
494,1715789406.7602606,3.7993612,0.44491637,0.5957743,0.535118,1.0997865,-7.9249077
495,1715789406.766459,3.7993612,0.44491637,0.5957743,0.3005457,1.8487073,-8.364731
496,1715789406.7686732,3.8244991,0.3773125,0.6916887,0.3005457,1.8487073,-8.364731
497,1715789406.7763429,3.6914878,0.27017137,0.837635,0.29138273,2.5585327,-8.734915
498,1715789406.7895348,3.446424,0.06272271,1.1109791,0.81122905,3.1987195,-9.05623
499,1715789406.7973225,3.1328104,-0.07150877,1.2747415,0.81122905,3.1987195,-9.05623
500,1715789406.7998512,3.1328104,-0.07150877,1.2747415,1.7788396,3.237815,-9.100823
501,1715789406.801406,3.1328104,-0.07150877,1.2747415,2.9040534,2.9073367,-9.015913
502,1715789406.8088732,3.1328104,-0.20647243,1.3484468,2.9040534,2.9073367,-9.015913
503,1715789406.8107107,2.948303,-0.20647243,1.3484468,2.9040534,2.9073367,-9.015913
504,1715789406.8187099,2.8948545,-0.32972133,1.336488,3.9645154,2.4314728,-8.885188
505,1715789406.8272152,2.9678278,-0.5213368,1.3042724,5.058575,1.9476675,-8.877857
506,1715789406.8475842,2.5011902,-1.0880377,0.75172687,7.425678,0.5341253,-8.774621
507,1715789406.865367,2.5011902,-1.0880377,0.75172687,7.425678,0.5341253,-8.676271
508,1715789406.8666248,2.530965,-1.3499112,0.5315872,7.914981,-0.04680755,-8.676271
509,1715789406.8866851,2.6522617,-2.012069,-0.18963248,7.378641,-1.2874749,-9.177181
510,1715789406.8947675,2.6522617,-2.012069,-0.3619369,6.4586782,-1.3894894,-9.333563
511,1715789406.8964918,2.6161413,-2.1514256,-0.3619369,6.4586782,-1.3894894,-9.333563
512,1715789406.909945,2.56855,-2.2363577,-0.34558508,5.199685,-1.3534483,-9.381821
513,1715789406.9176073,2.5399952,-2.3229978,-0.24503349,5.199685,-1.3534483,-9.381821
514,1715789406.9198532,2.5399952,-2.3229978,-0.24503349,4.2253547,-1.1585823,-9.365938
515,1715789406.9276829,2.4845638,-2.4528365,-0.09469421,3.3457088,-0.89102334,-9.401979
516,1715789406.9406755,2.4845638,-2.4528365,-0.09469421,3.3457088,-0.4133267,-9.5718
517,1715789406.943229,1.5795995,-2.751837,0.6492228,2.3542747,-0.4133267,-9.5718
518,1715789406.9456203,1.5795995,-2.751837,0.6492228,2.079996,0.075976364,-9.688476
519,1715789406.9542646,1.5795995,-2.9151113,0.8525225,2.2583687,0.49991685,-9.805761
520,1715789406.95628,1.0192136,-2.9151113,0.8525225,2.2583687,0.49991685,-9.805761
521,1715789406.9679499,1.0192136,-3.144525,0.7917522,2.474615,0.7418195,-9.859518
522,1715789406.968982,0.5415935,-3.144525,0.7917522,2.474615,0.7418195,-9.859518
523,1715789406.9761233,-0.3287451,-3.5291898,0.40293851,2.5460863,0.9366855,-9.60662
524,1715789406.9921932,-0.3287451,-3.5291898,0.40293851,1.8191566,1.052139,-7.9688897
525,1715789406.9953458,-2.3056698,-3.8906388,-0.53305155,1.8191566,1.052139,-7.9688897
526,1715789407.0063794,-3.6368191,-3.912848,-1.0306844,0.44532076,1.0063242,-5.3323956
527,1715789407.009214,-4.512527,-3.7888668,-1.1837082,-1.0097603,0.8420014,-2.2377522
528,1715789407.02774,-4.512527,-3.7888668,-1.1837082,-2.1606305,0.72838044,0.7279987
529,1715789407.0287492,-4.3777766,-3.5272374,-0.80566347,-2.8307495,0.716774,2.8012753
530,1715789407.0361624,-2.438437,-3.2672858,-0.05735345,-2.8307495,0.716774,2.8012753
531,1715789407.0390549,-2.438437,-3.2672858,-0.05735345,-3.8789942,0.8786533,7.1915636
532,1715789407.0466278,-1.5071145,-3.1503823,0.18597162,-4.0414844,0.99532855,8.349764
533,1715789407.0756977,-0.07370529,-2.969292,0.409284,-4.1856484,0.9727265,10.206183
534,1715789407.0777004,0.30067852,-2.93488,0.4429639,-4.2076397,0.8627708,10.692432
535,1715789407.0850747,0.30067852,-2.9485471,0.49397188,-4.2076397,0.8627708,10.692432
536,1715789407.0871468,0.92134666,-2.9485471,0.49397188,-4.2766676,0.48586693,11.623391
537,1715789407.100269,1.4145863,-2.9919891,0.577714,-4.269337,0.27084237,12.0131235
538,1715789407.1023626,1.4145863,-2.9919891,0.577714,-4.2168026,0.012446379,12.456
539,1715789407.1038096,1.8197519,-3.0268893,0.6428773,-4.2168026,0.012446379,12.456
540,1715789407.1361814,3.1940687,-2.9629467,0.7595367,-3.879605,-0.2551126,12.39247
541,1715789407.1498435,3.8301127,-2.7154725,0.7519709,-3.6432004,-0.08895725,11.415697
542,1715789407.1584668,4.0304832,-2.4013402,0.74172044,-3.4617734,0.05093089,10.263605
543,1715789407.1908314,4.0304832,-2.4013402,0.74172044,-3.4898732,0.32398766,9.4481
544,1715789407.193641,3.430316,-2.1536222,-0.049787678,-4.295604,0.69356114,10.5898075
545,1715789407.202215,4.117856,-2.1853495,0.15936938,-6.4085875,0.76381063,12.217153
546,1715789407.2243662,4.6216207,-2.1111562,0.58820844,-6.4085875,0.76381063,12.217153
547,1715789407.2266426,5.030905,-1.8912607,1.4209318,-6.4116416,-0.79939353,11.065061
548,1715789407.234647,5.152933,-1.0995084,2.6739826,-4.347528,-2.1096995,9.700387
549,1715789407.2459366,5.152933,-1.0995084,2.6739826,-0.89919364,-2.97835,8.196437
550,1715789407.2478704,5.0511613,-0.31141704,3.0398245,-0.89919364,-2.97835,8.196437
551,1715789407.2714617,4.915221,0.31019676,2.3886495,1.7611245,-2.7743208,6.542214
552,1715789407.2736785,4.641389,0.6919328,1.6664839,2.8221974,-2.4475079,5.435326
553,1715789407.2753987,4.641389,0.6919328,1.6664839,3.349374,-2.106645,3.5856264
554,1715789407.283093,4.2530637,0.8422721,0.8530106,3.349374,-2.106645,3.5856264
555,1715789407.2852392,3.7259,0.89205974,0.040513504,2.5576928,-1.159804,1.9906571
556,1715789407.305825,3.4967303,0.8644812,-0.264314,0.21991149,1.0545825,0.7255552
557,1715789407.307236,3.4334886,0.86789805,-0.2767609,0.21991149,1.0545825,0.7255552
558,1715789407.340602,3.455454,0.9464845,-0.16742326,0.21991149,1.0545825,0.7255552
559,1715789407.3424,3.2355585,1.289629,-0.022941383,-0.7703011,2.6159542,-2.4711027
560,1715789407.3697104,2.8709369,1.1617429,-0.14228538,-0.6951646,1.2848787,-3.997655
561,1715789407.3977082,2.722794,0.79858583,0.057109397,-1.4581354,0.029550606,-4.8437033
562,1715789407.4225662,2.999799,0.92378724,0.7178029,-1.0512991,-0.39438987,-5.3672147
563,1715789407.4250734,3.2360466,1.0157968,0.9623482,-1.0512991,-0.39438987,-5.3672147
564,1715789407.4467614,3.2360466,1.0157968,0.9623482,-0.6267477,-0.41210496,-6.10514
565,1715789407.4488578,3.7493293,1.0387381,1.0226303,-0.4538729,-0.12072224,-6.71234
566,1715789407.4503434,3.772027,0.92085856,0.9479488,-0.4538729,-0.12072224,-6.71234
567,1715789407.4523537,3.772027,0.92085856,0.9479488,-0.45631635,0.33681583,-7.2999926
568,1715789407.4926655,3.7500615,0.7797934,1.0148206,-0.45631635,0.33681583,-7.2999926
569,1715789407.4950278,3.3209784,0.31190515,1.2530204,0.48808134,1.550605,-8.50584
570,1715789407.4972303,3.015663,0.16083373,1.233984,1.2278391,1.8377117,-8.612131
571,1715789407.522292,2.7310922,-0.2403964,1.0521613,3.1477885,2.194457,-8.864418
572,1715789407.53046,2.7310922,-0.2403964,0.94819295,3.1477885,2.194457,-8.864418
573,1715789407.5326455,2.2412388,-0.735375,0.6921768,3.1477885,2.194457,-8.864418
574,1715789407.5393891,2.2412388,-0.735375,0.6921768,4.0091085,2.049071,-8.797223
575,1715789407.5466855,2.1575272,-0.9689378,0.5630706,4.445877,1.8566486,-8.681159
576,1715789407.5668626,2.1575272,-0.9689378,0.5630706,4.445877,1.6440674,-8.620072
577,1715789407.5688493,2.2019455,-1.3696798,0.36047253,5.0524664,1.4229342,-8.6329
578,1715789407.5829127,2.2019455,-1.3696798,0.23771177,5.1746397,1.1969141,-8.659779
579,1715789407.5852978,2.2305002,-1.7750894,0.1147069,5.085453,0.9000336,-8.629846
580,1715789407.5939627,2.2448997,-1.9107853,0.0959145,4.880813,0.7870235,-8.530886
581,1715789407.60605,2.310307,-2.0786965,0.16888762,4.661513,0.793743,-8.423373
582,1715789407.6235652,2.310307,-2.3862088,0.27310005,4.569883,0.86887944,-8.394663
583,1715789407.6270773,2.2358694,-2.3862088,0.27310005,4.5393395,0.9507354,-8.463079
584,1715789407.6485195,1.4612013,-2.8445787,0.045394648,4.439769,1.160873,-8.965211
585,1715789407.659867,0.8395874,-3.0844872,-0.26748675,4.439769,1.160873,-8.965211
586,1715789407.6622033,0.8395874,-3.0844872,-0.26748675,4.1960335,1.2787701,-9.322567
587,1715789407.6690426,-0.01513155,-3.2858343,-0.73317844,3.7378845,1.215851,-9.414808
588,1715789407.6781633,-0.01513155,-3.2858343,-1.3264817,2.8179214,0.8639925,-8.863196
589,1715789407.6805332,-3.1503823,-3.5184515,-2.0616126,2.8179214,0.8639925,-8.863196
590,1715789407.6823158,-3.1503823,-3.5184515,-2.0616126,0.3268129,0.024663685,-6.080705
591,1715789407.6948907,-3.9201694,-3.4344652,-1.9203033,0.3268129,0.024663685,-6.080705
592,1715789407.6971917,-3.9201694,-3.4344652,-1.9203033,-1.9071213,-0.6894378,-2.6433666
593,1715789407.7041445,-3.5770252,-3.3973684,-1.2869444,-3.4104607,-0.94294685,0.44944412
594,1715789407.7121005,-2.8096786,-3.3551466,-0.7234162,-3.4104607,-0.94294685,0.44944412
595,1715789407.7136366,-2.8096786,-3.3551466,-0.7234162,-4.220468,-0.7584656,2.6412287
596,1715789407.7333436,-2.8096786,-3.3551466,-0.7234162,-4.6633453,-0.38950294,4.2838454
597,1715789407.734645,-1.110491,-2.9639227,0.38951537,-4.6798387,-0.2233476,6.201351
598,1715789407.7530496,-0.1889003,-2.6276119,0.78003746,-3.3939674,-0.96127284,8.032114
599,1715789407.7696085,0.08517598,-2.5509777,0.76246536,-2.8301387,-1.2746466,8.645423
600,1715789407.7768865,0.43320164,-2.4906654,0.6560564,-2.1813998,-1.6075683,9.529956
601,1715789407.7849216,0.43320164,-2.4906654,0.6560564,-1.7018706,-1.762728,10.447475
602,1715789407.7868154,0.81542575,-2.4779742,0.5396411,-1.7018706,-1.762728,10.447475
603,1715789407.7968915,1.4704754,-2.5458527,0.4368625,-1.2626585,-1.6533831,11.697917
604,1715789407.8190215,1.4704754,-2.5458527,0.4368625,-1.2626585,-1.6533831,12.960575
605,1715789407.8216467,2.6996086,-2.6832569,0.32337585,-0.9621128,-1.2160037,12.960575
606,1715789407.828539,3.3883383,-2.6756911,0.23527117,-0.91690874,-1.1451433,13.0454855
607,1715789407.834746,4.3714314,-2.564645,0.084931925,-0.9211848,-1.1811843,12.386362
608,1715789407.844129,4.5762258,-2.401096,0.035144243,-0.97433007,-1.1591932,11.758392
609,1715789407.8540792,4.4187784,-2.2844367,-0.022941383,-1.1502593,-0.7963392,11.37538
610,1715789407.8687673,4.335311,-2.2671087,-0.12495731,-1.4147639,-0.4200462,11.634387
611,1715789407.8767393,4.297238,-2.335933,-0.22306833,-1.4147639,-0.4200462,11.634387
612,1715789407.8792558,4.297238,-2.335933,-0.22306833,-1.8014416,0.06009387,12.153623
613,1715789407.8859718,4.3882713,-2.4269662,-0.30848834,-2.4733934,0.6220899,13.317931
614,1715789407.8965852,4.3882713,-2.4430742,-0.19939478,-2.8747318,0.25557074,13.955064
615,1715789407.897966,4.823212,-2.4430742,-0.19939478,-2.8747318,0.25557074,13.955064
616,1715789407.9175377,4.823212,-2.4430742,-0.19939478,-2.8747318,0.25557074,13.1071825
617,1715789407.919111,5.619601,-1.9171307,0.191829,-2.5442538,-0.8830821,13.1071825
618,1715789407.9254596,5.8604856,-1.3684595,0.23868799,-2.5442538,-0.8830821,13.1071825
619,1715789407.9274776,5.8604856,-1.3684595,0.23868799,-2.0971005,-1.2153927,11.752894
620,1715789407.9356952,5.355745,-0.38805103,0.19939478,-1.7104226,-1.1897364,9.342421
621,1715789407.9431295,4.749018,0.27944556,0.20574026,-1.7201965,-1.0626764,7.6057305
622,1715789407.955678,4.0639195,0.78906757,0.30507156,-1.894904,-0.88491464,5.806732
623,1715789407.9672387,3.6919758,0.9721105,0.41807005,-1.9657644,-0.7040986,4.7566547
624,1715789407.977599,3.2619166,1.0179932,0.6243289,-1.9211712,-0.45791987,3.6577084
625,1715789407.9842079,3.2619166,0.98577774,0.8537427,-1.6707164,-0.31803173,2.9118419
626,1715789407.986997,3.020788,0.98577774,0.8537427,-1.6707164,-0.31803173,2.9118419
627,1715789407.9962363,3.118411,0.95575863,1.1961551,-0.77824235,-0.41027236,1.9625573
628,1715789408.003273,3.4071307,0.944288,1.2989032,-0.77824235,-0.41027236,1.9625573
629,1715789408.0047567,3.4071307,0.944288,1.2989032,0.045814894,-0.6863835,1.1556044
630,1715789408.020152,3.4071307,0.8945003,1.1837082,0.7275405,-0.7254788,0.24785857
631,1715789408.023191,3.6438966,0.8945003,1.1837082,0.7275405,-0.7254788,0.24785857
632,1715789408.0241804,3.6438966,0.8945003,1.1837082,1.246776,-0.37850738,-0.7991645
633,1715789408.0314207,3.1413524,1.0819362,0.50059193,1.246776,-0.37850738,-0.7991645
634,1715789408.0497432,3.1413524,1.0819362,0.50059193,1.246776,1.4137713,-2.559678
635,1715789408.0521483,2.619802,1.3096417,-0.05832968,0.7733554,2.1003838,-3.0159945
636,1715789408.0715582,2.5844138,1.2964627,-0.2135501,0.7733554,2.1003838,-3.0159945
637,1715789408.0747526,2.5844138,1.2964627,-0.2135501,0.49174652,2.2970824,-3.3745723
638,1715789408.0820713,2.6041822,1.2535084,-0.3590082,0.226631,2.0441842,-3.7679696
639,1715789408.09403,2.5399952,1.2081139,-0.3653537,-0.099571034,1.1327733,-4.3482914
640,1715789408.0950644,2.5202267,1.2054292,-0.22453266,-0.2602286,0.3123812,-4.685489
641,1715789408.1098082,2.5202267,1.2054292,-0.22453266,-0.2950479,-0.016875152,-4.803386
642,1715789408.1129334,2.6112602,1.2007922,-0.10128376,-0.2950479,-0.016875152,-4.803386
643,1715789408.124614,2.6112602,1.2007922,-0.10128376,-0.2950479,-0.2764929,-5.6439366
644,1715789408.1266603,3.1728358,1.2105545,0.0046370877,-0.42210788,-0.2764929,-5.6439366
645,1715789408.1375148,3.1728358,1.2105545,0.0046370877,-0.6462954,-0.10972667,-5.960365
646,1715789408.138871,3.281685,1.2171439,-0.04271002,-0.6462954,-0.10972667,-5.960365
647,1715789408.1413655,3.281685,1.2171439,-0.04271002,-1.3041973,0.20242546,-6.6500316
648,1715789408.1484416,3.5614054,1.2286147,0.052716363,-1.3041973,0.20242546,-6.6500316
649,1715789408.154969,3.798873,1.187369,0.3031191,-1.5711454,0.47731483,-7.1283393
650,1715789408.1725867,3.798873,1.187369,0.509378,-1.5968018,0.6648505,-7.4881387
651,1715789408.175143,3.93945,1.0907223,0.509378,-1.500285,0.85605127,-7.850382
652,1715789408.1774087,3.9716654,1.0011533,0.6255492,-1.500285,0.85605127,-7.850382
653,1715789408.1852214,3.913824,0.78247803,0.7922403,-1.1368202,1.1932489,-8.37145
654,1715789408.1958973,3.602895,0.51621157,0.824944,-0.43982297,1.573818,-8.811273
655,1715789408.213211,3.3009658,0.34607318,0.79638934,-0.43982297,1.573818,-8.811273
656,1715789408.214312,3.1132858,0.1889003,0.7697871,0.63041294,1.9214003,-8.807608
657,1715789408.2296853,2.999799,0.014643434,0.748066,0.63041294,1.9214003,-8.807608
658,1715789408.2312493,2.999799,0.014643434,0.748066,1.2211196,2.0093648,-8.743467
659,1715789408.2380676,2.999799,0.014643434,0.748066,2.158187,1.9397262,-8.782562
660,1715789408.2397046,2.845799,-0.38829508,0.65337175,2.158187,1.9397262,-8.782562
661,1715789408.260813,2.6869178,-0.60944146,0.52572984,2.158187,1.9397262,-8.782562
662,1715789408.2631726,2.6571429,-0.90377444,0.35876414,3.571118,1.4113278,-8.817992
663,1715789408.2808578,2.6571429,-0.90377444,0.35876414,3.9156463,1.0448086,-8.88641
664,1715789408.2823415,2.708395,-1.2976829,0.0319715,3.6865718,1.0802388,-8.844871
665,1715789408.284442,2.7379258,-1.5849687,-0.08151512,3.6865718,1.0802388,-8.844871
666,1715789408.2977018,2.722794,-1.7899768,-0.15326795,3.3707545,1.3166437,-8.662222
667,1715789408.3162153,2.722794,-2.2902942,-0.045882765,2.7855456,1.9372828,-8.2126255
668,1715789408.317285,2.717181,-2.2902942,-0.045882765,2.7855456,1.9372828,-8.2126255
669,1715789408.3306344,2.3735178,-2.9644108,-0.14374973,2.637716,2.2909737,-8.181471
670,1715789408.3370295,2.3735178,-2.9644108,-0.14374973,2.6108382,2.8169286,-8.455138
671,1715789408.3658357,0.1432616,-3.923342,-1.1392897,2.574186,2.7124708,-8.876025
672,1715789408.3680964,0.1432616,-3.923342,-1.1392897,2.0793853,1.9134591,-8.57609
673,1715789408.3967707,0.1432616,-3.923342,-1.1392897,2.0793853,0.3581961,-3.6042576
674,1715789408.3978074,-2.9753933,-3.8132722,-1.4299619,-1.1496484,0.3581961,-3.6042576
675,1715789408.404988,-2.9753933,-3.8132722,-1.4299619,-1.5796975,0.3459788,-2.0905335
676,1715789408.4069188,-3.3375745,-3.6883152,-1.1910299,-1.5796975,0.3459788,-2.0905335
677,1715789408.441265,-3.3375745,-3.6883152,-1.1910299,-1.8723019,0.33437237,2.0847304
678,1715789408.443776,-1.153445,-2.4401455,-0.011958805,-1.4337007,0.36247218,8.903819
679,1715789408.4561074,-1.153445,-2.2568583,0.04905551,-1.41904,0.40523273,9.711994
680,1715789408.4584024,-0.24161668,-2.2568583,0.04905551,-1.41904,0.40523273,9.711994
681,1715789408.4697037,0.27310005,-2.1475208,0.087616555,-1.4239268,0.33987015,10.000933
682,1715789408.4813044,0.9618601,-1.9937646,0.15741692,-1.4239268,0.33987015,10.000933
683,1715789408.483107,1.4785293,-1.8270735,0.23673552,-1.1985176,-0.16470455,9.444435
684,1715789408.4989653,1.4785293,-1.7650831,0.24723,-1.0665708,-0.35162932,9.149998
685,1715789408.50143,1.5588547,-1.7650831,0.24723,-1.0665708,-0.35162932,9.149998
686,1715789408.502328,1.5454315,-1.8036441,0.191829,-1.0262536,-0.40172026,9.24346
687,1715789408.52621,1.5454315,-1.8036441,0.191829,-1.087951,-0.3742313,9.519571
688,1715789408.5273614,1.5661764,-2.0960245,0.0012202862,-1.4886786,-0.16653714,10.579422
689,1715789408.5344622,1.5661764,-2.0960245,-0.099819414,-1.8332067,-0.04314236,11.214111
690,1715789408.5355725,1.8963859,-2.2795556,-0.099819414,-1.8332067,-0.04314236,11.214111
691,1715789408.5434115,3.135495,-2.560496,0.016351834,-3.0158417,0.096134916,12.597721
692,1715789408.5684006,5.017482,-2.2131722,0.255772,-3.8185186,0.2598468,12.37048
693,1715789408.630516,5.0438395,-1.9832702,0.09542638,-5.220454,0.41928264,11.710745
694,1715789408.6315165,5.033833,-1.7499515,1.8897963,-6.5851274,-0.67844224,10.738858
695,1715789408.6455274,5.2898493,-0.6829027,2.344475,-2.2974641,-2.1781163,9.675953
696,1715789408.6585312,4.454899,1.1112231,0.7766207,0.050701816,-2.5293639,7.621613
697,1715789408.661046,4.454899,1.1112231,0.7766207,0.5369505,-2.5770113,5.498856
698,1715789408.6720498,4.0107145,1.4697433,0.31556603,0.1337795,-2.410856,4.0785947
699,1715789408.6853635,4.0107145,1.4697433,0.31556603,0.1337795,-2.410856,2.277153
700,1715789408.6866465,3.4979506,1.7807027,0.15717287,-1.6132951,-0.8458193,0.7787005
701,1715789408.6882741,3.0481224,1.7977866,0.33191785,-1.6132951,-0.8458193,0.7787005
702,1715789408.6997726,3.0481224,1.7977866,0.33191785,-2.0011945,0.8682686,-0.73929965
703,1715789408.701775,2.1504493,1.229835,0.94965726,-2.0011945,0.8682686,-0.73929965
704,1715789408.725775,2.1504493,1.229835,0.94965726,-1.6481144,1.7815121,-1.5761851
705,1715789408.7271955,1.9693589,0.8022467,0.9623482,-0.35613444,1.8242728,-2.46927
706,1715789408.7339103,1.9183509,0.70267135,0.84764135,0.28405234,1.3893366,-2.809522
707,1715789408.7585335,1.8009595,0.7075525,0.36169282,1.3481796,-0.17447838,-3.2194126
708,1715789408.7733386,1.8009595,0.7075525,0.36169282,1.3970488,-0.6356816,-3.3330336
709,1715789408.7748525,1.9488581,0.7922403,0.2562601,1.3970488,-0.6356816,-3.3330336
710,1715789408.786974,1.9488581,1.1139078,-0.056377225,1.119716,-0.55443656,-3.866319
711,1715789408.7879558,2.8040652,1.1139078,-0.056377225,1.119716,-0.55443656,-3.866319
712,1715789408.800541,2.8040652,1.1139078,-0.056377225,1.119716,-0.29298624,-4.6799912
713,1715789408.8028414,3.0656946,1.1375813,-0.11275445,0.059253927,-0.123165704,-5.307961
714,1715789408.8038666,3.2233558,1.1075623,-0.1466784,0.059253927,-0.123165704,-5.307961
715,1715789408.823059,3.2233558,1.1075623,-0.1581491,-0.46609017,-0.038255434,-5.797875
716,1715789408.8251138,3.3419676,1.0653404,-0.1581491,-0.46609017,-0.038255434,-5.797875
717,1715789408.8261166,3.4837646,0.9633245,-0.08102701,-0.46609017,-0.038255434,-5.797875
718,1715789408.8334582,3.4837646,0.9633245,-0.08102701,-1.1178834,0.093080595,-6.340934
719,1715789408.834759,3.538952,0.92232287,0.09176553,-1.4037683,0.17860173,-6.589556
720,1715789408.8522017,3.468389,0.7426967,0.51914024,-1.704925,0.9067531,-7.1271176
721,1715789408.876572,3.407863,0.6753369,0.667283,-1.4391985,1.192638,-7.244404
722,1715789408.8778934,3.3265917,0.61578697,0.7163385,-1.1203269,1.3728433,-7.3445854
723,1715789408.8985407,3.2062716,0.55965376,0.70413566,-1.1203269,1.3728433,-7.3445854
724,1715789408.9006317,2.7364614,0.48494175,0.50913393,0.05131268,1.7692949,-7.5864882
725,1715789408.9023943,2.5082679,0.43051702,0.46639338,0.50823987,1.9830977,-7.4881387
726,1715789408.925072,2.5082679,0.43051702,0.39781332,1.6310102,2.312965,-7.451487
727,1715789408.9268975,2.3144557,0.2421048,0.39781332,1.6310102,2.312965,-7.451487
728,1715789408.9333246,2.130437,-0.0039049159,0.2928687,1.6310102,2.312965,-7.451487
729,1715789408.9354544,2.130437,-0.0039049159,0.2928687,2.4966063,2.1926243,-7.55228
730,1715789408.961964,1.9561797,-0.31263736,0.20793676,3.3084462,1.9311742,-7.685448
731,1715789408.9632306,1.7023603,-0.57795805,0.14106509,4.0598106,1.6330719,-7.7556977
732,1715789408.9746563,1.4116577,-0.80371106,0.041001618,4.8154507,1.1694251,-7.6378007
733,1715789408.9831436,1.1329442,-1.118789,-0.1696198,5.7555723,0.29100093,-7.062977
734,1715789408.9952102,1.089258,-1.1717494,-0.25308737,5.871026,0.05093089,-6.78992
735,1715789409.0024374,1.089258,-1.1717494,-0.25308737,5.7354136,-0.16959146,-6.331771
736,1715789409.0096934,1.1112231,-1.170285,-0.37828872,5.7354136,-0.16959146,-6.331771
737,1715789409.0258718,1.2081139,-1.1522248,-0.49812084,5.7354136,-0.16959146,-6.331771
738,1715789409.0273457,1.3784659,-1.1595465,-0.594798,4.4764204,-0.22090414,-5.7807703
739,1715789409.035131,1.3784659,-1.1595465,-0.594798,3.7745364,-0.14149167,-5.6866975
740,1715789409.0361254,1.4675467,-1.1805354,-0.6167632,3.7745364,-0.14149167,-5.6866975
741,1715789409.0498278,1.5085789,-1.2593659,-0.50864583,3.7745364,-0.14149167,-5.6866975
742,1715789409.0520344,1.5085789,-1.2593659,-0.50864583,1.2547172,0.7082219,-5.637828
743,1715789409.052556,1.4492424,-1.3735847,-0.28749946,1.2547172,0.7082219,-5.637828
744,1715789409.0700223,1.3289223,-1.4856069,-0.0353883,0.54367006,1.1504884,-5.701969
745,1715789409.0818844,1.0997524,-1.6035172,0.37609223,0.54367006,1.1504884,-5.701969
746,1715789409.0976772,0.22746135,-2.1199422,1.0904783,0.5119051,3.8450148,-6.276182
747,1715789409.1191328,-1.2051852,-2.8172445,0.6933971,1.7983873,4.845001,-5.838803
748,1715789409.1302943,-1.2051852,-2.8172445,-0.044662476,2.0885482,4.3941827,-4.5743117
749,1715789409.1331072,-2.713764,-2.9326832,-0.044662476,2.0885482,4.3941827,-4.5743117
750,1715789409.1341128,-3.752014,-2.8616626,-0.59528613,2.0885482,4.3941827,-4.5743117
751,1715789409.1341128,-3.752014,-2.8616626,-0.59528613,1.9150625,3.6434293,-3.12595
752,1715789409.1456037,-3.752014,-2.8616626,-0.59528613,1.9150625,3.6434293,2.6222918
753,1715789409.1473095,-4.671408,-2.5500016,-1.4836545,0.034208454,1.2134074,2.6222918
754,1715789409.1721168,-1.7684999,-2.472361,-0.5930896,-2.4758368,1.3361914,7.5141006
755,1715789409.1790872,-1.7684999,-2.472361,-0.5930896,-3.1245756,1.9812651,8.1994915
756,1715789409.1805947,-0.48567393,-2.1704621,0.06931226,-3.1245756,1.9812651,8.1994915
757,1715789409.1825948,-0.48567393,-2.1704621,0.06931226,-3.4507778,2.389323,8.496372
758,1715789409.206275,0.01513155,-2.08553,0.3048275,-3.4507778,2.389323,8.496372
759,1715789409.2075765,0.46444094,-2.036963,0.4634647,-3.8728857,2.8639653,8.879995
760,1715789409.2090907,0.46444094,-2.036963,0.4634647,-4.001778,2.598239,9.013164
761,1715789409.221052,0.8115209,-2.0128012,0.5406173,-3.92542,2.1119902,9.03149
762,1715789409.2331724,1.3945737,-1.9764366,0.47469133,-3.7421606,0.7772497,9.069975
763,1715789409.2513046,1.7519039,-2.012313,0.37755656,-3.7421606,0.7772497,9.069975
764,1715789409.2527747,2.0469692,-2.0738153,0.30458343,-3.853338,-0.7578547,9.523236
765,1715789409.2737901,2.0469692,-2.0738153,0.33777523,-4.1300597,-0.942336,9.88548
766,1715789409.276421,2.9824712,-2.1489851,0.33777523,-4.1300597,-0.942336,9.88548
767,1715789409.2846146,3.4339771,-1.9923004,0.35974038,-4.17954,-0.78656536,9.773691
768,1715789409.2951477,3.4339771,-1.9923004,0.35974038,-4.70183,-0.1830305,9.861045
769,1715789409.296168,3.8298683,-1.7599578,0.11592719,-4.70183,-0.1830305,9.861045
770,1715789409.3062098,4.2354918,-1.6718532,0.053692598,-5.225952,0.04848743,10.029644
771,1715789409.3331146,4.3716755,-1.1173246,0.20305562,-5.225952,0.04848743,10.029644
772,1715789409.3359418,4.3716755,-1.1173246,0.20305562,-5.983425,0.38507417,10.4102125
773,1715789409.3359418,4.760001,-1.0665606,0.62701356,-6.1037655,-0.27038422,10.536662
774,1715789409.3638263,4.760001,-1.0665606,0.62701356,-6.1037655,-0.99792475,8.751714
775,1715789409.365828,5.308886,0.6250611,1.413366,-2.7953193,-0.98020965,6.87819
776,1715789409.3968272,5.308886,0.6250611,1.2276385,-2.7953193,-0.98020965,6.87819
777,1715789409.397841,3.5626256,1.6066898,0.97674763,-1.822211,0.4815909,0.9063713
778,1715789409.4198308,3.5626256,1.6066898,0.97674763,-1.822211,0.4815909,-0.36361754
779,1715789409.4221876,2.3998759,1.2725451,1.221049,-0.8405506,0.9317986,-1.0917689
780,1715789409.4289117,2.2439234,1.1070741,1.2234895,-0.111177474,0.96600705,-1.5395331
781,1715789409.4535398,1.8690515,0.85886794,0.21135357,1.9932534,0.071700305,-2.5951083
782,1715789409.4700098,1.7484872,0.9855337,-0.07175283,1.9712621,-0.24900395,-2.6225972
783,1715789409.505283,2.9531841,1.7170037,-0.55818945,0.28588495,-0.51778466,-3.5382843
784,1715789409.518334,3.2775364,1.7789943,-0.6194478,-0.4147775,-0.41271582,-4.419152
785,1715789409.5292475,3.2775364,1.7789943,-0.6194478,-0.95722586,-0.4133267,-5.0190215
786,1715789409.5302575,3.3988328,1.7399452,-0.641657,-0.95722586,-0.4133267,-5.0190215
787,1715789409.532272,3.328056,1.5737422,-0.62701356,-2.0494528,-0.17508925,-5.965252
788,1715789409.5491676,3.1110892,1.4555879,-0.51011014,-2.0494528,-0.17508925,-5.965252
789,1715789409.5517192,3.1110892,1.4555879,-0.51011014,-2.8166997,0.25312728,-6.3788075
790,1715789409.5537493,3.002972,1.3098857,-0.16937573,-3.43123,0.69417197,-6.5797825
791,1715789409.5857213,2.909498,1.2356924,0.99090296,-2.516154,0.889038,-7.007388
792,1715789409.60173,2.9512317,1.0072547,0.914513,-0.9224065,1.0307587,-7.654294
793,1715789409.6181002,2.9512317,1.0072547,0.914513,-0.5180137,1.301372,-7.984772
794,1715789409.6198454,2.683745,0.72097564,0.7841864,-0.5180137,1.301372,-7.984772
795,1715789409.628434,2.683745,0.72097564,0.7841864,-0.20586158,1.5017358,-8.147263
796,1715789409.6304467,2.4313593,0.46029195,0.71316576,-0.20586158,1.5017358,-8.147263
797,1715789409.6418495,2.4313593,0.46029195,0.71316576,0.062308256,1.6342936,-8.218734
798,1715789409.643104,1.7243255,-0.29091623,0.709749,1.1429288,1.8432095,-8.292648
799,1715789409.6601675,1.7243255,-0.29091623,0.709749,1.8997909,1.8102227,-8.156425
800,1715789409.6622381,1.413366,-0.56843984,0.67972994,1.8997909,1.8102227,-8.156425
801,1715789409.6702285,1.2144594,-0.8386112,0.6253052,2.7714956,1.6538413,-7.836332
802,1715789409.683464,1.1253785,-0.9396509,0.5908931,3.3487632,1.4779121,-7.5803795
803,1715789409.6914742,1.0511851,-1.0609474,0.4742032,4.0860777,1.1639273,-7.1271176
804,1715789409.6992786,1.1695529,-1.2286147,0.3773125,4.6547933,0.8291732,-6.657362
805,1715789409.7163618,1.336976,-1.4109254,0.3226437,4.6547933,0.8291732,-6.657362
806,1715789409.717548,1.4882916,-1.6559894,0.302631,4.9791627,0.6801221,-6.3836946
807,1715789409.7304251,1.585945,-1.914446,0.3099527,5.393329,0.65935266,-6.166837
808,1715789409.7374098,1.5888737,-2.2036538,0.19304928,5.4513617,0.6978372,-6.2664084
809,1715789409.7551548,1.5888737,-2.2036538,-0.5206046,4.447099,1.446758,-6.4734917
810,1715789409.757224,0.99383163,-2.9238973,-0.5206046,4.447099,1.446758,-6.4734917
811,1715789409.7741816,-0.36047253,-3.5833704,-1.2593659,2.4459045,1.5493833,-5.98541
812,1715789409.7866142,-1.0953594,-3.6602485,-1.4529033,1.5534303,1.3410783,-5.3965364
813,1715789409.8024116,-3.3602717,-3.7278523,-0.9362341,-2.126422,0.112017415,0.34193182
814,1715789409.8118994,-3.2294571,-3.6600044,-0.49738866,-2.126422,0.112017415,0.34193182
815,1715789409.8133643,-3.2294571,-3.6600044,-0.49738866,-2.85213,0.7931322,3.1488576
816,1715789409.8330204,-3.2294571,-3.6600044,-0.49738866,-2.85213,1.3881149,8.639925
817,1715789409.8353472,-1.8136505,-3.432757,0.21135357,-3.5888333,1.3881149,8.639925
818,1715789409.8449347,-1.8136505,-3.432757,0.21135357,-3.7116172,1.224403,10.679605
819,1715789409.8461876,-0.60089946,-3.4610672,0.43930307,-3.7116172,1.224403,10.679605
820,1715789409.8645437,1.8734444,-3.284614,0.70145106,-3.5503488,0.8316167,11.807873
821,1715789409.8666077,1.8734444,-3.284614,0.70145106,-3.1471777,0.18837558,12.1664505
822,1715789409.8887675,1.8734444,-2.7415867,0.60334,-2.475226,-0.42371142,11.510992
823,1715789409.8900943,3.096202,-2.7415867,0.60334,-2.475226,-0.42371142,11.510992
824,1715789409.8977423,3.096202,-2.7415867,0.60334,-2.0928242,-0.88919073,10.6551695
825,1715789409.900409,3.2326298,-2.319337,0.4002539,-2.0928242,-0.88919073,10.6551695
826,1715789409.907022,3.2326298,-2.319337,0.29311275,-2.0928242,-0.88919073,10.6551695
827,1715789409.9088576,3.2646015,-2.2322085,0.29311275,-2.1484132,-1.0339658,10.609355
828,1715789409.9189873,3.3719866,-2.0152416,0.26553428,-2.2950208,-1.0058659,10.971598
829,1715789409.9318998,3.5884957,-1.7179799,0.010982576,-2.2950208,-1.0058659,10.971598
830,1715789409.9331126,3.5884957,-1.7179799,0.010982576,-2.6615398,-0.7578547,11.429136
831,1715789409.9475887,3.5884957,-1.7179799,0.010982576,-4.8331656,-0.57276255,12.178668
832,1715789409.9488914,4.5274143,-1.5061383,-0.10372432,-4.8331656,-0.57276255,12.178668
833,1715789409.9576004,4.5274143,-1.5061383,-0.10372432,-4.754364,-0.9142362,12.672247
834,1715789409.9597323,5.1460996,-1.0973119,0.98455745,-4.754364,-0.9142362,12.672247
835,1715789409.9800935,5.1460996,-1.0973119,0.98455745,-4.754364,-0.9142362,11.275198
836,1715789409.9811661,7.353658,0.18450728,1.6701448,-2.7464502,-0.8458193,11.275198
837,1715789409.9921503,7.7905517,0.69095653,1.4724278,-2.2540927,-0.6369034,9.944122
838,1715789410.0010684,7.7905517,0.69095653,1.4724278,-2.094046,0.06375906,7.453625
839,1715789410.0032349,7.1264415,1.5344489,0.8107887,-2.094046,0.06375906,7.453625
840,1715789410.010587,4.917662,2.1685097,0.16425052,-2.094046,0.06375906,7.453625
841,1715789410.0115888,4.917662,2.1685097,0.16425052,-3.4348953,0.77053016,5.1573825
842,1715789410.025139,3.926515,2.9417136,1.3940855,-3.3841934,0.01488984,3.120147
843,1715789410.0384362,3.9614153,3.1711273,1.521758,-2.9254336,-0.037033707,2.182469
844,1715789410.0525167,3.7568953,3.054468,1.131724,-1.2296717,0.8462774,-3.1619911
845,1715789410.0862517,3.7568953,2.4264781,0.5098661,-0.9089675,1.509677,-5.3556085
846,1715789410.0877502,2.3476477,2.33276,0.37658033,-0.88086766,1.4925729,-5.588348
847,1715789410.0963452,2.572943,2.3827918,0.34973404,-0.93401295,1.188362,-5.533981
848,1715789410.1135917,2.572943,2.3984118,0.57405317,-0.93523467,1.0515282,-5.8119245
849,1715789410.1149244,3.36198,2.3984118,0.57405317,-0.93523467,1.0515282,-5.8119245
850,1715789410.1278646,3.8681853,2.3517966,0.9457524,-0.93523467,1.0515282,-5.8119245
851,1715789410.128964,4.0268226,2.2622275,1.1446589,-0.2932153,1.3392457,-7.0379314
852,1715789410.1372614,4.0268226,2.2622275,1.1446589,0.021991149,1.4724144,-7.4136133
853,1715789410.1385229,4.027311,2.131413,1.2105545,0.021991149,1.4724144,-7.4136133
854,1715789410.1639693,4.0068097,1.6833237,1.2027446,0.021991149,1.4724144,-7.4136133
855,1715789410.165025,3.8418274,0.8705827,0.9894386,1.4556919,1.8768071,-8.54127
856,1715789410.182171,3.2604523,-0.09274176,0.74538136,2.7763824,1.5023468,-9.2785845
857,1715789410.2008157,2.3735178,-1.0485004,0.40635532,3.5008688,0.80229515,-9.506437
858,1715789410.2113276,1.7677675,-1.3630903,0.16986385,3.82646,0.1175152,-9.376934
859,1715789410.2307022,0.8876667,-1.6054696,-0.25650415,3.604105,-0.55626917,-8.646339
860,1715789410.2523894,0.8876667,-1.6054696,-0.25650415,3.14168,-0.7389179,-8.0366955
861,1715789410.253626,0.40391475,-1.7292067,-0.24161668,1.8270979,-0.285045,-6.6103253
862,1715789410.269846,0.23039004,-1.8304904,-0.18377511,1.2235631,0.49686253,-5.9261565
863,1715789410.303237,-0.46932206,-2.2270834,-0.05759751,0.68539083,2.0429626,-4.5749226
864,1715789410.3047013,-0.7046238,-2.4464908,-0.21550256,0.84299403,2.697199,-2.4222333
865,1715789410.3174875,-0.9264718,-2.5748954,-0.4288086,0.8735373,2.4913375,-1.4552337
866,1715789410.327776,-0.9264718,-2.695948,-0.6848551,0.68844515,2.226222,-0.5902485
867,1715789410.3292823,-0.98577774,-2.695948,-0.6848551,0.68844515,2.226222,-0.5902485
868,1715789410.3526678,-0.9093878,-2.819685,-0.9257397,-0.88086766,1.8768071,1.3932309
869,1715789410.3544428,-0.8351944,-2.8255422,-0.89205974,-1.640784,2.0307453,2.1843014
870,1715789410.3758917,-0.8351944,-2.8255422,-0.89205974,-2.2314909,2.1413116,3.088382
871,1715789410.378303,-0.94965726,-2.7584264,-0.6409248,-2.5234842,2.072284,3.9765801
872,1715789410.3796594,-0.9777239,-2.6898463,-0.42978483,-2.5234842,2.072284,3.9765801
873,1715789410.3875346,-0.8217713,-2.5702584,-0.15717287,-2.5607471,1.8523725,4.8171306
874,1715789410.4045055,-0.8217713,-2.5702584,-0.15717287,-2.0867157,1.1871402,6.069404
875,1715789410.405793,-0.31581008,-2.1963322,0.15082738,-1.5961909,0.5970444,6.8403163
876,1715789410.4185848,0.10543273,-2.0542908,0.082247294,-1.2211196,0.057039544,7.48539
877,1715789410.4348242,0.10543273,-2.0542908,0.082247294,-1.2211196,-0.6436229,8.195215
878,1715789410.4371219,0.99798054,-1.8548961,0.057841565,-0.58032197,-1.0211376,8.521418
879,1715789410.4446075,1.5429909,-1.7467787,0.030751213,-0.58032197,-1.0211376,8.521418
880,1715789410.4459221,1.5429909,-1.7467787,0.030751213,-0.15271631,-1.6863699,9.044929
881,1715789410.4531374,1.5429909,-1.7467787,0.030751213,-0.018325957,-1.9514854,9.67412
882,1715789410.45424,2.0782084,-1.6930863,-0.13716017,-0.018325957,-1.9514854,9.67412
883,1715789410.4698853,2.7413425,-1.3999429,-0.46273252,-0.54183745,-1.7462347,10.459693
884,1715789410.4794312,2.7413425,-1.1119553,-0.5640468,-1.3090842,-1.4175892,10.919064
885,1715789410.4817188,3.4544778,-1.1119553,-0.5640468,-1.3090842,-1.4175892,10.919064
886,1715789410.5047238,4.0844197,-0.7446492,-0.63701993,-1.3090842,-1.4175892,10.919064
887,1715789410.507725,4.0844197,-0.7446492,-0.63701993,-3.9339721,-0.30153835,10.935557
888,1715789410.509724,5.8761053,-0.06345488,-0.26114124,-4.8576,0.16577356,10.413267
889,1715789410.5193534,6.386429,0.22502078,0.50766957,-5.7464094,0.37713292,9.521404
890,1715789410.5305853,6.475022,0.409284,1.5263951,-4.108069,-0.5923102,7.440797
891,1715789410.5369549,5.7531004,0.97552735,2.4733372,-4.108069,-0.5923102,7.440797
892,1715789410.558719,5.4694753,1.948126,1.460469,-0.5369505,-1.0052551,5.7199893
893,1715789410.5723414,5.5446754,2.48554,0.6155429,-0.5369505,-1.0052551,5.7199893
894,1715789410.574639,5.5446754,2.48554,0.6155429,-0.61636305,-0.5422193,3.9863539
895,1715789410.581585,5.343298,2.7801476,0.26651052,-0.61636305,-0.5422193,3.9863539
896,1715789410.5835993,5.343298,2.7801476,0.26651052,-1.1258247,-0.20990857,2.5367706
897,1715789410.590745,4.784895,2.9458625,0.36510965,-1.1258247,-0.20990857,2.5367706
898,1715789410.5917854,4.784895,2.9458625,0.36510965,-1.8399261,0.25557074,0.6070473
899,1715789410.5943663,3.6646414,2.8662999,0.6423892,-1.8399261,0.25557074,0.6070473
900,1715789410.595563,3.6646414,2.8662999,0.6423892,-2.329229,0.9153052,-1.4112514
901,1715789410.610663,3.0825346,2.6507971,0.79663336,-2.2974641,1.2995394,-2.568841
902,1715789410.6299095,3.0825346,2.6507971,0.79663336,-1.8142698,1.5701528,-3.7081048
903,1715789410.6309934,2.166069,2.1475208,0.863505,-1.2577715,1.718593,-4.404491
904,1715789410.6506076,2.166069,2.1475208,0.863505,-1.2577715,1.7644079,-4.9383874
905,1715789410.6529207,2.0389154,1.8971181,0.573321,0.07269296,1.3972778,-5.611561
906,1715789410.6540377,2.249781,1.8907725,0.5437901,0.68477994,0.879875,-6.108805
907,1715789410.6725428,3.1323223,1.7504396,0.32850105,1.0238101,0.57077724,-6.568176
908,1715789410.6740503,3.1323223,1.7504396,0.32850105,1.1270463,0.526184,-7.07947
909,1715789410.6985881,3.1323223,1.7504396,0.32850105,1.0958922,0.5634468,-7.659792
910,1715789410.700789,3.5018554,0.99358755,0.19841854,0.87109387,0.8810968,-8.47041
911,1715789410.7019851,3.5018554,0.99358755,0.19841854,0.6609562,1.0289261,-8.780729
912,1715789410.7162635,3.5018554,0.99358755,0.19841854,0.6609562,1.0289261,-9.048288
913,1715789410.7185915,3.4239707,0.57673776,0.3380193,0.5674938,1.1578187,-9.048288
914,1715789410.7281,3.4239707,0.32093528,0.4927516,0.5674938,1.1578187,-9.048288
915,1715789410.729395,3.2567914,0.32093528,0.4927516,0.6462954,1.2286791,-9.301798
916,1715789410.7368171,3.2567914,0.32093528,0.4927516,0.6462954,1.15171,-9.419695
917,1715789410.738882,3.0234728,-0.0024405725,0.68021804,0.89552844,1.15171,-9.419695
918,1715789410.740082,3.0234728,-0.0024405725,0.68021804,1.6694947,0.8420014,-9.584628
919,1715789410.7458003,2.8170002,-0.5396411,0.91719764,1.6694947,0.8420014,-9.584628
920,1715789410.7559817,2.5744073,-1.0475242,1.0087191,2.4404066,0.57566416,-9.731236
921,1715789410.7826574,2.5744073,-1.0475242,1.0087191,2.4404066,0.57566416,-9.67015
922,1715789410.7839043,1.641346,-1.9488581,0.692909,4.2051964,-0.44753516,-9.097769
923,1715789410.796068,1.2605861,-2.165337,0.39805737,4.266283,-0.6088036,-8.48446
924,1715789410.8041492,0.98260504,-2.2898061,0.26406994,4.107458,-0.47502407,-8.107556
925,1715789410.8207989,0.42026657,-2.4748015,-0.05344854,3.630372,-0.081016004,-7.569995
926,1715789410.8289742,0.42026657,-2.650065,-0.33753118,2.9449813,0.17310394,-7.097185
927,1715789410.8299968,-0.047347106,-2.650065,-0.33753118,2.9449813,0.17310394,-7.097185
928,1715789410.8320005,-0.047347106,-2.650065,-0.33753118,2.307238,0.40156755,-6.653086
929,1715789410.844644,-0.61798346,-2.8950987,-0.5545286,2.307238,0.40156755,-6.653086
930,1715789410.8460157,-1.5849687,-3.1369593,-0.60041136,0.9089675,1.1504884,-4.9353333
931,1715789410.8542962,-2.7850287,-3.3470926,-0.6643543,0.11178834,1.3581825,-2.3477077
932,1715789410.873633,-2.7850287,-3.3470926,-0.71389794,-0.33658674,1.3233632,-0.11133019
933,1715789410.8746517,-3.105476,-3.4964557,-0.71389794,-0.33658674,1.3233632,-0.11133019
934,1715789410.877508,-2.9163318,-3.53822,-0.69534963,-0.7134906,1.2634984,2.4286475
935,1715789410.904105,-0.65459204,-3.3092637,-0.80639565,-2.4104743,1.4626405,7.6814775
936,1715789410.9301908,-0.65459204,-3.3092637,-0.80639565,-2.4104743,0.83528185,8.716284
937,1715789410.931615,0.44540447,-2.951964,-0.641657,-3.7464366,0.83528185,8.716284
938,1715789410.9562652,1.0250709,-2.71352,-0.40440285,-4.2277985,0.38568506,8.784089
939,1715789410.9577298,1.5742302,-2.0137775,0.24015234,-4.422664,-0.48540878,8.22637
940,1715789410.9807572,1.5022334,-1.70114,0.49226347,-4.422664,-0.48540878,8.22637
941,1715789410.983115,1.5137041,-1.3647985,0.88327366,-3.5143077,-0.45791987,8.06449
942,1715789410.9841964,1.5137041,-1.3647985,0.88327366,-2.7592783,-0.5587126,8.062047
943,1715789411.0142255,1.6828357,-1.1141518,1.0665606,-1.1142182,-0.98387486,7.9716387
944,1715789411.0159564,1.978145,-0.8195747,0.79785365,0.5674938,-1.5354861,7.777384
945,1715789411.0377991,1.978145,-0.8195747,0.79785365,0.5674938,-1.5354861,8.268519
946,1715789411.0388017,2.238554,-0.6067568,0.07980672,2.6688702,-2.0553324,8.268519
947,1715789411.0460215,2.6669052,-0.1632743,-0.6340912,2.0958786,-1.2746466,9.402286
948,1715789411.053499,3.5184515,0.11006982,-0.8876667,0.71593404,-0.4909066,10.402271
949,1715789411.0665267,4.5762258,0.2806658,-0.71243364,-0.5143485,0.16455182,10.724809
950,1715789411.087434,6.727652,0.6233527,-0.30433938,-1.926669,0.349644,9.887312
951,1715789411.1005387,6.949988,2.2099996,0.594554,-3.164282,-0.10361802,3.0034716
952,1715789411.1152627,5.6076427,2.3295875,1.1095147,-3.1771102,-0.14149167,0.97051215
953,1715789411.1297007,4.954271,2.293223,1.4480221,-3.1771102,-0.14149167,0.97051215
954,1715789411.1311762,4.954271,2.293223,1.4480221,-2.9303205,-0.1793653,0.13423763
955,1715789411.1386867,4.954271,2.293223,1.4480221,-2.2033908,0.02893974,-0.6977608
956,1715789411.1413298,4.4473333,2.1470327,1.8104776,-2.2033908,0.02893974,-0.6977608
957,1715789411.1478643,4.4473333,2.1470327,1.8104776,-2.2033908,0.4883104,-1.590235
958,1715789411.1504934,4.0522046,1.9913242,1.8385442,-1.0928379,0.4883104,-1.590235
959,1715789411.1519654,3.763485,1.8436695,1.4673027,-1.0928379,0.4883104,-1.590235
960,1715789411.1535313,3.763485,1.8436695,1.4673027,0.07269296,0.90614223,-2.6971228
961,1715789411.1737008,3.2023666,1.5795995,0.5972386,1.0225884,1.0924561,-4.4301476
962,1715789411.1916084,3.2023666,1.5795995,0.25528386,1.047023,0.952568,-5.0281844
963,1715789411.1938045,2.8001604,1.3687036,-0.1696198,1.047023,0.952568,-5.0281844
964,1715789411.1949577,2.8001604,1.3687036,-0.1696198,0.6737844,0.5970444,-5.8400245
965,1715789411.203421,2.6759353,1.2561932,-0.37487194,0.11178834,0.34842226,-6.389192
966,1715789411.216313,2.6759353,1.2561932,-0.37487194,0.11178834,0.29894218,-6.815576
967,1715789411.218994,2.7486641,1.1214736,-0.40171823,-0.453262,0.29894218,-6.815576
968,1715789411.2478702,2.8394535,0.32337585,0.12568948,-1.1068878,0.685009,-8.486903
969,1715789411.2556088,2.5033865,-0.0039049159,0.23380683,-0.8436049,0.94218326,-8.9419985
970,1715789411.2882013,2.2185414,-0.2962855,0.34949,-0.8436049,0.94218326,-8.9419985
971,1715789411.290207,2.1548424,-0.78394234,0.5638028,0.70371675,0.8621599,-9.060506
972,1715789411.301213,2.1072514,-1.0367857,0.6199359,1.5454891,0.50174946,-9.099602
973,1715789411.3162153,1.6803951,-1.5927787,0.42246306,3.0433307,-0.35162932,-8.903514
974,1715789411.3322215,1.451439,-1.7619102,0.33582276,3.222925,-0.43409613,-8.758128
975,1715789411.3492286,1.2251979,-1.9742401,0.26114124,3.222925,-0.43409613,-8.758128
976,1715789411.3512313,0.7883354,-2.314944,0.1696198,3.2980614,-0.33880115,-8.262716
977,1715789411.3582313,0.2518671,-2.6376183,0.0370967,3.2534683,-0.10361802,-8.255385
978,1715789411.3727524,0.2518671,-2.6376183,0.0370967,2.955977,-0.18913916,-8.055022
979,1715789411.3747516,-0.6206681,-2.9329276,-0.26358184,2.955977,-0.18913916,-8.055022
980,1715789411.3761182,-0.6206681,-2.9329276,-0.26358184,2.324953,-0.39133555,-7.243793
981,1715789411.3780444,-1.4704754,-3.2150576,-0.5782021,2.324953,-0.39133555,-7.243793
982,1715789411.3930857,-2.2531974,-3.3880942,-0.7863829,2.324953,-0.39133555,-7.243793
983,1715789411.395082,-3.1847947,-3.396392,-0.60114354,0.25167647,-0.25389087,-2.7832549
984,1715789411.4202726,-3.1847947,-3.396392,-0.60114354,0.25167647,0.789467,2.8452575
985,1715789411.4212863,-3.0019958,-3.2055395,-0.3687705,-0.7678576,0.789467,2.8452575
986,1715789411.4286695,-2.5197384,-2.9912572,-0.2626056,-1.0360274,1.147434,4.8165197
987,1715789411.4361525,-2.5197384,-2.8289592,-0.21818718,-1.0360274,1.147434,4.8165197
988,1715789411.4373622,-1.9207916,-2.8289592,-0.21818718,-1.260215,1.396667,6.4713535
989,1715789411.4433322,-1.9207916,-2.8289592,-0.21818718,-1.260215,1.396667,8.553183
990,1715789411.4443617,-0.79516906,-2.6237068,-0.17132819,-1.6420058,1.4711926,8.553183
991,1715789411.452746,-0.79516906,-2.6237068,-0.17132819,-1.6420058,1.4711926,9.451155
992,1715789411.4543931,0.05759751,-2.5648892,-0.14204131,-1.8716911,1.2341769,9.451155
993,1715789411.4645598,0.05759751,-2.4186683,-0.08664032,-1.8716911,1.2341769,9.451155
994,1715789411.4655404,0.9994449,-2.4186683,-0.08664032,-1.9908098,0.7430412,9.875706
995,1715789411.4834008,0.9994449,-2.4186683,-0.08664032,-1.9908098,0.7430412,9.8976965
996,1715789411.484413,1.8468423,-2.0272005,-0.05418071,-1.9767599,0.33620495,9.8976965
997,1715789411.5084574,1.9803414,-1.8136505,-0.099575356,-2.044566,-0.71081805,9.718714
998,1715789411.5109377,2.5853899,-1.6847882,-0.14643435,-2.8399124,-0.3730096,10.316139
999,1715789411.5292957,2.5853899,-1.6847882,-0.14643435,-3.181997,-0.17081319,10.074848
1000,1715789411.5303864,3.0569086,-1.521758,0.010982576,-3.181997,-0.17081319,10.074848
