id,timestamp,acc_x,acc_y,acc_z,gyro_x,gyro_y,gyro_z
0,1715789488.3286848,0.19280522,0.25528386,0.89303595,0.009850202,0.04734206,-0.025885414
1,1715789488.335634,0.2997023,0.2767609,0.85886794,0.44845146,-0.50488013,0.12988523
2,1715789488.3529627,0.2997023,0.2767609,0.85886794,0.44845146,-0.41447207,-0.13645202
3,1715789488.3543983,0.53305155,0.32117933,0.8098125,0.30123293,-0.41447207,-0.13645202
4,1715789488.3724318,0.53305155,0.29872608,0.9262278,0.045280386,-0.28313604,-0.37102428
5,1715789488.3738053,0.6267695,0.29872608,0.9262278,0.045280386,-0.28313604,-0.37102428
6,1715789488.399982,0.63506746,0.19963883,0.8669218,0.5584072,-0.763887,-0.3777438
7,1715789488.4014935,0.62872195,0.090789296,0.6238408,0.9151525,-1.3240504,-0.33253977
8,1715789488.4183981,0.7922403,0.061746486,0.5118186,1.2890021,-1.8463402,-0.33376148
9,1715789488.4415894,0.7922403,0.061746486,0.5118186,1.2890021,-3.3185256,-0.5585599
10,1715789488.4441051,0.8842499,-0.24991462,0.28969595,3.075172,-3.3185256,-0.5585599
11,1715789488.4653568,0.79053193,-0.3909797,0.16595893,3.075172,-3.3185256,-0.5585599
12,1715789488.4666505,0.6487347,-0.45809543,-0.0370967,4.475886,-4.966029,-0.23724478
13,1715789488.4807312,0.6487347,-0.45809543,-0.0370967,4.475886,-4.966029,0.09140071
14,1715789488.4822109,0.61237013,-0.48542988,-0.41343296,4.6786933,-5.454721,0.09140071
15,1715789488.4901218,0.61237013,-0.48542988,-0.41343296,3.0922763,-6.0570345,0.7737372
16,1715789488.4936285,0.7815018,-0.7280533,-1.2483834,3.0922763,-6.0570345,0.7737372
17,1715789488.510747,0.7348869,-0.75734013,-1.1644276,1.8546633,-6.3282585,1.1200978
18,1715789488.5231707,0.7348869,-0.8742436,-0.67118794,0.23770294,-6.66118,1.9282725
19,1715789488.5246818,0.7424526,-0.8742436,-0.67118794,0.23770294,-6.66118,1.9282725
20,1715789488.5369318,0.7424526,-0.8742436,-0.67118794,0.23770294,-6.66118,2.3680954
21,1715789488.5387855,0.77198356,-0.93891877,-0.39976576,-0.23877195,-6.6733975,2.3680954
22,1715789488.5464215,0.7944369,-0.9821169,0.040513504,-0.6089563,-6.4180555,3.1707723
23,1715789488.5632043,0.7944369,-0.9821169,0.040513504,-0.6089563,-5.6947913,4.745583
24,1715789488.5644093,0.85740364,-0.8288489,0.23966423,-0.9211084,-5.6947913,4.745583
25,1715789488.582475,0.9721105,-0.77051926,0.2596769,-1.2295954,-5.446169,5.402874
26,1715789488.5854244,1.1131755,-0.6248171,0.44735694,-1.6706401,-5.1853294,6.2751894
27,1715789488.5998924,2.055023,-0.017572122,1.0524054,-2.1495585,-4.4186935,7.547011
28,1715789488.6241236,2.055023,-0.017572122,1.0524054,-2.2479076,-3.7320812,7.502418
29,1715789488.6255958,3.442275,1.1449031,1.5793555,-2.3853524,-3.0967813,7.102912
30,1715789488.6386774,4.5061817,2.9556248,2.3842564,-2.622368,-1.9990565,6.004576
31,1715789488.6408544,4.5061817,2.9556248,2.3842564,-2.8581622,-0.15851954,3.4878116
32,1715789488.685778,4.5061817,2.9556248,2.7498844,0.20288362,3.244,-2.6678777
33,1715789488.6884577,2.6776435,3.3856537,2.7498844,0.20288362,3.244,-2.6678777
34,1715789488.7211134,2.8323758,3.357099,2.1592355,0.20288362,3.244,-2.6678777
35,1715789488.7226021,4.105165,3.207736,1.3113501,0.21510093,3.4968982,-6.05818
36,1715789488.7296686,4.7485304,2.3510644,1.477065,-1.6694183,6.0894103,-7.9585814
37,1715789488.7570703,4.7109456,1.5146803,2.9299989,-1.6694183,6.0894103,-7.9585814
38,1715789488.7590976,4.74731,0.9252516,3.7800806,0.99639755,7.889019,-9.347689
39,1715789488.7614849,5.001374,0.24552159,4.1425056,0.99639755,7.889019,-9.347689
40,1715789488.77376,5.001374,0.24552159,4.1425056,3.8619664,7.297091,-9.559659
41,1715789488.7827437,5.3540363,-0.20818083,3.8767273,3.8619664,7.297091,-9.559659
42,1715789488.783998,5.823145,-0.9718665,2.7486641,8.627326,5.954409,-10.29453
43,1715789488.79603,5.823145,-1.6659958,2.089435,9.714666,5.5206947,-10.780168
44,1715789488.7974617,5.9107614,-1.6659958,2.089435,9.714666,5.5206947,-10.780168
45,1715789488.799482,5.9107614,-1.6659958,2.089435,10.269943,5.0857587,-11.092931
46,1715789488.8049157,5.588118,-2.332272,1.5910702,10.269943,5.0857587,-11.092931
47,1715789488.8310475,3.1345186,-3.3856537,0.8146936,10.782459,3.7314703,-11.122864
48,1715789488.8330839,3.1345186,-3.3856537,0.8146936,10.989542,2.3710735,-10.7520685
49,1715789488.8428428,2.3796191,-3.5255291,0.5054731,10.989542,2.3710735,-10.7520685
50,1715789488.8448982,2.3796191,-3.5255291,0.5054731,10.736644,1.153619,-10.235276
51,1715789488.8540196,2.3796191,-3.5255291,0.5054731,9.7672,-0.102319926,-9.350743
52,1715789488.8550942,1.3765135,-3.4671688,0.09640261,9.7672,-0.102319926,-9.350743
53,1715789488.8657062,0.53549206,-3.251178,-0.19036464,9.7672,-0.102319926,-9.350743
54,1715789488.8687384,0.53549206,-3.251178,-0.19036464,8.343884,-0.9605856,-8.228584
55,1715789488.8816268,0.04368625,-3.0991304,-0.3133695,6.802672,-1.303281,-6.981808
56,1715789488.8836615,-0.2169669,-3.12256,-0.3687705,4.960913,-0.818254,-5.4631968
57,1715789488.8972728,-0.413677,-3.3697898,-0.46248847,2.9529989,0.4266894,-3.8114173
58,1715789488.9127533,-0.6194478,-3.8015575,-0.6633781,1.4032339,1.1242975,-2.393599
59,1715789488.928698,-1.2867004,-4.5830593,-0.8703387,-0.6303366,0.9660834,0.45669812
60,1715789488.952461,-0.9623482,-5.0313926,-0.53573614,-1.7720437,-0.27275133,8.038147
61,1715789488.9628258,-0.23258655,-4.9745274,-0.41196862,-1.8807777,-0.4541783,10.216492
62,1715789488.9803774,0.24845028,-4.843957,-0.35949633,-1.8807777,-0.4541783,10.216492
63,1715789488.9818869,0.24845028,-4.843957,-0.35949633,-1.9192623,-0.5329799,11.392407
64,1715789488.983128,0.84031963,-4.6682353,-0.36852646,-1.9919552,-0.61850107,12.194474
65,1715789489.0039,2.459426,-3.9982681,-0.29555333,-2.967507,-1.3723087,13.781502
66,1715789489.0235343,3.0102935,-3.493527,-0.11373068,-3.276605,-1.6410894,13.390548
67,1715789489.0258963,3.3117042,-3.0571527,0.09884319,-3.4238234,-1.738828,12.870702
68,1715789489.032198,3.3117042,-3.0571527,0.09884319,-3.4543667,-1.7015651,12.421104
69,1715789489.0338657,3.4366617,-2.7630637,0.2523552,-3.4543667,-1.7015651,12.421104
70,1715789489.0419753,3.781057,-2.2795556,0.36169282,-3.4690273,-1.4877623,11.590939
71,1715789489.0597088,3.781057,-2.2795556,0.36169282,-3.833103,-1.0045679,10.801701
72,1715789489.0611367,4.2908926,-1.9161544,-0.16010156,-3.833103,-1.0045679,10.801701
73,1715789489.0623767,4.2908926,-1.9161544,-0.16010156,-4.9155564,-0.3484986,10.411358
74,1715789489.0801046,4.4539227,-1.8649024,-0.460536,-6.5520644,0.52870387,10.248257
75,1715789489.091939,4.622353,-1.9918122,0.022453265,-6.5520644,0.52870387,10.248257
76,1715789489.0932217,5.0694656,-2.00792,1.1837082,-11.20197,0.1872302,11.256796
77,1715789489.1022282,6.199481,-1.9393399,2.6442077,-10.801243,-0.70280045,11.391186
78,1715789489.1292293,6.199481,-1.9393399,2.6442077,-6.8006864,-1.1108584,9.945268
79,1715789489.1307788,7.2072244,0.36852646,3.7576275,-6.8006864,-1.1108584,9.945268
80,1715789489.1317637,7.2072244,0.36852646,3.7576275,-4.1757984,-1.3405437,8.5134
81,1715789489.1498737,7.047123,1.0907223,3.6844103,-2.2179754,-1.9813415,7.3857427
82,1715789489.155597,6.5660853,1.8673431,3.417869,0.8076402,-2.8805351,5.1420345
83,1715789489.1692913,5.7501717,2.3522847,2.6054027,0.8076402,-2.8805351,5.1420345
84,1715789489.171845,5.7501717,2.3522847,2.6054027,2.3836725,-2.9190195,3.1799355
85,1715789489.1779416,5.106562,2.5221791,1.8558723,2.52295,-2.572659,1.9661461
86,1715789489.1854694,4.4895554,2.6612918,1.2234895,1.6530777,-1.4511104,0.44386995
87,1715789489.1940534,3.95629,2.6737387,0.88278556,1.6530777,-1.4511104,0.44386995
88,1715789489.1960404,3.95629,2.6737387,0.88278556,0.04589125,0.52381694,-0.9910525
89,1715789489.2031887,3.513326,2.5446324,0.94550824,-0.9131672,2.1340578,-2.0215821
90,1715789489.2491257,3.513326,2.247584,1.3059808,-0.82214826,3.6593883,-3.821191
91,1715789489.2561245,2.2912705,2.11921,1.5224901,1.2315807,2.758973,-4.9384637
92,1715789489.264128,2.1541102,2.0074317,1.2608302,2.8271606,1.4156802,-5.816277
93,1715789489.2791283,2.1541102,2.0074317,1.2608302,3.1961234,0.9728029,-6.6501083
94,1715789489.281129,2.2644243,1.9168867,0.7583164,3.1961234,0.9728029,-6.6501083
95,1715789489.295505,2.2644243,1.9168867,0.7583164,3.1961234,0.9728029,-7.0050206
96,1715789489.2965662,2.8130953,1.6947945,0.7756444,2.4667501,2.6160305,-7.574347
97,1715789489.3077772,2.8130953,1.6947945,0.7756444,2.4801893,3.2586606,-7.956138
98,1715789489.3100805,3.161853,1.5500686,0.9706462,2.4801893,3.2586606,-7.956138
99,1715789489.3181148,3.161853,1.5500686,1.016773,2.6512315,4.0570617,-8.445441
100,1715789489.320118,3.4183574,1.2166559,1.016773,2.6512315,4.0570617,-8.445441
101,1715789489.327598,3.4183574,1.2166559,1.016773,2.7471373,4.3637156,-8.6287
102,1715789489.3287234,3.4757109,1.0277556,1.0270234,2.7471373,4.3637156,-8.6287
103,1715789489.3466885,4.140065,0.22916976,1.4719398,3.8515818,4.735733,-9.279883
104,1715789489.358243,4.140065,0.22916976,1.4719398,3.8515818,4.546365,-9.741697
105,1715789489.3607826,4.28894,-0.2438132,1.6750259,4.8314095,4.546365,-9.741697
106,1715789489.3968778,4.2530637,-0.6809502,1.6882051,4.8314095,4.546365,-9.741697
107,1715789489.3988695,4.221092,-1.0611913,1.6357325,5.9981623,4.1334195,-10.123487
108,1715789489.4009101,3.8323088,-1.8668548,1.250824,8.337165,2.5011878,-10.180909
109,1715789489.4024186,3.6751359,-2.1331213,1.0797398,8.337165,2.5011878,-10.180909
110,1715789489.4044127,3.6751359,-2.1331213,1.0797398,8.677417,1.7736472,-10.132651
111,1715789489.4207761,3.6751359,-2.1331213,1.0797398,8.677417,1.7736472,-10.163805
112,1715789489.4221594,3.224576,-2.371077,0.8613085,8.732395,1.0778717,-10.163805
113,1715789489.4248817,3.224576,-2.371077,0.8613085,8.456895,0.25870144,-10.041632
114,1715789489.4258983,2.7698972,-2.5587878,0.64897877,8.456895,0.25870144,-10.041632
115,1715789489.43979,2.7698972,-2.5587878,0.64897877,8.456895,0.25870144,-9.662895
116,1715789489.441937,2.2700374,-2.6742268,0.37487194,7.6652136,-0.77366084,-9.662895
117,1715789489.4484622,2.2700374,-2.7108355,0.14252943,6.0525293,-1.6093245,-8.994609
118,1715789489.450342,1.6684363,-2.7108355,0.14252943,6.0525293,-1.6093245,-8.994609
119,1715789489.4573445,1.6684363,-2.7108355,0.14252943,4.18939,-1.8011361,-8.2737875
120,1715789489.4594543,1.0255591,-2.7164488,-0.0039049159,4.18939,-1.8011361,-8.2737875
121,1715789489.4711478,0.62823385,-2.7967434,-0.13691612,2.3341925,-1.4187346,-7.541971
122,1715789489.4778001,0.18084641,-3.0095615,-0.255772,0.6146068,-0.82436264,-6.8284807
123,1715789489.491061,-1.6594063,-4.122981,-0.39244407,-3.253392,0.94897914,-3.3715944
124,1715789489.5125263,-2.2656446,-4.344097,-0.30360723,-4.073173,0.7266242,-1.2115749
125,1715789489.519971,-2.820661,-4.330674,0.014643434,-4.010254,-0.18295415,2.307009
126,1715789489.5271883,-2.463575,-4.275517,0.14789869,-3.3737323,-1.0302242,5.688759
127,1715789489.5477152,-0.28969595,-3.9899697,0.021477038,-2.319379,-1.4792101,11.058265
128,1715789489.5590804,-0.28969595,-3.9899697,0.021477038,-2.05182,-1.6869044,13.501725
129,1715789489.560087,0.72366023,-3.8391426,-0.08859278,-2.05182,-1.6869044,13.501725
130,1715789489.5624716,1.5029656,-3.712721,-0.1901206,-2.05182,-1.6869044,13.501725
131,1715789489.5826821,2.875818,-3.4186013,-0.42075467,-2.4067328,-2.4022276,13.827928
132,1715789489.6165435,3.9448195,-2.89217,-0.35363895,-2.4067328,-2.4022276,13.827928
133,1715789489.6176896,4.266731,-1.6733174,-0.25284332,-3.411606,-2.9556715,10.831022
134,1715789489.6468184,3.6170504,-0.77393603,-0.34778157,-4.6681557,-1.3326025,8.634351
135,1715789489.6483922,3.161365,-0.48445365,-0.67728937,-6.2612925,-0.43218717,8.101677
136,1715789489.664643,2.9858878,-0.6306744,0.29872608,-8.908172,-0.6435465,8.065024
137,1715789489.6818469,3.849393,-0.22355644,2.20341,-6.544123,-3.2128458,8.180478
138,1715789489.699555,5.3813705,1.3955499,2.35741,-3.1868076,-4.8676796,7.8310633
139,1715789489.71343,5.3813705,1.3955499,2.35741,-3.1868076,-4.8676796,5.702198
140,1715789489.7156837,4.8254085,1.7660593,1.8192637,-0.75373137,-3.755905,5.702198
141,1715789489.7333877,4.437327,2.1079836,1.404336,-1.6266578,-1.3289373,4.3808966
142,1715789489.7478008,4.4539227,2.1516697,1.4607131,-2.0426571,-0.79443026,3.9282453
143,1715789489.7604823,4.2747846,2.4850519,2.1926713,-1.9754618,0.1994475,2.1219168
144,1715789489.7689452,4.2747846,2.4850519,2.1926713,-1.0793226,0.4859433,0.78656536
145,1715789489.7705348,4.0863724,2.6044264,2.4194005,-1.0793226,0.4859433,0.78656536
146,1715789489.786006,4.0863724,2.6044264,2.4194005,0.5706245,0.9007208,-1.2622766
147,1715789489.7871847,3.2599642,2.5285246,1.884427,0.5706245,0.9007208,-1.2622766
148,1715789489.7945776,3.2599642,2.5285246,1.884427,0.5706245,1.3729197,-1.9800433
149,1715789489.7957225,2.8692286,2.3142118,1.3679714,1.0361038,1.3729197,-1.9800433
150,1715789489.8119423,2.8692286,2.3142118,1.3679714,1.0361038,1.8438967,-2.4962244
151,1715789489.8139818,2.7584264,2.1926713,1.1324561,1.2951107,1.8438967,-2.4962244
152,1715789489.8150108,2.7071745,2.1175015,0.9220788,1.4783703,2.032654,-2.9934688
153,1715789489.8281806,2.6427433,2.0669818,0.79126406,1.6029868,1.8872682,-3.476663
154,1715789489.8359635,2.5973487,2.0057235,0.6643543,1.7135534,1.389413,-4.1272345
155,1715789489.8494506,2.5973487,2.0057235,0.6643543,1.7221055,0.8738427,-4.887762
156,1715789489.8509731,2.5868542,1.9583764,0.5943099,1.7221055,0.8738427,-4.887762
157,1715789489.8570352,2.5868542,1.9583764,0.53305155,1.5987107,0.7144069,-5.422269
158,1715789489.8590539,2.5277925,1.9090768,0.53305155,1.5987107,0.7144069,-5.422269
159,1715789489.861268,2.568794,1.9295776,0.4463807,1.5987107,0.7144069,-5.422269
160,1715789489.8667772,2.568794,1.9295776,0.4463807,1.3769666,0.8023715,-5.862703
161,1715789489.8857162,2.7040017,1.7272543,0.62042403,0.8082511,1.5848899,-6.6757646
162,1715789489.9003193,2.7040017,1.7272543,0.62042403,1.058095,2.0607538,-7.262195
163,1715789489.9022763,2.6075993,1.3252614,1.1563737,1.5907694,2.3063216,-7.603058
164,1715789489.9345064,2.7020493,0.81566983,1.1924943,3.216282,2.2385156,-8.092361
165,1715789489.935921,2.6903346,0.58259517,1.0731503,4.059276,2.0980167,-8.43811
166,1715789489.9501023,2.636642,0.40733153,0.92354316,4.4740534,2.0277672,-8.612818
167,1715789489.9511337,2.7567182,-0.107385196,0.5364683,4.4740534,2.0277672,-8.612818
168,1715789489.9629169,2.7567182,-0.107385196,0.5364683,4.918763,2.019215,-8.899314
169,1715789489.9849153,2.9026642,-0.40562314,0.4991276,4.918763,2.019215,-8.899314
170,1715789489.9870791,2.9170637,-0.7256127,0.4881145,5.0843077,2.187203,-9.368459
171,1715789489.9882085,2.9553807,-0.9889505,0.5315872,5.1209598,2.1572707,-9.435654
172,1715789489.9960675,2.9553807,-1.3589412,0.70242727,5.3640842,2.0412061,-9.547442
173,1715789489.998312,3.0239608,-1.3589412,0.70242727,5.3640842,2.0412061,-9.547442
174,1715789490.004587,3.0412889,-1.624018,0.8366587,5.748318,1.7803668,-9.662895
175,1715789490.023573,2.9387848,-1.965942,0.8874227,6.620634,0.73884153,-9.835771
176,1715789490.0299602,2.7408545,-2.2151246,0.81322926,6.620634,0.73884153,-9.835771
177,1715789490.0477803,2.7408545,-2.362291,0.66947955,6.620634,0.73884153,-9.835771
178,1715789490.0501807,1.8380562,-2.454789,0.37121108,6.3512425,-0.16218472,-9.577985
179,1715789490.055237,1.2066495,-2.4396572,0.1147069,5.5565066,-0.3136793,-9.30615
180,1715789490.0802584,1.2066495,-2.4396572,0.1147069,5.5565066,-0.3136793,-7.86573
181,1715789490.0824385,-0.74831,-2.7032695,-0.2111095,3.29264,-0.36193767,-7.86573
182,1715789490.0836434,-0.74831,-2.7032695,-0.2111095,1.701336,0.004581489,-6.1284294
183,1715789490.1030939,-0.74831,-2.7032695,-0.2111095,1.701336,0.004581489,-2.5011113
184,1715789490.1042168,-1.6176724,-3.3451402,-0.4166057,-0.9021716,0.36377025,-2.5011113
185,1715789490.1132917,-2.1694858,-3.6270568,-0.5269501,-1.7347809,0.09254608,-0.55489475
186,1715789490.1310694,-2.517054,-3.8354816,-0.4996157,-2.4061217,-0.528093,1.9557614
187,1715789490.1531734,-2.530965,-3.8899064,-0.43368974,-2.7671432,-0.95325524,4.1225004
188,1715789490.1593986,-1.8526996,-3.8796563,-0.2818861,-3.2381203,-1.2434162,7.713166
189,1715789490.1661484,-0.6648424,-3.8166893,-0.119588055,-3.7005453,-0.9819659,10.746112
190,1715789490.1726034,0.4751795,-3.744204,0.05051985,-3.9772673,-0.7840455,12.525563
191,1715789490.1826396,0.4751795,-3.744204,0.05051985,-4.0249147,-0.77121735,13.765008
192,1715789490.1966333,2.335933,-3.4652164,0.28798756,-3.9619956,-0.88422745,14.257366
193,1715789490.2026868,2.335933,-3.4652164,0.38683072,-3.6736672,-1.4724907,14.600672
194,1715789490.2045214,3.365397,-3.1882112,0.38683072,-3.6736672,-1.4724907,14.600672
195,1715789490.2105649,3.365397,-3.1882112,0.38683072,-3.2674417,-1.9526308,14.273249
196,1715789490.2118032,4.096379,-2.849948,0.40562314,-3.2674417,-1.9526308,14.273249
197,1715789490.2317584,4.526194,-2.0452607,0.32606047,-2.691396,-2.233018,13.493784
198,1715789490.232881,4.526194,-2.0452607,0.32606047,-2.4042892,-2.264172,13.006313
199,1715789490.234169,4.5181403,-1.620357,0.25552794,-1.9913443,-1.7956384,11.955626
200,1715789490.247498,4.5181403,-1.620357,0.25552794,-1.9913443,-1.7956384,11.275122
201,1715789490.250209,4.0624547,-1.2864562,0.22258021,-1.7714329,-1.1163563,11.275122
202,1715789490.2630424,4.0624547,-1.2864562,0.22258021,-1.7714329,-0.31978795,11.6282015
203,1715789490.2646625,3.9199257,-0.7797934,-0.564779,-2.994385,-0.31978795,11.6282015
204,1715789490.2958066,3.9199257,-0.7797934,0.54867125,-4.8062115,-2.0430388,10.859122
205,1715789490.2978294,4.509354,0.20183535,0.54867125,-4.8062115,-2.0430388,10.859122
206,1715789490.304674,4.509354,0.20183535,1.5971717,-3.3438,-2.862209,9.723524
207,1715789490.3065944,5.326214,0.6143226,1.5971717,-3.3438,-2.862209,9.723524
208,1715789490.3277283,5.326214,0.6143226,2.050386,-1.3181708,-2.8866436,8.023486
209,1715789490.3288946,5.123158,1.9925444,1.5954633,0.20044015,-2.1481075,6.171953
210,1715789490.3518457,4.3338466,2.430627,0.15400012,-0.67431885,0.09682214,3.3240995
211,1715789490.3543718,3.977767,2.4364846,0.3863426,-2.2723424,1.1407908,2.0101285
212,1715789490.3652253,3.8039985,2.4892008,0.8022467,-2.4525476,1.3136657,1.4206434
213,1715789490.3812847,3.8039985,2.6268797,1.1129316,-1.4000268,1.1059716,-0.2054798
214,1715789490.3824484,3.5416367,2.6268797,1.1129316,-1.4000268,1.1059716,-0.2054798
215,1715789490.4006138,3.5416367,2.6268797,1.1129316,-0.8288678,0.9245446,-1.2323443
216,1715789490.4020388,3.4759548,2.6786199,0.8779044,-0.8288678,0.9245446,-1.2323443
217,1715789490.4030545,3.2416599,2.6032062,0.4949481,-0.53198725,0.9062186,-2.6171758
218,1715789490.414127,3.2416599,2.400608,0.24527754,-0.5753587,1.1658363,-3.7246745
219,1715789490.416527,3.0281098,2.400608,0.24527754,-0.5753587,1.1658363,-3.7246745
220,1715789490.4309428,2.8528767,2.2524652,0.14985114,-0.69020134,1.3881912,-4.493754
221,1715789490.4393556,2.8528767,2.2524652,0.14985114,-0.69020134,1.4101825,-4.9665637
222,1715789490.4413662,2.7154725,2.1585033,0.1403329,-0.7457901,1.4101825,-4.9665637
223,1715789490.4435363,2.7191334,2.1038344,0.16522676,-0.69203395,1.3747523,-5.3562956
224,1715789490.452053,2.7191334,2.0938282,0.14082102,-0.5796348,1.2293663,-5.738697
225,1715789490.4534314,2.7530572,2.0938282,0.14082102,-0.5796348,1.2293663,-5.738697
226,1715789490.4646988,2.7530572,2.0938282,0.14082102,-0.5399285,0.8891144,-6.0801706
227,1715789490.4670615,2.8948545,2.118966,0.16888762,-0.5399285,0.8891144,-6.0801706
228,1715789490.475979,2.8948545,2.1248233,0.24918245,-0.5668066,0.7089091,-6.4808984
229,1715789490.4769855,3.0791178,2.1248233,0.24918245,-0.5668066,0.7089091,-6.4808984
230,1715789490.4841464,3.1667342,2.084066,0.31019676,-0.6480517,0.7162395,-6.908504
231,1715789490.4949343,3.1667342,1.8234128,0.33753118,-0.83680904,0.99173975,-7.5645733
232,1715789490.4961798,2.9810066,1.8234128,0.33753118,-0.83680904,0.99173975,-7.5645733
233,1715789490.51256,2.2114637,1.2496036,0.7187791,-0.62239534,1.5848899,-7.810752
234,1715789490.530927,2.2114637,1.2496036,0.7187791,-0.62239534,1.5848899,-7.8864994
235,1715789490.5323143,2.0638092,0.7797934,0.97333086,-0.1288162,1.9507982,-7.8864994
236,1715789490.534075,2.0638092,0.7797934,0.97333086,0.47471866,2.1762075,-7.8541236
237,1715789490.5449421,1.799007,0.59333366,0.9201263,1.9951622,2.2305744,-7.7423353
238,1715789490.5537963,1.8514794,0.32215557,0.8185985,2.7318656,2.268448,-7.706294
239,1715789490.5636468,1.8514794,0.32215557,0.8185985,3.5272124,2.3472497,-7.789983
240,1715789490.5646784,1.9788772,0.07272906,0.6138345,3.5272124,2.3472497,-7.789983
241,1715789490.5778468,2.1594796,-0.17132819,0.32532832,3.9297724,2.3331997,-7.956138
242,1715789490.586243,2.1594796,-0.17132819,0.32532832,3.9297724,2.3331997,-8.111298
243,1715789490.5884693,2.221226,-0.3824377,0.16278619,4.028733,2.1810944,-8.111298
244,1715789490.59751,2.3251944,-0.59406585,-0.099575356,3.6750417,2.3961189,-8.241412
245,1715789490.6039326,2.4916415,-0.8659456,-0.032703668,3.428863,2.4700336,-8.306775
246,1715789490.6111903,2.4916415,-0.8659456,-0.032703668,3.2449925,2.435825,-8.370305
247,1715789490.6179063,2.5202267,-1.0028617,0.084687866,3.2449925,2.435825,-8.370305
248,1715789490.637585,2.4652832,-1.4104373,0.1342315,3.1710777,2.590374,-8.41612
249,1715789490.649146,2.3537493,-1.6001004,0.12007617,3.138702,2.7003298,-8.416731
250,1715789490.651178,1.9159105,-1.910053,0.2186753,3.138702,2.7003298,-8.416731
251,1715789490.6581876,1.9159105,-1.910053,0.2186753,3.279201,2.6294694,-8.359309
252,1715789490.671232,1.4397242,-2.0982213,0.20159128,3.3274593,2.1340578,-7.6091666
253,1715789490.6803532,0.7937047,-2.2654004,0.13593988,3.3274593,2.1340578,-7.6091666
254,1715789490.7013273,0.7937047,-2.2654004,0.13593988,3.2480469,2.078469,-7.4246855
255,1715789490.7025967,-0.054912884,-2.4840758,0.07272906,1.9426278,1.5610662,-4.8810425
256,1715789490.7046025,-0.92598367,-2.887533,-0.17132819,1.9426278,1.5610662,-4.8810425
257,1715789490.7137144,-1.4685229,-3.114018,-0.27920148,0.96341085,1.5952746,-2.797992
258,1715789490.748828,-1.4685229,-3.5523753,-0.8095684,-0.8093201,1.6899587,0.5055674
259,1715789490.7508268,-1.9332385,-3.5523753,-0.8095684,-0.8093201,1.6899587,0.5055674
260,1715789490.764033,-1.9332385,-3.5523753,-0.8095684,-1.434846,1.6349808,1.6429985
261,1715789490.7660353,-1.8114538,-3.5374875,-0.69681394,-3.4769685,0.04184427,7.8481674
262,1715789490.7894955,-0.93891877,-3.513082,-0.4886026,-3.9143481,-0.37782016,9.805991
263,1715789490.791814,-0.08590815,-3.4698536,-0.311173,-4.1812963,-0.6606508,11.181048
264,1715789490.794041,0.82909304,-3.421774,-0.1398448,-4.382271,-0.93676186,12.362462
265,1715789490.8187156,0.82909304,-3.3558788,0.054912884,-4.382271,-0.93676186,12.362462
266,1715789490.8208048,2.4957905,-3.2821736,0.28871974,-4.4146466,-1.5323554,13.894512
267,1715789490.8285804,2.4957905,-3.2821736,0.28871974,-4.1434226,-1.7351627,14.075328
268,1715789490.8295665,2.961482,-3.2030988,0.47054234,-4.1434226,-1.7351627,14.075328
269,1715789490.8368046,3.6219316,-3.0717962,0.6477585,-3.5692093,-2.155438,14.030735
270,1715789490.8448195,4.2816186,-2.743539,0.7029154,-3.5692093,-2.155438,14.030735
271,1715789490.8458474,4.2816186,-2.743539,0.7029154,-2.6828437,-2.6184738,13.528604
272,1715789490.8720298,4.2816186,-2.743539,0.7029154,-2.6828437,-2.9526172,12.187143
273,1715789490.8744195,4.8093004,-1.6127913,-0.049787678,-1.3542119,-2.6087,11.076591
274,1715789490.8765078,4.8093004,-1.6127913,-0.049787678,-2.1465042,-1.6172657,10.551247
275,1715789490.8778396,4.4873586,-1.3679714,-0.54330194,-2.1465042,-1.6172657,10.551247
276,1715789490.8978915,4.4873586,-1.3679714,-0.54330194,-3.0353131,-0.98990715,10.620275
277,1715789490.8988726,4.293577,-0.92598367,-0.3743838,-3.7323103,-0.6844745,10.864009
278,1715789490.9107335,5.024803,-0.311173,0.5225571,-4.055458,-0.7339546,10.827969
279,1715789490.9130733,5.5695696,0.11006982,0.7883354,-3.5093446,-1.1737776,9.923887
280,1715789490.9449651,5.5695696,0.11006982,0.7883354,-3.5093446,-1.1737776,6.719289
281,1715789490.9463978,4.572321,1.9727757,1.6237738,-0.8355873,-2.1090124,5.8084884
282,1715789490.951852,4.572321,2.4994514,1.5525092,1.2193633,-1.7956384,3.8683805
283,1715789490.9532967,3.7583597,2.4994514,1.5525092,1.2193633,-1.7956384,3.8683805
284,1715789490.9710968,3.7583597,2.4994514,1.5525092,2.3580163,-1.2996159,2.83724
285,1715789490.9723804,3.5777574,2.6046705,1.2986591,2.3580163,-1.2996159,2.83724
286,1715789490.9894505,3.584347,2.5963724,0.7317141,2.8644235,-0.7699956,1.9325485
287,1715789490.9921706,3.4849849,2.6000333,0.14765464,2.74897,-0.35521814,0.8806386
288,1715789490.9934866,3.3507533,2.6551905,-0.42124277,1.9921079,-0.061391957,-0.03504839
289,1715789491.0044851,3.3507533,2.6551905,-0.42124277,1.9921079,-0.061391957,-1.0869583
290,1715789491.0059059,3.3075554,2.7318244,-0.58503574,0.69646275,0.13713925,-1.0869583
291,1715789491.0138278,3.3075554,2.7950351,-0.464685,-0.22288945,0.41691554,-1.9385045
292,1715789491.0143402,3.3837013,2.7950351,-0.464685,-0.22288945,0.41691554,-1.9385045
293,1715789491.0329318,3.5477383,2.8785028,-0.3807293,-0.6700428,0.763887,-2.793105
294,1715789491.0347779,3.644629,2.8728895,-0.38927132,-0.922941,0.9025534,-3.667864
295,1715789491.0459366,3.7273643,2.8609307,-0.40196228,-1.0579423,0.9221011,-4.346535
296,1715789491.0552847,3.6775768,2.747444,-0.38853914,-1.4458417,0.51893,-6.1546965
297,1715789491.0725257,4.012423,2.1594796,0.019280521,-1.6596445,0.11575896,-6.927441
298,1715789491.0807548,4.012423,2.1594796,0.019280521,-1.6810248,-0.03634648,-7.5920625
299,1715789491.0878448,4.012423,2.1594796,0.019280521,-1.5582409,0.042455133,-7.882223
300,1715789491.0896218,4.0221853,1.9234762,0.21452633,-1.5582409,0.042455133,-7.882223
301,1715789491.0969374,3.9846008,1.6381732,0.4595598,-0.9357692,0.5555819,-8.22553
302,1715789491.1032755,3.8684294,1.5405504,0.46248847,-0.9357692,0.5555819,-8.22553
303,1715789491.1057026,3.8684294,1.5405504,0.46248847,-0.4440227,0.80848014,-8.323268
304,1715789491.1163082,3.8684294,1.5405504,0.46248847,-0.00908662,0.8848383,-8.326323
305,1715789491.1180432,3.6978333,1.4751126,0.2774931,-0.00908662,0.8848383,-8.326323
306,1715789491.131935,3.648778,1.3831029,0.136428,0.09476047,0.87995136,-8.428337
307,1715789491.1339793,3.5030756,1.165892,0.08932495,0.09476047,0.87995136,-8.428337
308,1715789491.135063,3.5030756,1.165892,0.08932495,0.0959822,1.0241156,-8.6849
309,1715789491.1452131,3.1469657,0.86423725,0.11275445,0.10209085,1.2733486,-8.956124
310,1715789491.1537142,3.1469657,0.86423725,0.11275445,0.42523858,1.7712038,-9.09418
311,1715789491.1558518,2.4067094,0.23429495,0.3521746,0.42523858,1.7712038,-9.09418
312,1715789491.1631608,2.0938282,-0.17523311,0.5230452,1.1277336,2.0405953,-9.019654
313,1715789491.1800537,2.0938282,-0.17523311,0.5230452,1.1277336,2.0931299,-8.906645
314,1715789491.1819148,1.8685633,-0.4876264,0.60992956,1.8797088,2.0931299,-8.906645
315,1715789491.1927013,1.7218848,-0.735375,0.6238408,2.8051696,1.9587394,-8.702004
316,1715789491.194862,1.7218848,-0.735375,0.6238408,3.9212203,1.602605,-8.28967
317,1715789491.1958616,1.5678847,-0.92378724,0.44613665,3.9212203,1.602605,-8.28967
318,1715789491.2126634,1.7360402,-1.0004212,0.10470056,4.240092,1.3118331,-7.5951166
319,1715789491.2295256,1.7360402,-1.0004212,0.10470056,3.9432116,1.271516,-7.3477163
320,1715789491.2305326,2.067226,-1.0511851,-0.005857374,3.9432116,1.271516,-7.3477163
321,1715789491.2400346,2.067226,-1.1300155,-0.032459613,3.0806699,1.5641204,-7.4943237
322,1715789491.2425494,2.607111,-1.3767574,-0.03099527,3.0806699,1.5641204,-7.4943237
323,1715789491.2563374,2.607111,-1.6054696,0.008786061,2.5553257,1.9391917,-7.8455715
324,1715789491.2588255,2.6014977,-1.6054696,0.008786061,2.5553257,1.9391917,-7.8455715
325,1715789491.265528,2.4464908,-1.8788137,0.02391761,2.1038964,2.3069327,-8.202316
326,1715789491.2860851,1.9422686,-2.5485373,0.11251039,1.4777594,3.2672129,-8.932301
327,1715789491.2995958,1.9422686,-2.5485373,-0.0102504045,1.8228983,4.148691,-9.562102
328,1715789491.3019474,0.7343987,-3.8018017,-0.0102504045,1.8228983,4.148691,-9.562102
329,1715789491.316695,-0.4966565,-4.463441,-0.5320753,2.1704805,4.1572433,-9.103343
330,1715789491.330222,-2.5292568,-4.6045365,-1.3464943,1.9023107,3.297756,-7.5688496
331,1715789491.3533607,-5.164648,-4.079539,-1.8951657,0.36720636,-0.116980694,-1.8242728
332,1715789491.3557394,-3.2267723,-3.4344652,-1.0321486,-1.7134006,-1.5445728,5.726022
333,1715789491.3633356,-1.5271271,-3.097178,-0.6065128,-2.9302442,-0.7199047,8.306928
334,1715789491.3775413,-1.5271271,-2.9165757,-0.1701079,-4.0371323,0.05589417,9.606237
335,1715789491.3786762,-0.00976229,-2.9165757,-0.1701079,-4.0371323,0.05589417,9.606237
336,1715789491.3930721,-0.00976229,-2.9165757,-0.1701079,-4.0371323,0.6979135,9.478567
337,1715789491.3950934,1.4062884,-2.581973,0.56941605,-4.891122,0.6979135,9.478567
338,1715789491.4124994,1.5163887,-2.429651,0.67167604,-4.891122,0.6979135,9.478567
339,1715789491.4135969,1.5163887,-2.429651,0.67167604,-4.602793,0.41813725,9.095554
340,1715789491.4155135,1.4101933,-2.362047,0.586256,-4.2802563,-0.29901853,9.025305
341,1715789491.4464073,1.4101933,-2.362047,0.586256,-4.1385355,-1.2959507,9.559812
342,1715789491.4475918,1.6947945,-2.633469,0.55867755,-4.0072,-2.4437664,10.9904585
343,1715789491.4677284,2.7662363,-2.7320683,0.5657552,-3.6590064,-2.59465,13.383828
344,1715789491.4861042,4.5840354,-2.4438062,0.14130914,-4.082947,-2.1071796,14.226212
345,1715789491.487493,4.5840354,-2.4438062,0.14130914,-4.645554,-1.8353447,14.128473
346,1715789491.5212708,4.5840354,-2.4438062,0.14130914,-6.3254333,-1.5592335,12.645904
347,1715789491.52337,5.4333553,-0.97699165,0.9113403,-7.2380657,-1.5592335,11.593993
348,1715789491.5244606,5.4333553,-0.97699165,0.9113403,-7.645513,-1.4456125,10.277578
349,1715789491.5363345,4.334579,-0.079318605,2.5614722,-4.5936303,-1.6581937,9.790109
350,1715789491.550157,4.6899567,0.5467188,1.7421416,-0.47578767,-1.7143933,8.921458
351,1715789491.5661538,4.6899567,0.5467188,1.7421416,0.34216088,-1.289842,6.6612563
352,1715789491.5687797,4.8188186,1.4072646,0.8183544,0.34216088,-1.289842,6.6612563
353,1715789491.581312,4.8188186,1.4072646,0.8183544,0.24320072,-1.054048,5.1676908
354,1715789491.5822978,4.4104805,1.8727121,0.5984589,0.24320072,-1.054048,5.1676908
355,1715789491.589808,4.0617228,2.2190294,0.54305786,0.094149604,-0.77671516,4.0986767
356,1715789491.609557,4.0617228,2.2190294,0.54305786,-0.25831965,-0.0711658,1.12865
357,1715789491.610687,3.225552,2.5158336,0.025381953,-0.6034585,-0.20250183,-0.05093089
358,1715789491.662582,2.9002237,2.1555748,-0.03807293,-1.5881733,-0.30085114,-1.8981874
359,1715789491.664584,2.623951,1.9461735,0.22184804,-2.577775,0.3210097,-3.273856
360,1715789491.6885893,3.0181034,2.0242717,0.8430042,-1.838628,0.41691554,-4.8040733
361,1715789491.6955893,3.0181034,2.0242717,0.8430042,-1.1941652,0.029626964,-5.5829268
362,1715789491.697593,3.2404397,2.0059676,0.83787906,-1.1941652,0.029626964,-5.5829268
363,1715789491.712266,3.4510608,1.892725,0.78296614,-1.1941652,0.029626964,-5.5829268
364,1715789491.7133503,3.4530132,1.7521479,0.73024976,-0.80443317,-0.09743301,-6.849861
365,1715789491.730444,3.3849216,1.6720972,0.7773528,-0.83253294,0.3399465,-7.1137547
366,1715789491.763439,3.3849216,1.6720972,0.7773528,-0.76594865,0.8359691,-7.231041
367,1715789491.7650092,2.9785662,1.3042724,0.85593927,0.48143816,1.4242324,-7.712403
368,1715789491.778566,2.9785662,1.1578381,0.72756517,0.48143816,1.4242324,-7.712403
369,1715789491.7800567,2.7127879,1.1578381,0.72756517,0.73189294,1.4602734,-7.798535
370,1715789491.787761,2.5756276,1.0345892,0.675581,0.85284424,1.5628988,-7.8278565
371,1715789491.795565,2.5756276,0.81493765,0.6343353,1.1106293,1.8982637,-7.9036036
372,1715789491.7968996,2.3866968,0.81493765,0.6343353,1.1106293,1.8982637,-7.9036036
373,1715789491.8143466,2.1470327,0.2306341,0.63555557,1.8888717,2.3906212,-8.243245
374,1715789491.8374648,1.9486141,-0.025626011,0.58820844,2.5541039,2.5384505,-8.432613
375,1715789491.8394845,1.794858,-0.23405088,0.522313,3.0873892,2.5677722,-8.453993
376,1715789491.8474147,1.6979674,-0.42417148,0.42270714,3.0873892,2.5677722,-8.453993
377,1715789491.8483996,1.8116981,-0.63775206,0.26651052,3.5882988,2.513405,-8.366639
378,1715789491.8505728,1.8116981,-0.63775206,0.26651052,4.209549,2.2892175,-8.176661
379,1715789491.8666127,1.9146901,-0.7597807,0.117879644,4.50704,2.0247128,-8.041048
380,1715789491.8790917,1.9146901,-0.7597807,0.117879644,4.552855,1.720502,-7.95736
381,1715789491.8800967,2.0791848,-0.8664337,0.007321717,4.552855,1.720502,-7.95736
382,1715789491.905843,2.0791848,-0.8664337,-0.08688438,4.552855,1.720502,-7.95736
383,1715789491.9074838,2.3312957,-1.0716859,-0.13716017,4.272468,1.4456125,-7.9811835
384,1715789491.9105344,2.446735,-1.3640665,-0.1444819,3.6310594,1.5488489,-8.122293
385,1715789491.9121532,2.3305638,-1.5066264,-0.114462845,3.2315536,1.702176,-8.184602
386,1715789491.928319,2.3305638,-1.5066264,-0.114462845,3.2315536,1.8750509,-8.204149
387,1715789491.9302561,2.1043227,-1.70114,-0.03807293,2.8778625,1.8750509,-8.204149
388,1715789491.9369879,1.8756409,-1.8129183,0.030507157,2.6640596,2.0442605,-8.164443
389,1715789491.9430232,1.4819461,-1.9896158,0.09518232,2.5528822,2.2146919,-8.09175
390,1715789491.9652843,0.7414764,-2.3469155,0.090789296,2.5528822,2.2146919,-8.09175
391,1715789491.9664397,0.13911264,-2.654458,0.0053692595,2.5705974,2.286163,-7.402694
392,1715789491.9771824,0.13911264,-2.654458,0.0053692595,2.5638778,2.0161607,-6.7857203
393,1715789491.9835896,-1.1285512,-3.6480458,-0.8630169,2.2511148,1.575116,-6.141868
394,1715789491.9904854,-2.6415231,-4.001929,-1.5708134,1.0800861,0.38453966,-4.2646794
395,1715789492.0189054,-3.7073517,-3.785938,-1.6425663,-0.27908906,-0.9984592,-1.4033866
396,1715789492.02079,-3.573364,-3.3771117,-1.2034768,-1.7243962,-1.8115209,2.5568528
397,1715789492.0290272,-3.573364,-3.3771117,-1.2034768,-2.9064205,-1.4193454,5.4877844
398,1715789492.0300326,-2.5568354,-3.0315266,-0.75221497,-2.9064205,-1.4193454,5.4877844
399,1715789492.036643,-1.6945505,-2.726211,-0.3648656,-3.8098903,-0.623388,7.238524
400,1715789492.04662,-1.6945505,-2.726211,-0.0046370877,-4.5032225,0.17989981,8.364348
401,1715789492.0482965,-0.95282996,-2.538775,-0.0046370877,-4.5032225,0.17989981,8.364348
402,1715789492.059786,-0.95282996,-2.538775,-0.0046370877,-4.9790864,1.0143417,9.181686
403,1715789492.060978,0.3277689,-2.2566144,0.75416744,-4.9790864,1.0143417,9.181686
404,1715789492.0842576,0.3277689,-2.2566144,0.75416744,-4.7139707,1.1377366,9.555536
405,1715789492.0856178,0.7087728,-2.1641166,0.79590124,-4.3975425,0.86529064,9.736352
406,1715789492.0869243,0.7087728,-2.1641166,0.79590124,-4.156251,0.5867361,9.865855
407,1715789492.0939903,0.7087728,-2.1641166,0.79590124,-4.156251,0.5867361,10.176785
408,1715789492.0952563,0.9989568,-2.1214066,0.77247167,-3.6315174,-0.051618114,10.176785
409,1715789492.1033638,1.4807258,-2.1133528,0.66191375,-2.8215103,-1.0283916,11.051545
410,1715789492.113248,1.8036441,-2.181933,0.5967505,-2.4989734,-1.2959507,11.708225
411,1715789492.132785,1.8036441,-2.181933,0.46639338,-2.3658047,-1.1096367,13.068011
412,1715789492.1352797,2.3859646,-2.3691247,0.46639338,-2.3658047,-1.1096367,13.068011
413,1715789492.16234,3.5560362,-2.408418,0.41977844,-2.4537694,-1.040609,13.515164
414,1715789492.1635964,4.517652,-1.8082812,0.19744232,-2.627255,-1.0797043,12.564658
415,1715789492.1810153,4.830045,-1.421664,-0.27529657,-3.6034176,-0.7699956,11.463879
416,1715789492.2034578,3.730049,-1.2278825,0.7751563,-5.7829847,-0.33261612,11.104691
417,1715789492.213504,3.755919,-1.1165924,1.6557454,-3.9907062,-1.9410243,11.432114
418,1715789492.2352295,3.755919,-1.1165924,1.6557454,1.6720145,-4.826141,11.250687
419,1715789492.2366855,4.344097,-0.49446,1.9744841,1.6720145,-4.826141,11.250687
420,1715789492.255126,4.344097,-0.49446,1.9744841,4.3188934,-4.171904,8.316701
421,1715789492.2561395,4.687272,1.0172611,-0.64434165,4.3188934,-4.171904,8.316701
422,1715789492.2707598,4.879101,1.5324965,-1.5215139,4.3188934,-4.171904,8.316701
423,1715789492.2733114,4.879101,1.5324965,-1.5215139,2.504624,-2.8548787,6.7241755
424,1715789492.2974024,4.879101,1.5324965,-1.7819229,2.504624,-2.8548787,6.7241755
425,1715789492.2984276,4.6553006,1.7121226,-0.6233527,-4.591187,2.6777277,0.9948704
426,1715789492.3128133,4.0802712,1.4909762,0.064919226,-5.061553,3.2983668,-0.5322927
427,1715789492.314709,3.8262076,1.3545482,0.7761325,-4.2203918,2.562885,-1.4217125
428,1715789492.3516908,3.8262076,1.3545482,0.7761325,-4.2203918,2.562885,-4.5902705
429,1715789492.3527892,3.9196813,1.9154222,0.07150877,-0.024969118,1.7864754,-4.5902705
430,1715789492.3799672,4.109314,1.709194,-0.1615659,-0.4977788,2.7339275,-5.8504853
431,1715789492.3819373,3.9684927,1.4775531,-0.15668476,-0.9559277,3.302032,-6.8706303
432,1715789492.4094326,3.6536589,1.336244,-0.019036464,-0.9559277,3.302032,-6.8706303
433,1715789492.4109669,3.1884556,1.1817558,0.6650865,-0.7885507,2.844494,-7.5584645
434,1715789492.4123125,3.1162145,1.1651597,0.9977366,0.17600554,2.033876,-7.5981708
435,1715789492.4349313,2.9602618,0.96771747,0.8942563,1.7599791,0.9440922,-7.8913865
436,1715789492.445641,2.8148038,0.83885527,0.6999867,2.0812943,0.7113526,-8.09175
437,1715789492.4727178,2.5358462,0.5913812,0.41684976,2.0812943,0.7113526,-8.09175
438,1715789492.4737244,2.4489315,0.383658,0.36047253,1.8717675,0.9300423,-8.651914
439,1715789492.4982579,2.2595432,0.11665936,0.36437747,1.7233272,1.3075571,-8.983613
440,1715789492.5001092,2.08553,-0.09737884,0.37145513,1.7068338,1.5219707,-9.171149
441,1715789492.5068455,1.867099,-0.38268176,0.38805103,1.7068338,1.5219707,-9.171149
442,1715789492.5089402,1.6337801,-0.65459204,0.4288086,2.0238729,1.7327193,-9.188253
443,1715789492.515487,1.6337801,-0.65459204,0.4288086,2.3745096,1.6924021,-8.798521
444,1715789492.5166783,1.4868273,-0.8808331,0.46248847,2.3745096,1.6924021,-8.798521
445,1715789492.5276053,1.4782852,-0.96674126,0.4595598,2.6921594,1.7168368,-8.269512
446,1715789492.5360677,1.4782852,-0.96674126,0.4595598,2.6921594,1.7168368,-7.853513
447,1715789492.5386567,1.5393301,-1.0321486,0.4463807,2.8998537,1.8023579,-7.853513
448,1715789492.5458236,1.6340244,-1.0770551,0.45760733,2.8998537,1.8023579,-7.853513
449,1715789492.5468538,1.6340244,-1.0770551,0.45760733,3.0782263,1.883603,-7.4552283
450,1715789492.5710006,1.6340244,-1.1751661,0.40684342,3.0782263,1.883603,-7.4552283
451,1715789492.5726323,2.105543,-1.2862122,0.37121108,3.320129,2.1792617,-6.7661724
452,1715789492.5803246,2.2195175,-1.3909128,0.37413976,3.3842697,2.2208006,-6.77839
453,1715789492.596073,2.281264,-1.6367089,0.30629185,3.4710126,2.2849414,-7.104592
454,1715789492.6033647,2.0794287,-1.8702717,0.26236153,3.4875062,2.2434027,-7.2432585
455,1715789492.6152704,1.8653905,-2.0945604,0.17498904,3.5223253,2.364354,-7.538917
456,1715789492.6377892,1.5032096,-2.4560091,-0.035876416,3.428863,2.8060095,-8.262793
457,1715789492.6392558,1.0402025,-2.815292,-0.28335047,3.428863,2.8060095,-8.262793
458,1715789492.65338,1.0402025,-2.815292,-0.28335047,3.428863,2.033876,-7.8693953
459,1715789492.6556542,-1.459737,-4.1454344,-1.8651465,2.158874,2.033876,-7.8693953
460,1715789492.6645107,-1.459737,-4.276249,-2.1941357,0.85956377,0.7174612,-5.7820687
461,1715789492.6655254,-3.3556347,-4.276249,-2.1941357,0.85956377,0.7174612,-5.7820687
462,1715789492.6765366,-4.9872184,-3.7656813,-1.8817425,0.85956377,0.7174612,-5.7820687
463,1715789492.6779664,-4.9872184,-3.7656813,-1.8817425,-0.46051604,-1.4401149,-1.2439507
464,1715789492.7004232,-4.9872184,-3.7656813,-1.8817425,-0.46051604,-1.4401149,9.58608
465,1715789492.7032783,-1.5551938,-2.6988766,-0.4234393,-3.0970104,0.36743546,9.58608
466,1715789492.7171211,-0.44320798,-2.496309,-0.18353106,-3.733532,1.520749,10.86462
467,1715789492.72936,0.30385128,-2.4335558,-0.08151512,-4.115934,1.8548924,11.349036
468,1715789492.745667,1.7243255,-2.1238472,0.18084641,-4.1037164,0.7449502,10.83591
469,1715789492.753099,2.0452607,-1.9166427,0.2421048,-3.4769685,-1.2776246,9.8383665
470,1715789492.764459,2.042576,-1.8485507,0.22233616,-3.0597477,-2.4975226,9.67893
471,1715789492.7796285,2.042576,-1.8485507,0.22233616,-2.8441122,-3.252552,10.08821
472,1715789492.780766,2.0484335,-1.9325063,0.15790504,-2.8441122,-3.252552,10.08821
473,1715789492.7927635,2.0484335,-1.9325063,0.16010156,-2.804406,-3.5592062,10.736339
474,1715789492.7942526,2.571967,-2.0791848,0.21843125,-2.7970755,-3.3716707,11.421729
475,1715789492.8024733,3.0066328,-2.0642972,0.17840585,-2.9552896,-2.3588562,12.358186
476,1715789492.8146472,3.5924006,-2.071375,0.122760795,-2.9552896,-2.3588562,12.358186
477,1715789492.8171008,3.5924006,-2.071375,0.122760795,-3.4372623,-1.5873333,12.890249
478,1715789492.827702,4.0475674,-1.7931497,-0.04344219,-4.1165447,-0.9129381,13.103441
479,1715789492.8399734,4.6496873,-1.6425663,-0.16547081,-5.0279555,-0.5170974,13.030748
480,1715789492.8530457,4.6496873,-1.6425663,-0.16547081,-5.0279555,0.16890424,9.664881
481,1715789492.8550687,5.139022,-0.90597105,0.45809543,-6.7286043,0.16890424,9.664881
482,1715789492.8719778,3.649754,-0.24454537,1.7816789,-4.1898484,-1.887879,8.981322
483,1715789492.889264,3.649754,-0.0302631,1.7211527,-3.0817387,-2.3893993,9.147478
484,1715789492.8910925,3.5211358,-0.0302631,1.7211527,-3.0817387,-2.3893993,9.147478
485,1715789492.90276,4.0834436,0.75416744,0.85179025,-1.2613604,-3.1511483,8.209189
486,1715789492.9128263,4.318959,1.4106814,0.761001,-1.2613604,-3.1511483,8.209189
487,1715789492.9149451,4.318959,1.4106814,0.761001,-1.4519503,-2.6795604,6.4022493
488,1715789492.9342237,4.3074884,1.9056599,0.944288,-1.7005725,-1.7394388,4.5226173
489,1715789492.935992,4.1503153,2.1799805,1.1412421,-1.725618,-0.6221663,2.877557
490,1715789492.9545143,3.9499447,2.246608,1.2901171,-1.5270867,0.36254853,1.3925437
491,1715789492.9568796,3.5855672,2.0174382,1.3669951,-0.90950197,1.0955868,-0.46143234
492,1715789492.9648757,3.5855672,2.0174382,1.3669951,-0.90950197,1.185384,-1.5078444
493,1715789492.967134,3.2521544,1.7201765,1.1353848,-0.49228102,1.185384,-1.5078444
494,1715789492.9811642,3.2521544,1.7201765,1.1353848,-0.49228102,1.3197744,-2.1003838
495,1715789492.9844043,3.0969338,1.6064458,1.0006652,-0.3328452,1.3197744,-2.1003838
496,1715789492.9854414,2.9463506,1.6464713,0.9045067,-0.22899811,1.593442,-2.4650702
497,1715789493.001192,2.9463506,1.794614,0.81737816,-0.08483391,1.8677205,-2.774779
498,1715789493.0024443,2.8999798,1.794614,0.81737816,0.2242639,2.0485365,-3.364264
499,1715789493.004461,3.1357388,1.9715555,0.752459,0.2242639,2.0485365,-3.364264
500,1715789493.0144324,3.5313864,2.0782084,0.75441146,0.7557167,1.7290541,-4.4412193
501,1715789493.0459368,3.5313864,2.0782084,0.75441146,0.7557167,0.84879726,-6.1223207
502,1715789493.0484407,3.8332853,1.7133428,0.3128814,1.3177127,0.84879726,-6.1223207
503,1715789493.0496118,3.8332853,1.7133428,0.3128814,1.0648144,0.5335908,-6.7527337
504,1715789493.07928,3.8332853,1.7133428,0.3128814,0.3018438,1.2935071,-7.8596215
505,1715789493.0816672,3.5064926,1.4055562,0.901578,0.3018438,1.2935071,-7.8596215
506,1715789493.1050227,2.8389654,0.8671659,0.89303595,1.6359735,1.2843442,-8.24691
507,1715789493.1378007,2.8389654,0.8671659,0.89303595,1.9243019,1.2928963,-8.370915
508,1715789493.1390643,2.4045131,0.32557237,0.8029789,2.3213644,1.3558154,-8.535238
509,1715789493.150354,1.9051719,-0.14741059,0.6323828,2.9194014,1.5128077,-8.59938
510,1715789493.1712735,1.598636,-0.4807928,0.4927516,2.9194014,1.5128077,-8.59938
511,1715789493.173288,1.5039418,-0.6353115,0.39586085,3.8381426,1.5696182,-8.16933
512,1715789493.1818962,1.5039418,-0.6353115,0.39586085,4.0165153,1.4865406,-7.9036036
513,1715789493.1834843,1.4465579,-0.7656381,0.28798756,4.0165153,1.4865406,-7.9036036
514,1715789493.1847203,1.4289857,-0.84105176,0.21843125,4.068439,1.4352279,-7.6592574
515,1715789493.1983483,1.4609572,-0.906215,0.13789235,4.068439,1.4352279,-7.6592574
516,1715789493.2001758,1.4609572,-0.906215,0.13789235,4.0152936,1.4156802,-7.40697
517,1715789493.201195,1.4609572,-0.906215,0.13789235,3.764228,1.4559973,-7.008686
518,1715789493.2081332,1.4609572,-1.0628998,0.1444819,3.764228,1.4559973,-7.008686
519,1715789493.209377,1.7968104,-1.0628998,0.1444819,3.764228,1.4559973,-7.008686
520,1715789493.221677,1.7968104,-1.0628998,0.1444819,3.351894,1.3326025,-6.9066715
521,1715789493.234688,1.7968104,-1.1632073,0.17718557,3.351894,1.3326025,-6.9066715
522,1715789493.2374346,2.0447726,-1.2581456,0.19548985,3.1600823,1.3460416,-6.981197
523,1715789493.2472112,2.0989532,-1.4031156,0.2020794,2.8796952,1.5170839,-7.09604
524,1715789493.2609837,2.0989532,-1.4031156,0.2020794,2.53028,1.7864754,-7.311675
525,1715789493.2626998,1.9234762,-1.9632576,0.31727442,2.3855052,2.0210476,-7.6281033
526,1715789493.2964327,1.5952193,-2.9087658,0.21501444,2.4105506,2.3215933,-8.041659
527,1715789493.2977164,1.2312994,-3.806927,-0.09786696,2.6347382,2.9336803,-9.14366
528,1715789493.3045285,1.2312994,-3.806927,-0.09786696,2.4294875,2.9568932,-9.410608
529,1715789493.3058465,-0.27407628,-4.746334,-0.9542943,2.4294875,2.9568932,-9.410608
530,1715789493.3158722,-3.7259,-4.5017886,-1.7140751,1.3054954,1.6545285,-6.533433
531,1715789493.3297982,-3.7259,-4.5017886,-1.7140751,1.3054954,-0.23426682,-1.8487073
532,1715789493.3316321,-5.3525724,-3.8872218,-1.5361574,0.34277177,-0.23426682,-1.8487073
533,1715789493.3385265,-5.3525724,-3.8872218,-1.5361574,0.34277177,-0.23426682,2.4768295
534,1715789493.339775,-4.954271,-3.551887,-1.0567983,-0.18196149,-1.0998629,2.4768295
535,1715789493.3477545,-3.5413926,-3.2814415,-0.7170707,-0.18196149,-1.0998629,2.4768295
536,1715789493.3501923,-3.5413926,-3.2814415,-0.7170707,-0.76778126,-0.4999932,6.449286
537,1715789493.3572,-1.2674198,-2.6617799,-0.30433938,-1.7677677,1.2421945,9.699089
538,1715789493.3704765,-0.102748096,-2.4130552,-0.110557936,-2.3841307,1.9459113,10.822471
539,1715789493.3807232,0.9789441,-2.1985288,0.035144243,-2.8050168,1.9905044,10.906159
540,1715789493.4057307,1.6623349,-1.7177359,0.19915071,-2.7036133,1.1676689,9.468793
541,1715789493.421847,1.6623349,-1.7177359,0.19915071,-2.7036133,-0.33261612,8.55555
542,1715789493.422848,1.3174515,-1.6340244,0.06760386,-2.8380036,-0.33261612,8.55555
543,1715789493.4350276,1.1590583,-1.7885126,0.11299851,-3.1055624,-0.8378017,9.280646
544,1715789493.4373932,1.20006,-1.999378,0.18084641,-3.375565,-0.9440922,10.27147
545,1715789493.4447162,1.3176955,-2.1631403,0.25381953,-3.59792,-0.8078693,11.124848
546,1715789493.4527335,1.3176955,-2.1631403,0.25381953,-4.1984005,-0.13469578,13.19446
547,1715789493.4538553,2.2700374,-2.5238876,0.49860895,-4.1984005,-0.13469578,13.19446
548,1715789493.464656,3.425679,-2.6254153,0.5901609,-4.5355983,0.10720685,13.769284
549,1715789493.4801369,3.425679,-2.6254153,0.5901609,-4.7023644,0.20372356,13.396657
550,1715789493.4824164,4.789288,-2.3608267,0.6126142,-4.7023644,0.20372356,13.396657
551,1715789493.4984033,4.789288,-2.3608267,0.6126142,-4.7023644,0.20372356,12.088794
552,1715789493.5007992,5.015285,-2.2073147,0.48957884,-5.0957613,0.47433686,12.088794
553,1715789493.5087907,4.7888,-1.9617932,0.19329333,-5.914932,0.61850107,11.163944
554,1715789493.5292866,4.7888,-1.9110293,0.38194957,-6.6614094,0.24037547,10.9703
555,1715789493.5316095,4.7360835,-1.8834507,0.95160973,-6.48548,-0.47800204,10.951363
556,1715789493.5446336,4.8644576,-1.3911568,1.8241448,-3.9577196,-2.2208006,10.9269285
557,1715789493.5758398,4.7021594,-0.6155429,1.9281132,-0.6883688,-3.614795,10.30629
558,1715789493.5768528,4.135672,0.8952325,0.9906589,2.6115253,-3.623958,8.481635
559,1715789493.6018665,4.312125,1.9815617,-0.12324891,2.6695576,-2.2262983,5.5940747
560,1715789493.6038501,4.395105,2.2500248,-0.6321388,1.5516741,-1.1939361,3.2630131
561,1715789493.6159804,4.395105,2.2500248,-0.6321388,1.5516741,-1.1939361,0.83971065
562,1715789493.616963,4.219872,2.1890104,-0.76246536,-0.074449204,0.090713486,0.83971065
563,1715789493.6305504,3.9148004,2.0667377,-0.607489,-1.12697,0.82619524,-0.5420666
564,1715789493.6385489,3.9148004,2.0667377,-0.607489,-2.2051473,1.5635096,-1.9433914
565,1715789493.6395676,3.6897795,1.8407409,-0.43954712,-2.2051473,1.5635096,-1.9433914
566,1715789493.6534204,3.6897795,1.8407409,-0.43954712,-2.7524824,2.1743748,-2.9085586
567,1715789493.6564248,3.1511147,1.4243486,-0.0056133163,-2.8636599,2.7754662,-3.7711003
568,1715789493.670794,2.9204805,1.4477781,0.13960074,-2.67307,2.8334985,-4.3318744
569,1715789493.6858356,2.9424455,1.4155625,0.29189247,-2.310216,2.5579982,-4.845001
570,1715789493.688617,3.0808263,1.3218446,0.40562314,-1.9039906,2.1762075,-5.3306394
571,1715789493.7007604,3.238487,1.1768746,0.46492904,-1.5160912,1.7424932,-5.833992
572,1715789493.7037985,3.3383064,1.0028617,0.48323336,-1.0915399,1.1817188,-6.578026
573,1715789493.7124608,3.3383064,1.0028617,0.48323336,-1.0915399,1.1817188,-6.8174853
574,1715789493.7150383,3.3685696,1.0284877,0.5359802,-1.0286207,1.1230757,-6.8174853
575,1715789493.7361293,3.5177193,1.0929189,0.7409883,-0.85941106,1.2428054,-7.2096605
576,1715789493.766038,3.643653,1.0624117,0.86472535,-0.85941106,1.2428054,-7.2096605
577,1715789493.7674947,3.636087,0.87253517,1.1595465,0.23953554,1.1322387,-8.405124
578,1715789493.778633,3.636087,0.87253517,1.0204339,0.5767332,1.2910637,-8.713611
579,1715789493.7796254,3.280221,0.7056,1.0204339,0.5767332,1.2910637,-8.713611
580,1715789493.7888997,3.280221,0.56673145,0.9088997,0.717843,1.5457945,-8.782028
581,1715789493.7899148,2.9980907,0.56673145,0.9088997,0.717843,1.5457945,-8.782028
582,1715789493.7976828,2.9980907,0.43100512,0.7868711,0.8113054,1.9080375,-8.710557
583,1715789493.8000014,2.6815486,0.43100512,0.7868711,0.8113054,1.9080375,-8.710557
584,1715789493.8013146,2.3679044,0.21281794,0.7151182,1.0092257,2.499355,-8.490034
585,1715789493.8136022,2.186082,-0.048567392,0.7336666,1.4783703,2.9501736,-8.464378
586,1715789493.8358037,2.186082,-0.048567392,0.7336666,1.4783703,3.225063,-8.370915
587,1715789493.8372846,1.6801511,-0.4085518,0.6440976,2.744694,3.225063,-8.370915
588,1715789493.8467846,1.6801511,-0.67972994,0.47786412,3.7037523,3.0057623,-8.059985
589,1715789493.8482397,1.5268831,-0.67972994,0.47786412,3.7037523,3.0057623,-8.059985
590,1715789493.8727481,1.4963455,-0.9125605,0.30507156,4.6725845,2.4541512,-7.6769724
591,1715789493.886824,1.5583665,-1.0323926,0.17328064,4.9767957,2.0638082,-7.0532794
592,1715789493.8881936,1.6542811,-1.1168364,0.11177822,4.9767957,2.0638082,-7.0532794
593,1715789493.9137032,2.1733909,-1.2928017,0.010738519,4.742834,1.8860464,-6.5951304
594,1715789493.9163241,2.1733909,-1.2928017,0.010738519,4.503375,2.0485365,-6.6965337
595,1715789493.943999,1.9364113,-2.0621006,-0.2796896,3.6298378,2.4010057,-7.3880334
596,1715789493.9647644,1.2752296,-3.1064522,-0.7668584,2.6005297,2.9098566,-8.311662
597,1715789493.9803722,0.6462941,-3.7361505,-1.0824244,2.1234438,3.0008755,-8.796078
598,1715789493.99616,0.6462941,-3.7361505,-1.990836,0.51747924,2.5237896,-7.2640276
599,1715789493.9971473,-2.1431277,-4.2613616,-1.990836,0.51747924,2.5237896,-7.2640276
600,1715789494.0051634,-2.1431277,-4.2613616,-2.0530705,-0.87529355,0.75533485,-2.9989665
601,1715789494.0064774,-4.5186286,-3.654391,-2.0530705,-0.87529355,0.75533485,-2.9989665
602,1715789494.0210767,-4.5762258,-3.2316535,-1.4670587,-0.87529355,0.75533485,-2.9989665
603,1715789494.022062,-3.0749688,-2.9919891,-0.8427602,-2.1727712,-1.6355917,5.8481946
604,1715789494.0518384,0.6831467,-2.0601482,0.15912533,-2.9009228,-0.3051272,9.619066
605,1715789494.0693438,1.1819998,-1.8505032,0.27920148,-2.7396543,-0.35277468,9.220171
606,1715789494.0807707,1.1819998,-1.8505032,0.27920148,-2.7396543,-0.35277468,8.73209
607,1715789494.082299,1.3442978,-1.6694126,0.15180361,-2.5887706,-0.61300325,8.73209
608,1715789494.0973704,1.3442978,-1.7245696,0.040269446,-2.9974394,-1.1695015,8.746751
609,1715789494.0993795,1.2154356,-1.7245696,0.040269446,-2.9974394,-1.1695015,8.746751
610,1715789494.1006675,1.3884722,-1.9608169,0.11861181,-3.7591884,-1.4639386,9.797439
611,1715789494.1306741,1.3884722,-1.9608169,0.11861181,-3.7591884,-1.344209,11.45777
612,1715789494.131678,1.7497075,-2.2819963,0.30238694,-4.580191,-1.344209,11.45777
613,1715789494.1433456,1.7497075,-2.2819963,0.30238694,-4.580191,-1.344209,12.33314
614,1715789494.144865,2.7252347,-2.6093078,0.47103047,-5.37004,-1.0638218,12.957444
615,1715789494.1595528,3.9802074,-2.8057737,0.66996765,-6.095748,-1.1291844,13.09489
616,1715789494.1605592,4.7033796,-2.7164488,0.84739727,-6.1611104,-1.2470814,12.597645
617,1715789494.1780574,4.9833136,-2.4691882,0.98309314,-6.1611104,-1.2470814,12.597645
618,1715789494.179834,4.9833136,-2.4691882,0.98309314,-6.064594,-1.4138476,11.562228
619,1715789494.186961,4.5532846,-2.118722,0.9201263,-6.0395484,-1.0906999,10.838353
620,1715789494.2217257,3.8862455,-2.2290359,0.29262465,-7.9869866,0.48533243,11.39424
621,1715789494.223725,4.318715,-2.4821234,1.1405101,-8.996136,-0.15790866,11.7497635
622,1715789494.2367394,4.5569453,-2.3410583,1.8980943,-8.321741,-1.1004738,11.743045
623,1715789494.2522614,4.80808,-1.050697,3.1164587,-3.2356768,-3.2488868,11.211592
624,1715789494.267264,4.80808,-1.050697,1.0690013,3.7385716,-4.925712,6.9776845
625,1715789494.269263,5.2661757,1.2620505,1.0690013,3.7385716,-4.925712,6.9776845
626,1715789494.283267,4.7187552,1.5708134,-0.039781332,3.2230015,-5.627596,3.6686275
627,1715789494.2852705,3.939694,1.738725,-0.422219,3.2230015,-5.627596,3.6686275
628,1715789494.3048418,3.939694,1.738725,-0.422219,1.2315807,-5.188384,1.5305992
629,1715789494.3058617,3.2397072,1.0182374,0.6135904,-2.5411232,-0.81581056,0.041309763
630,1715789494.3151865,3.0473902,0.8793688,1.1322122,-2.5411232,-0.81581056,0.041309763
631,1715789494.318189,3.0473902,0.8793688,1.1322122,-3.1403818,1.7443258,-0.18715385
632,1715789494.344138,3.0473902,0.8793688,1.1322122,-2.8050168,3.6844337,-0.5243515
633,1715789494.3456423,3.3876061,1.0279996,1.3684595,-1.000521,4.206113,-1.8804723
634,1715789494.364981,3.343432,1.0963356,1.2976829,0.6854672,3.4413095,-3.1174743
635,1715789494.3671453,3.1957772,1.0267794,0.9467286,2.0305924,2.496301,-4.0734787
636,1715789494.3810043,3.1547756,0.8747317,0.59919107,2.6139688,1.6184875,-4.804684
637,1715789494.384373,3.0652065,0.74416107,0.27432033,2.6115253,0.9990701,-5.3300285
638,1715789494.3979013,3.0652065,0.74416107,0.27432033,2.3036492,0.91782504,-5.5010705
639,1715789494.3988829,3.0744805,0.726833,0.117635585,1.4857006,1.2208142,-5.716095
640,1715789494.400748,3.2711906,0.7883354,0.0026846298,1.4857006,1.2208142,-5.716095
641,1715789494.412574,3.447156,0.8808331,0.1415532,0.78015125,1.4046847,-6.1039944
642,1715789494.429489,3.6160743,0.9267159,0.37072295,0.328111,1.325883,-6.6073475
643,1715789494.4389994,3.6534152,0.8459329,0.60163164,0.030008756,1.0919216,-7.2463126
644,1715789494.4468603,3.6143656,0.75611985,0.7815018,-0.074449204,0.9550878,-7.7099595
645,1715789494.46018,3.6143656,0.75611985,0.7815018,0.28107437,1.3106114,-8.475373
646,1715789494.4620247,3.3922434,0.5782021,1.0319046,0.28107437,1.3106114,-8.475373
647,1715789494.4630451,3.199438,0.4888467,1.2100663,0.28107437,1.3106114,-8.475373
648,1715789494.4788213,2.8982713,0.3824377,1.4204437,0.9566913,1.8506162,-8.588384
649,1715789494.4872782,2.7079067,0.36779428,1.3247732,1.4924202,2.1352794,-8.494921
650,1715789494.4976923,2.7079067,0.31532198,1.332339,2.1857522,2.3741279,-8.294558
651,1715789494.499789,2.6715422,0.31532198,1.332339,2.1857522,2.3741279,-8.294558
652,1715789494.5181284,2.8694725,0.016107777,1.0916985,4.2834635,2.3655756,-8.5468445
653,1715789494.520112,2.9502554,-0.1313028,0.86155254,4.2834635,2.3655756,-8.5468445
654,1715789494.521884,2.9502554,-0.1313028,0.86155254,5.0097823,2.2489004,-8.956736
655,1715789494.5439734,3.071308,-0.58869654,0.46956614,5.414175,2.1340578,-9.43993
656,1715789494.5458236,3.071308,-0.58869654,0.46956614,5.6206474,2.060143,-9.923735
657,1715789494.551368,3.208468,-1.0426431,0.31068486,5.814903,2.01555,-10.708696
658,1715789494.5644276,3.1855268,-1.3159872,0.18548352,5.7923007,2.0619757,-11.109425
659,1715789494.5768342,2.9558687,-1.5637358,0.025870068,5.53757,2.0723603,-11.306123
660,1715789494.5967338,2.7950351,-1.7616662,-0.044174362,5.1307335,2.006387,-11.185782
661,1715789494.598825,2.6610477,-1.9281132,0.018792408,4.6286025,1.8823812,-10.81682
662,1715789494.612214,2.6610477,-1.9281132,0.018792408,4.6286025,1.7785342,-10.440527
663,1715789494.614351,2.624439,-2.0581958,0.32972133,3.8075995,1.4767667,-9.72276
664,1715789494.6265988,2.565133,-2.2356255,0.49250755,3.6909242,1.284955,-9.439319
665,1715789494.6377077,2.2614956,-2.391578,0.6145667,3.7220783,1.1859949,-9.232846
666,1715789494.6499279,1.1961551,-2.6102839,0.4229512,3.5510361,1.4052955,-8.686122
667,1715789494.665162,0.35632357,-2.872157,0.1244692,2.9810987,1.7302758,-8.08442
668,1715789494.690309,-0.46078008,-3.255083,-0.24064046,2.9810987,1.7302758,-8.08442
669,1715789494.6926231,-1.2664436,-3.687827,-0.65141934,1.3684145,2.2592852,-5.672724
670,1715789494.6986363,-2.1516697,-3.9814277,-1.0443515,1.3684145,2.2592852,-5.672724
671,1715789494.700201,-2.1516697,-3.9814277,-1.0443515,0.6023895,1.8267925,-4.052709
672,1715789494.701461,-2.9146233,-4.1600776,-1.3711442,-0.2729804,0.8164214,-1.8480965
673,1715789494.7185438,-2.9146233,-4.1600776,-1.3711442,-0.2729804,-1.0180069,2.7700448
674,1715789494.7207701,-2.9146233,-4.1600776,-1.3711442,-2.038992,-1.0180069,2.7700448
675,1715789494.7267776,-3.4330008,-3.9033296,-1.5058943,-2.038992,-1.0180069,2.7700448
676,1715789494.7280087,-2.7852728,-3.58093,-1.1312358,-3.2314007,-1.2428054,5.802991
677,1715789494.7394543,-1.9244524,-3.3170736,-0.71292174,-4.123264,-0.92087936,7.865272
678,1715789494.741791,-1.05509,-3.0954697,-0.2596769,-4.8550806,-0.36193767,9.581803
679,1715789494.7641776,0.1444819,-2.9668515,0.25308737,-4.8550806,-0.36193767,9.581803
680,1715789494.7659712,0.7580723,-2.917552,0.44491637,-5.237482,0.055283304,12.006938
681,1715789494.7843134,1.4226402,-2.8470192,0.6318947,-4.889289,-0.37415496,12.531672
682,1715789494.785756,2.1016378,-2.7830763,0.7485541,-4.2271113,-1.0375546,12.8700905
683,1715789494.7931387,2.2829726,-2.7547655,0.7656381,-3.9711585,-1.2544118,12.934842
684,1715789494.813019,3.0637422,-2.573187,0.7583164,-2.8984792,-2.1041253,12.988599
685,1715789494.8140762,3.1952891,-2.458938,0.6353115,-2.0402136,-2.2104158,12.96172
686,1715789494.8235028,3.2392194,-2.4503958,0.547695,-1.8881081,-1.9825631,13.08817
687,1715789494.8385036,3.7649488,-2.344719,0.4053791,-1.9009362,-1.6270396,13.232334
688,1715789494.8605113,3.7649488,-2.1138408,0.35412705,-1.9009362,-1.6270396,13.232334
689,1715789494.8615136,5.4616656,-1.490244,0.51547945,-1.5533539,-1.575116,8.01188
690,1715789494.8634677,5.407485,-0.9372103,0.5965064,-1.5533539,-1.575116,8.01188
691,1715789494.8716767,4.554993,-0.7475779,0.57405317,-1.2137129,-1.4987578,6.6398764
692,1715789494.8869197,4.554993,-0.58527976,0.74660164,-0.87712616,-1.2574661,6.848792
693,1715789494.8887088,3.4505727,-0.58527976,0.74660164,-0.87712616,-1.2574661,6.848792
694,1715789494.8961668,3.4505727,-0.58527976,0.74660164,-0.87712616,-1.2574661,8.11084
695,1715789494.898423,2.6908226,-0.35437113,0.9035305,-0.4085925,-1.1059716,8.11084
696,1715789494.9054496,2.7076626,-0.12642166,0.90792346,0.44478625,-0.8536842,10.429073
697,1715789494.9304357,5.105098,0.5616062,0.4170938,0.87911147,-0.45112398,11.137677
698,1715789494.9368198,5.8133826,1.2068936,0.21769907,0.6311002,0.06994407,9.752846
699,1715789494.947537,5.8133826,1.9869311,-0.09664667,0.15706873,1.0216721,7.4529376
700,1715789494.949138,5.705265,1.9869311,-0.09664667,0.15706873,1.0216721,7.4529376
701,1715789494.9643154,4.13372,2.743783,0.24796216,-0.1727985,1.1450669,3.1933744
702,1715789494.9857395,4.13372,2.743783,0.24796216,-0.1727985,-0.074830994,1.8323667
703,1715789494.9876025,3.1850386,2.3310518,-0.10079564,-0.12270755,-0.6392705,1.2190579
704,1715789495.0030017,3.2372668,2.186082,-0.2853029,-1.5313628,0.44440445,-0.54695344
705,1715789495.013405,3.2372668,2.186082,-0.29433304,-2.1813235,1.2483032,-1.5005141
706,1715789495.01625,3.0957136,2.1333654,-0.29433304,-2.1813235,1.2483032,-1.5005141
707,1715789495.0462158,3.0957136,2.1333654,-0.29433304,-2.4953082,1.7253889,-2.5011113
708,1715789495.047731,2.170706,1.5376216,0.12593354,-2.0597613,1.4523321,-3.1883347
709,1715789495.0619934,2.1472766,1.4758446,0.40220633,-0.18073976,0.04428773,-3.4058027
710,1715789495.0637825,2.4623544,1.4480221,0.39073566,-0.18073976,0.04428773,-3.4058027
711,1715789495.0735016,2.4623544,1.4814581,0.2328306,0.3311653,-0.32162055,-3.776598
712,1715789495.075887,2.6588514,1.4814581,0.2328306,0.3311653,-0.32162055,-3.776598
713,1715789495.100758,2.6734946,1.5822842,0.04637088,0.3311653,-0.32162055,-3.776598
714,1715789495.102742,2.6678813,1.6850322,-0.12032023,0.2767983,-0.45234573,-4.587827
715,1715789495.105186,2.9468386,1.7977866,-0.08786061,-0.51671565,-0.29229903,-5.3733997
716,1715789495.114938,2.9468386,1.7885126,0.16742326,-0.7763334,-0.18906279,-5.9879303
717,1715789495.1170712,3.0800939,1.7885126,0.16742326,-0.7763334,-0.18906279,-5.9879303
718,1715789495.1372406,3.0800939,1.7885126,0.16742326,-0.71219254,0.18173242,-7.0422835
719,1715789495.1397412,2.8570259,1.5151684,0.5965064,-0.71219254,0.18173242,-7.0422835
720,1715789495.1470306,2.8570259,1.5151684,0.5965064,-0.35483634,0.6032294,-7.3825355
721,1715789495.1493144,2.6849651,1.3447859,0.83006924,-0.35483634,0.6032294,-7.3825355
722,1715789495.1599202,2.6849651,1.3447859,0.83006924,-0.35483634,0.9434814,-7.565184
723,1715789495.1619356,2.615897,1.1165924,0.88913107,0.14546229,0.9434814,-7.565184
724,1715789495.1725724,2.6551905,0.88620234,0.8630169,1.3726906,1.7608191,-8.077701
725,1715789495.189466,2.6551905,0.88620234,0.8630169,1.7996854,1.9642372,-8.3018875
726,1715789495.19196,2.6000333,0.7004748,0.83128947,1.7996854,1.9642372,-8.3018875
727,1715789495.203719,2.6000333,0.7004748,0.83128947,2.4233787,2.1994202,-8.584107
728,1715789495.2057016,2.4318473,0.38341394,0.68583137,2.4233787,2.1994202,-8.584107
729,1715789495.2071645,2.3166523,0.23258655,0.5440341,2.816776,2.2250767,-8.654357
730,1715789495.2136335,2.3166523,0.23258655,0.5440341,3.1448107,2.219579,-8.692842
731,1715789495.2155883,2.3813276,-0.036608588,0.38463423,3.1448107,2.219579,-8.692842
732,1715789495.229341,2.52584,-0.22892569,0.302631,3.2938619,2.1835377,-8.766146
733,1715789495.2529175,2.52584,-0.91402483,0.22526483,3.4270303,2.3099868,-9.262779
734,1715789495.2549336,2.8101666,-0.91402483,0.22526483,3.4270303,2.3099868,-9.262779
735,1715789495.2633476,2.8699608,-1.2947541,0.34851375,3.5479817,2.4969118,-9.34158
736,1715789495.278723,2.8699608,-1.2947541,0.34851375,3.5479817,2.4523184,-9.41183
737,1715789495.27999,2.9590416,-1.5410385,0.45760733,3.8033233,2.4523184,-9.41183
738,1715789495.282021,2.9590416,-1.5410385,0.45760733,4.2199335,2.278833,-9.542555
739,1715789495.2895281,2.8489718,-1.8492827,0.53280747,4.2199335,2.278833,-9.542555
740,1715789495.296114,2.6776435,-1.9962053,0.5252417,4.573014,2.042428,-9.564547
741,1715789495.314253,2.1980405,-2.204874,0.41684976,4.573014,2.042428,-9.564547
742,1715789495.315508,1.3584532,-2.322754,0.15473229,4.7904816,1.5567901,-8.893816
743,1715789495.322323,0.61822754,-2.3549695,-0.11592719,4.7904816,1.5567901,-8.893816
744,1715789495.3348749,0.61822754,-2.3549695,-0.11592719,4.3585997,1.4993688,-8.420396
745,1715789495.3535876,-1.2935339,-2.739146,-0.96210414,0.53763777,0.9092729,-4.5670576
746,1715789495.3767157,-1.5795995,-3.042021,-1.0821804,0.53763777,0.9092729,-4.5670576
747,1715789495.3782296,-2.0911434,-3.225552,-1.2535084,-2.1801016,0.10476339,-1.4882969
748,1715789495.3864722,-2.4994514,-3.1557517,-1.2198286,-2.1801016,0.10476339,-1.4882969
749,1715789495.3878322,-2.4994514,-3.1557517,-1.2198286,-3.1073952,-0.42180246,0.029092457
750,1715789495.4026227,-1.8412288,-2.931219,-0.44467232,-4.9381585,-1.4333953,5.2770357
751,1715789495.4282296,-1.8412288,-2.931219,-0.44467232,-4.9381585,-1.176221,8.73881
752,1715789495.4295316,-0.6023638,-2.7120557,0.11177822,-5.1861696,-1.176221,8.73881
753,1715789495.441627,-0.6023638,-2.7120557,0.11177822,-5.1861696,-1.1517864,9.826149
754,1715789495.4440193,-0.061258372,-2.6400588,0.28237423,-4.76284,-1.2507466,10.677085
755,1715789495.445023,0.5023003,-2.5744073,0.40269446,-4.76284,-1.2507466,10.677085
756,1715789495.464308,1.8358595,-2.386941,0.5469628,-3.5411096,-1.9892827,12.00816
757,1715789495.4793692,1.8358595,-2.386941,0.5469628,-3.0481412,-2.3289237,12.113839
758,1715789495.4807234,2.3488681,-2.3051817,0.5364683,-3.0481412,-2.3289237,12.113839
759,1715789495.5029194,2.5951521,-2.2114637,0.51523536,-2.6461918,-2.468201,12.039314
760,1715789495.5044234,3.1547756,-1.8048644,0.33069757,-2.2986095,-2.4700336,11.907978
761,1715789495.5252528,3.1547756,-1.8048644,0.29823795,-2.2986095,-2.4700336,11.907978
762,1715789495.5264893,3.1943128,-1.6542811,0.29823795,-2.133676,-1.2873985,10.750388
763,1715789495.528674,3.3414795,-1.4641299,0.33753118,-2.133676,-1.2873985,10.750388
764,1715789495.5457923,3.3414795,-1.4641299,0.33753118,-2.1855996,-0.9630291,10.044229
765,1715789495.5469558,3.2089562,-0.9923673,0.059794027,-2.4250586,-0.64965516,9.525603
766,1715789495.5563405,2.9275582,-0.8354385,-0.11031388,-2.9571223,-0.38881573,9.220171
767,1715789495.5749977,2.9275582,-0.8354385,-0.11031388,-4.303469,0.008857546,9.236665
768,1715789495.576554,2.9461064,-0.5894287,0.007321717,-5.5539103,0.06383542,9.300195
769,1715789495.5895472,3.3802843,-0.49568027,0.73000574,-5.919819,-0.2751948,8.984988
770,1715789495.597084,3.9199257,-0.3951287,1.6193808,-5.395696,-0.65087694,8.411996
771,1715789495.6044867,4.495687,-0.06955632,2.1836412,-4.6339474,-0.895223,7.897648
772,1715789495.6144686,4.495687,-0.06955632,2.1836412,-4.6339474,-0.895223,6.0943737
773,1715789495.61583,4.5562134,0.5542845,2.1894987,-1.969964,-1.2666291,6.0943737
774,1715789495.6252847,4.025846,0.9225669,1.8397646,-0.92599535,-0.9306532,5.501223
775,1715789495.6381567,3.9194372,1.1893214,1.5090669,-0.24732406,-0.83108217,5.218393
776,1715789495.6468828,3.9826484,1.3259935,1.5019894,-0.24732406,-0.83108217,5.218393
777,1715789495.6489341,3.9826484,1.3259935,1.5019894,0.14973834,-1.1633929,4.939227
778,1715789495.6555426,3.9826484,1.5878975,1.5168768,0.55046594,-1.5012014,4.6038623
779,1715789495.6567688,4.148363,1.5878975,1.5168768,0.55046594,-1.5012014,4.6038623
780,1715789495.669259,4.461733,2.0191467,1.2688842,1.3036628,-1.7296649,2.782262
781,1715789495.6774218,4.596971,2.249781,0.99749243,1.2871695,-1.1646146,1.0675634
782,1715789495.7012997,4.3382397,2.2998126,0.66020536,0.03795,0.95630956,-1.8676441
783,1715789495.7026496,3.8135166,2.153378,0.19304928,-1.0536662,1.996613,-2.9006174
784,1715789495.7106159,3.1210954,1.6096185,0.25748038,-1.467222,2.3533583,-3.4882696
785,1715789495.7236629,3.1210954,1.6096185,0.25748038,-1.2558626,2.2293527,-4.026442
786,1715789495.7261164,3.062034,1.4590046,0.6309185,-1.2558626,2.2293527,-4.026442
787,1715789495.7373266,3.152823,1.4128779,0.93257326,-0.5313764,1.7424932,-4.515745
788,1715789495.756075,3.152823,1.4128779,0.93257326,-0.5313764,1.7424932,-5.7099867
789,1715789495.75806,3.1044996,1.4843867,0.9718665,1.2670109,0.0015271631,-5.7099867
790,1715789495.7844534,3.1147501,1.6825917,0.56941605,1.4826463,-0.550695,-6.1320944
791,1715789495.786154,3.1418405,1.6774664,0.5396411,0.43989933,-0.36071593,-6.945156
792,1715789495.8183455,3.2628927,1.5566581,0.6821705,0.43989933,-0.36071593,-6.945156
793,1715789495.8208725,2.9622145,1.0358094,1.3425895,-0.19417879,2.1395555,-8.22553
794,1715789495.8225508,2.5775802,0.7273211,1.4951252,-0.19417879,2.1395555,-8.22553
795,1715789495.8454258,2.5775802,0.7273211,1.4951252,0.7337255,2.7785206,-8.384355
796,1715789495.8466253,2.302741,0.23966423,1.3152549,2.6322947,3.007595,-8.391685
797,1715789495.864179,2.302741,0.23966423,1.3152549,4.5650725,2.4248295,-8.733159
798,1715789495.866534,2.3820598,-0.37218732,0.90328634,4.5650725,2.4248295,-8.733159
799,1715789495.8794456,2.3820598,-0.37218732,0.6992545,4.5650725,2.4248295,-8.733159
800,1715789495.8804395,2.3168964,-0.6660627,0.6992545,5.0995793,2.2354615,-8.865716
801,1715789495.8945765,2.3168964,-0.6660627,0.6992545,5.0995793,2.0259347,-8.898704
802,1715789495.8964157,2.4918857,-1.0982882,0.4634647,5.512524,1.8231273,-8.976283
803,1715789495.919344,2.8645914,-1.5627596,0.35534734,5.469153,1.7760907,-9.068523
804,1715789495.9208207,2.9836915,-1.8082812,0.41221267,5.172272,1.9459113,-9.327531
805,1715789495.9450543,3.011514,-2.037695,0.4932397,5.169218,1.9727893,-9.540112
806,1715789495.9467812,2.9173079,-2.2336729,0.5298788,5.279174,1.9165897,-9.7252035
807,1715789495.957974,2.9173079,-2.2336729,0.5298788,5.3842425,1.8463402,-9.822942
808,1715789495.9604893,2.7723377,-2.3713212,0.52597386,5.3842425,1.8463402,-9.822942
809,1715789495.9618142,2.7723377,-2.3713212,0.52597386,5.560783,1.6172657,-9.863259
810,1715789495.9630635,2.1431277,-2.6112602,0.43173727,5.560783,1.6172657,-9.863259
811,1715789495.9821837,2.1431277,-2.6112602,0.43173727,5.560783,1.6172657,-9.41244
812,1715789495.9847028,1.2195846,-2.6825247,0.20866893,5.083697,0.87689704,-9.019044
813,1715789495.9862978,0.32850105,-2.6766675,-0.026358182,5.083697,0.87689704,-9.019044
814,1715789496.0077317,-0.2831064,-2.7079067,-0.19500175,3.5131624,0.2910773,-7.04656
815,1715789496.0101042,-1.1341646,-2.863615,-0.5642909,3.5131624,0.2910773,-7.04656
816,1715789496.0170617,-1.1341646,-2.863615,-0.5642909,3.5131624,0.36865717,-4.9207487
817,1715789496.018075,-1.9803414,-3.3278122,-1.1168364,0.7215082,0.355829,-3.256141
818,1715789496.036542,-1.9803414,-3.3278122,-1.1168364,0.7215082,0.355829,-1.6685021
819,1715789496.0379374,-2.3949947,-3.476443,-1.3735847,-0.5668066,0.10781772,-1.6685021
820,1715789496.0561016,-2.8135836,-3.2336059,-0.95575863,-3.9021308,-0.73639804,4.406553
821,1715789496.0643914,-2.1006618,-3.1642938,-0.5140151,-4.7249665,-0.61178154,6.8744483
822,1715789496.0871158,-2.1006618,-3.1642938,0.21379416,-5.3804245,-0.00580322,10.53292
823,1715789496.0887256,-0.40659937,-3.1037674,0.21379416,-5.3804245,-0.00580322,10.53292
824,1715789496.0977006,0.24308102,-3.1330545,0.383658,-5.3168945,-0.07849618,11.578722
825,1715789496.1152549,1.2171439,-3.1372035,0.5830833,-4.9131126,-0.5891795,12.608029
826,1715789496.1164289,1.9913242,-3.0532477,0.7090168,-4.3480625,-1.1798862,13.024029
827,1715789496.123943,2.5490253,-2.9470828,0.7346428,-3.646789,-1.765706,13.173691
828,1715789496.149457,3.1738122,-2.709127,0.71902317,-2.668794,-2.1988094,13.032581
829,1715789496.1514714,3.4703414,-2.4645512,0.66874737,-2.1684952,-1.964848,12.729591
830,1715789496.1825802,3.4703414,-2.4645512,0.66874737,-2.238134,-0.2666427,12.556717
831,1715789496.1835852,3.379064,-2.1938915,0.5389089,-2.238134,-0.2666427,12.556717
832,1715789496.185534,3.3805287,-2.0342782,0.36632994,-2.699948,0.58001655,12.564658
833,1715789496.191453,3.7100363,-1.8087693,-0.035876416,-2.699948,0.58001655,12.564658
834,1715789496.1928728,3.7100363,-1.8087693,-0.035876416,-3.801338,1.3093897,12.515178
835,1715789496.2142563,4.7863593,-0.9560028,0.40123013,-6.787858,1.3100005,10.210383
836,1715789496.2247558,4.8693385,-0.40147418,0.88302964,-7.3791757,0.9166033,8.7608
837,1715789496.238795,4.6003876,-0.3048275,1.4817021,-7.2906003,0.23426682,7.0687037
838,1715789496.2466595,4.6003876,-0.3048275,1.9910799,-6.5777206,-0.16707164,6.1261387
839,1715789496.2486918,4.22817,-0.21721096,1.9910799,-6.5777206,-0.16707164,6.1261387
840,1715789496.2560968,4.22817,-0.21721096,1.9910799,-4.983362,-0.12064589,5.6148443
841,1715789496.2581482,3.361004,0.036608588,2.2400186,-4.983362,-0.12064589,5.6148443
842,1715789496.2712722,3.0415328,0.48103684,2.2910264,-2.0951915,-0.9624182,6.252588
843,1715789496.301746,4.06758,1.2025006,1.76069,4.8943286,-3.0705142,5.014364
844,1715789496.3228211,4.06758,1.2025006,0.82445586,5.737323,-3.0833423,3.4591007
845,1715789496.3253503,4.140553,1.8053524,-0.06443111,5.1124077,-2.680782,2.0993147
846,1715789496.336082,4.140553,1.8053524,-0.06443111,3.188182,-1.887879,0.8843038
847,1715789496.337097,4.038049,2.1480088,-0.9281803,3.188182,-1.887879,0.8843038
848,1715789496.3456376,4.038049,2.1480088,-1.2456987,0.85589856,-0.8188649,-0.18165605
849,1715789496.3466387,3.9367654,2.2732103,-1.2456987,0.85589856,-0.8188649,-0.18165605
850,1715789496.363275,3.9367654,2.2732103,-1.2456987,-1.5252541,0.4633413,-1.2867113
851,1715789496.3657794,3.6729398,1.8107218,-0.3807293,-4.3975425,2.5274549,-3.0637183
852,1715789496.3729882,3.5121057,1.3809065,0.29482117,-5.0365076,3.3460143,-4.015446
853,1715789496.3898237,3.2089562,1.1683326,1.0233626,-5.0365076,3.3460143,-4.015446
854,1715789496.391269,3.2089562,1.1683326,1.0233626,-4.7640615,3.6092973,-4.5817184
855,1715789496.3992076,3.1506267,1.1068301,1.3882282,-3.8355465,3.3197472,-4.9616766
856,1715789496.4137557,3.1506267,0.9762595,1.8387884,-1.2931254,1.9642372,-5.548107
857,1715789496.415621,3.1196313,0.9618601,1.6723412,0.32933274,0.8958339,-5.9091287
858,1715789496.4230204,2.9707565,1.0426431,1.302564,0.32933274,0.8958339,-5.9091287
859,1715789496.4252787,2.9707565,1.0426431,1.302564,1.3702471,-0.19211712,-6.1803527
860,1715789496.4444256,3.199926,1.1798033,0.88010097,1.2425762,-0.6398814,-6.5945196
861,1715789496.4602976,3.1367152,0.84739727,0.9718665,0.49793154,1.135293,-7.9665227
862,1715789496.473026,2.8870447,0.6067568,1.1351408,0.58895046,2.1755965,-8.378857
863,1715789496.4883983,2.8870447,0.6067568,1.1351408,1.1149055,2.7754662,-8.632977
864,1715789496.490621,2.6049144,0.41465324,1.2986591,1.1149055,2.7754662,-8.632977
865,1715789496.49813,2.6049144,0.41465324,1.2986591,1.8473328,2.9721649,-8.672072
866,1715789496.5001075,2.3249505,0.2853029,1.3843232,1.8473328,2.9721649,-8.672072
867,1715789496.5130012,2.3249505,0.2853029,1.3379524,4.3243914,2.3515258,-8.26096
868,1715789496.5153875,1.9893718,0.08419975,1.3379524,4.3243914,2.3515258,-8.26096
869,1715789496.5337877,2.3647318,-0.345341,0.90182203,5.2113676,1.9929478,-8.160167
870,1715789496.5478907,2.3647318,-0.345341,0.90182203,5.2113676,1.711339,-8.288448
871,1715789496.5503855,2.4013402,-0.573565,0.73049384,6.1918063,1.6985108,-8.460102
872,1715789496.5517793,2.3891375,-0.8625288,0.50693744,6.1918063,1.6985108,-8.460102
873,1715789496.553248,2.3891375,-0.8625288,0.50693744,6.3750663,1.7192802,-8.640307
874,1715789496.5658967,2.53365,-1.1092707,0.25333142,6.186309,1.647809,-8.693453
875,1715789496.572812,2.7440271,-1.3555244,0.20622836,5.899202,1.5445728,-8.8162365
876,1715789496.5973291,3.0744805,-1.7140751,0.31019676,5.5204654,1.0522153,-9.384341
877,1715789496.6126008,3.0744805,-1.7140751,0.31019676,5.5204654,1.0522153,-9.720317
878,1715789496.614603,3.0830226,-1.9581323,0.311173,5.350645,0.9221011,-9.720317
879,1715789496.6286027,3.0830226,-1.9581323,0.311173,5.350645,0.96669424,-10.350119
880,1715789496.6306067,2.5204706,-2.4399014,0.28994003,5.007339,0.96669424,-10.350119
881,1715789496.6456153,2.0733273,-2.6293201,0.2294138,4.847903,1.0491611,-10.528492
882,1715789496.6601481,0.8698506,-3.0613017,-0.15570852,4.3115635,1.207986,-10.622565
883,1715789496.6761525,0.8698506,-3.4212859,-0.54867125,3.460628,0.74372846,-9.865092
884,1715789496.6781487,-2.045749,-3.6941726,-0.9045067,2.3567944,-0.18051068,-7.851069
885,1715789496.690975,-3.029086,-3.8137608,-1.098044,2.3567944,-0.18051068,-7.851069
886,1715789496.692446,-3.029086,-3.8137608,-1.098044,1.2132547,-1.1377366,-5.064913
887,1715789496.6934526,-3.3751593,-3.7161376,-1.0240947,0.27618745,-1.9569068,-2.2946389
888,1715789496.706527,-3.1516027,-3.4744906,-0.8910835,-0.64194304,-2.3863451,0.46769372
889,1715789496.7169087,-3.1516027,-3.4744906,-0.8910835,-2.423226,-1.5793921,4.8708105
890,1715789496.7182808,-2.2324526,-2.8614187,-0.5196284,-2.423226,-1.5793921,4.8708105
891,1715789496.7248635,-1.7404332,-2.615653,-0.2711476,-3.1953597,-0.79626286,6.664311
892,1715789496.7399564,-1.1551535,-2.455765,-0.021721095,-3.7634645,-0.1432479,8.074187
893,1715789496.7476506,-0.4412555,-2.3766904,0.22282428,-4.1672463,0.41996986,9.30386
894,1715789496.7606637,-0.4412555,-2.3766904,0.22282428,-4.3224063,0.7180721,9.900675
895,1715789496.7620168,0.78345424,-2.3505764,0.40708748,-4.368832,0.7266242,11.103469
896,1715789496.7741294,1.4287416,-2.3759582,0.42563587,-4.2564325,0.30451632,11.49992
897,1715789496.8046923,1.4287416,-2.3759582,0.42563587,-4.2564325,0.30451632,11.687456
898,1715789496.80573,2.509,-2.2519772,0.42587993,-3.6327393,-1.1004738,11.793746
899,1715789496.8185768,2.509,-2.2519772,0.42587993,-3.6327393,-1.3625349,11.835896
900,1715789496.8217108,2.6298084,-2.2283037,0.41562948,-3.511788,-1.3625349,11.835896
901,1715789496.822724,3.071064,-2.0872386,0.28701133,-3.4091625,-1.6514742,11.8676605
902,1715789496.842599,3.071064,-2.0872386,0.28701133,-3.6028068,-1.5109752,11.799244
903,1715789496.8438656,3.1681986,-1.8522114,0.15766099,-3.6028068,-1.5109752,11.799244
904,1715789496.8513098,3.1681986,-1.8522114,0.15766099,-4.424421,-0.9263771,11.172496
905,1715789496.8589683,3.4266553,-1.6957707,0.1769415,-4.424421,-0.9263771,11.172496
906,1715789496.86588,3.6182706,-1.451439,0.24015234,-4.7432923,-0.8151997,10.040563
907,1715789496.8763468,3.6182706,-1.451439,0.24015234,-4.7084727,-0.9960158,9.117545
908,1715789496.8784368,3.481812,-1.2864562,0.37413976,-4.7084727,-0.9960158,9.117545
909,1715789496.8890555,3.2199388,-1.1204973,0.6563005,-4.2900305,-1.6368134,8.3832855
910,1715789496.8951137,3.0346992,-1.0048141,0.84861755,-3.5533268,-2.3331997,8.240954
911,1715789496.9176552,3.0346992,-1.0048141,0.84861755,-2.3939044,-3.02531,8.58365
912,1715789496.9191372,3.0656946,-0.4996157,1.084621,-0.5808565,-3.280041,9.351507
913,1715789496.9251995,3.602407,-0.46322066,0.81737816,-0.5808565,-3.280041,9.351507
914,1715789496.9266186,3.602407,-0.46322066,0.81737816,0.38553232,-3.2940907,9.694813
915,1715789496.9434636,4.8166223,0.19988288,0.028554698,0.704404,-2.7608054,8.680166
916,1715789496.9600782,5.0165052,0.86618966,-0.44101146,-2.0170007,-0.81336707,6.791371
917,1715789496.973502,4.985754,1.0282438,-0.07297312,-3.3767867,0.038179077,5.9398246
918,1715789496.9888241,4.8427367,1.3760253,0.46712556,-3.8489854,0.41080686,5.0497937
919,1715789496.9949424,4.8427367,1.3760253,0.46712556,-3.8489854,0.41080686,4.0351467
920,1715789496.997154,4.8227234,1.7035805,0.8969409,-3.6186893,0.6759224,4.0351467
921,1715789497.0054078,4.8227234,1.7035805,0.8969409,-2.9894981,0.9202685,2.760271
922,1715789497.006734,4.667259,2.0147536,1.0965797,-2.9894981,0.9202685,2.760271
923,1715789497.0126424,4.080027,2.1367822,0.914269,-2.9894981,0.9202685,2.760271
924,1715789497.0139477,4.080027,2.1367822,0.914269,-2.069535,0.97402465,0.74685913
925,1715789497.0505488,3.2982812,1.8141385,0.8659456,-0.5118287,2.0112739,-2.4516313
926,1715789497.077555,3.1813776,1.7672795,0.96259224,-0.5118287,2.0112739,-2.4516313
927,1715789497.0795553,2.6573868,1.6733174,0.64385355,1.2865585,1.6325374,-3.5695148
928,1715789497.10056,2.5995452,1.6811273,0.29530928,1.5162439,1.0552697,-4.421672
929,1715789497.1025565,2.679596,1.7470227,0.25943285,1.3238213,0.9599747,-4.9818354
930,1715789497.114563,2.679596,1.7470227,0.25943285,1.0513754,0.9673051,-5.7099867
931,1715789497.1155632,2.7118115,1.7953461,0.4087959,1.0513754,0.9673051,-5.7099867
932,1715789497.1305668,2.7118115,1.7599578,0.6397045,0.9695195,1.1646146,-6.3856034
933,1715789497.1325674,2.692043,1.7599578,0.6397045,0.9695195,1.1646146,-6.3856034
934,1715789497.1385925,2.692043,1.7599578,0.6397045,0.9695195,1.4810427,-6.981808
935,1715789497.1415935,2.786005,1.653549,0.9374544,1.2456306,1.4810427,-6.981808
936,1715789497.1475945,2.8133395,1.477309,1.1053658,1.710499,1.7785342,-7.495546
937,1715789497.1551478,2.794303,1.1585703,1.1866369,2.6231318,2.1566598,-8.149782
938,1715789497.16415,2.759891,0.82372373,1.1305037,3.6109009,2.3527474,-8.688565
939,1715789497.1801534,2.695948,0.5584335,1.0060345,4.271857,2.400395,-8.977505
940,1715789497.2001579,2.7972317,0.24088451,0.77320385,4.83874,2.359467,-9.207801
941,1715789497.2021585,2.7620873,0.08932495,0.5386648,5.069036,2.2036965,-9.297598
942,1715789497.2031586,3.032503,-0.05906185,0.27480847,5.069036,2.2036965,-9.297598
943,1715789497.204159,3.032503,-0.05906185,0.27480847,4.961524,1.9642372,-9.40511
944,1715789497.2271643,3.3541703,-0.54256976,0.16937573,4.131358,1.7785342,-10.006813
945,1715789497.2461934,3.3541703,-0.54256976,0.16937573,4.131358,1.7785342,-10.184574
946,1715789497.248194,3.1884556,-1.067781,0.5206046,3.8796816,1.5958854,-10.184574
947,1715789497.254745,3.1884556,-1.067781,0.5206046,4.0391173,1.3613132,-10.136927
948,1715789497.2567456,3.123048,-1.3940855,0.7158504,4.0391173,1.3613132,-10.136927
949,1715789497.2847517,2.6149209,-1.8900403,0.7434289,4.8314095,-0.48166725,-9.918848
950,1715789497.2867522,2.0577078,-1.9757043,0.5972386,4.8314095,-0.48166725,-9.918848
951,1715789497.3077567,1.5664204,-2.0047472,0.5206046,4.8314095,-0.48166725,-9.918848
952,1715789497.3097575,1.1141518,-2.0303733,0.43515408,4.216268,-1.1933253,-9.195583
953,1715789497.3107574,0.5332956,-1.9788772,0.26577836,3.1674128,-1.3093897,-7.8816123
954,1715789497.32276,0.10665302,-1.8790578,0.21477039,2.2786038,-1.1224649,-6.8602457
955,1715789497.3417902,-0.26919514,-1.7763096,0.18450728,1.3177127,-0.74067414,-5.662339
956,1715789497.3477895,-0.26919514,-1.7882686,0.097134784,0.57306796,-0.38881573,-4.756426
957,1715789497.34979,-0.47054234,-1.7882686,0.097134784,0.57306796,-0.38881573,-4.756426
958,1715789497.3643458,-0.6326269,-1.9178629,-0.08615221,-0.28458685,-0.061391957,-3.9317577
959,1715789497.3663466,-1.0101835,-2.2270834,-0.30214286,-1.888719,0.26053402,-2.553035
960,1715789497.3813496,-1.3147669,-2.4980175,-0.23478307,-3.316922,0.26725355,-0.7271587
961,1715789497.4133568,-1.3147669,-2.4980175,-0.23478307,-3.316922,0.26725355,0.34063372
962,1715789497.414357,-1.3145229,-3.0525155,0.5037647,-2.7555368,0.36254853,8.137107
963,1715789497.423359,-0.5891847,-3.0993745,0.43515408,-2.7555368,0.36254853,8.137107
964,1715789497.42536,-0.5891847,-3.0993745,0.43515408,-2.1666627,0.7131852,10.3631
965,1715789497.4423873,-0.5891847,-3.0993745,0.43515408,-1.6779705,0.9477574,12.229904
966,1715789497.444388,1.076567,-3.194557,0.22062775,-1.6779705,0.9477574,12.229904
967,1715789497.4463882,1.076567,-3.194557,0.22062775,-1.4470634,0.9459248,13.045409
968,1715789497.465942,1.076567,-3.194557,0.22062775,-1.1697305,0.1255328,12.898802
969,1715789497.4689426,3.216766,-3.0144427,-0.16571487,-1.1697305,0.1255328,12.898802
970,1715789497.4749444,3.5067368,-2.6215105,-0.4058672,-1.4543937,-0.110872045,11.871326
971,1715789497.4869468,3.2323856,-2.2102435,-0.5125507,-2.1837668,-0.020463986,10.848126
972,1715789497.4959488,3.2323856,-2.2102435,-0.5125507,-2.9210813,0.11026118,10.397919
973,1715789497.4979491,3.0530035,-1.9366553,-0.46834585,-2.9210813,0.11026118,10.397919
974,1715789497.5049508,3.0530035,-1.7755774,-0.37121108,-3.3584607,0.15302174,10.118753
975,1715789497.5079513,2.9915013,-1.7755774,-0.37121108,-3.3584607,0.15302174,10.118753
976,1715789497.5269558,2.029885,-1.3010997,0.0741934,-3.5985308,-0.54336464,9.865245
977,1715789497.5423553,2.029885,-1.3010997,0.0741934,-3.5869243,-0.9801333,10.641654
978,1715789497.5443654,1.9093208,-1.4533914,0.04612682,-3.6907713,-1.1175779,11.651415
979,1715789497.565003,1.9093208,-1.4533914,0.04612682,-3.960774,-1.2562444,12.647736
980,1715789497.5665805,3.4171371,-1.5966836,-0.018304294,-4.3077455,-1.4278975,12.829774
981,1715789497.574545,3.4171371,-1.5966836,0.19548985,-4.3077455,-1.4278975,12.829774
982,1715789497.5767863,4.579643,-1.4875594,0.19548985,-4.9106693,-2.322204,12.570766
983,1715789497.5962012,5.7748213,-1.1946907,1.1793152,-5.10187,-3.6025777,11.452272
984,1715789497.6216826,6.5180063,-0.08127106,2.2790678,-2.6064856,-2.0393736,9.312411
985,1715789497.6243248,6.4376807,0.7507506,1.9298216,-0.9571495,0.32711834,6.867118
986,1715789497.6383452,5.981538,1.2437462,1.1544212,-0.7476227,1.4804319,4.58798
987,1715789497.6482806,5.6879373,1.4243486,0.85740364,-1.1526264,1.6771306,3.1976504
988,1715789497.6606848,5.1038775,1.5159005,1.0011533,-1.4146875,1.707063,2.1445189
989,1715789497.6839252,4.2474504,1.5991242,1.3103738,-1.1098658,1.5818355,0.06391177
990,1715789497.6858442,3.9414027,1.5876534,1.3447859,-0.5460372,1.3448198,-0.73143476
991,1715789497.6871142,3.8916147,1.4568082,1.1641835,-0.5460372,1.3448198,-0.73143476
992,1715789497.6884546,3.8916147,1.4568082,1.1641835,0.09170614,1.2733486,-1.7179822
993,1715789497.6956098,3.790087,1.3267257,0.9335495,0.42584944,1.3729197,-2.5744152
994,1715789497.7159748,3.0771654,1.0631438,0.4983649,0.74838626,2.1731532,-4.398459
995,1715789497.7317984,2.7969875,0.9972484,0.3778006,0.74838626,2.1731532,-4.398459
996,1715789497.7328048,2.7969875,0.9972484,0.3778006,0.7251734,2.449875,-4.9879436
997,1715789497.7473714,2.7969875,0.9972484,0.3778006,0.71234524,2.4565945,-5.4198256
998,1715789497.749967,2.4569852,0.9540503,0.34582913,0.74838626,2.251344,-5.7649646
999,1715789497.7515008,2.2871215,0.961372,0.4249037,0.74838626,2.251344,-5.7649646
1000,1715789497.7580166,2.2871215,0.961372,0.4249037,0.87239194,1.9104811,-5.9915953
