id,timestamp,acc_x,acc_y,acc_z,gyro_x,gyro_y,gyro_z
0,1715789477.7961347,0.19915071,0.20232345,0.9359901,0.43379068,-0.627664,0.17020233
1,1715789477.819222,0.4300289,0.29091623,0.7861389,0.45517096,-0.56596667,0.19463694
2,1715789477.8262377,0.4300289,0.29091623,0.7861389,0.2560289,-0.47128254,0.1286635
3,1715789477.8341022,0.51523536,0.31898284,0.7771088,0.06910413,-0.49938235,0.011377365
4,1715789477.8531892,0.33826336,0.22062775,0.91109616,0.14668402,-0.99112886,-0.13461943
5,1715789477.8634865,0.33826336,0.22062775,0.91109616,0.58528525,-1.2605205,0.275882
6,1715789477.8649719,0.46029195,0.117147475,0.99041486,0.58528525,-1.2605205,0.275882
7,1715789477.886129,0.7763766,0.03465613,0.8093243,0.83635086,-1.1334605,0.10361802
8,1715789477.8874664,1.1112231,0.011470691,0.8171342,1.2401328,-1.3093897,-0.5500078
9,1715789477.9176567,0.8242119,0.12642166,0.42514774,2.0538054,-1.5121969,-1.061302
10,1715789477.9422257,0.8242119,0.12642166,0.2511349,2.0538054,-1.5121969,-1.061302
11,1715789477.944428,1.1370933,0.04368625,0.24161668,1.751427,0.61361414,-1.3148111
12,1715789477.9457593,1.0089632,0.29506522,0.36901456,1.751427,0.61361414,-1.3148111
13,1715789477.947241,1.0089632,0.29506522,0.36901456,1.1252902,1.1609493,-1.4235451
14,1715789477.9784586,1.0567983,0.31703037,0.41294485,0.121638544,0.732122,-1.5316682
15,1715789477.9789624,0.96820563,0.31556603,0.65141934,-2.6296985,0.8219192,-2.1119902
16,1715789477.9853415,0.7290295,0.4595598,1.340637,-2.8325057,0.18112154,-2.1113794
17,1715789478.000952,0.7290295,0.4595598,1.340637,-2.4525476,-0.56046885,-2.000202
18,1715789478.0022545,0.6311625,0.4036707,1.8893082,-1.9919552,-0.64965516,-1.9012417
19,1715789478.0231209,0.41758195,0.44808912,1.5625155,-1.0109056,-0.32650748,-1.188362
20,1715789478.0386639,0.21379416,0.59357774,1.421176,-1.0628291,-0.33444872,-1.2268465
21,1715789478.0631306,0.51547945,0.78345424,1.0377619,-3.58387,-2.132836,-2.163303
22,1715789478.0797498,0.11592719,1.1368492,1.102437,-4.427475,-3.0766227,-2.6813166
23,1715789478.081013,-0.30165476,1.3291663,1.2122629,-5.252143,-3.542713,-2.8859565
24,1715789478.109404,-0.30165476,1.3291663,1.2122629,-5.488548,-3.338684,-3.2671363
25,1715789478.1106186,-0.08078295,1.2486273,3.3985887,-4.7432923,-2.7449229,-3.8272998
26,1715789478.1130178,0.2660224,1.0270234,5.1251106,-4.7432923,-2.7449229,-3.8272998
27,1715789478.1141293,0.2660224,1.0270234,5.1251106,-2.2943335,-1.4291192,-4.450993
28,1715789478.1351657,-0.824944,0.87277925,4.5032525,2.2700517,3.0418036,-3.2091043
29,1715789478.165674,-0.824944,0.87277925,4.5032525,3.9816961,3.9122865,-2.448577
30,1715789478.1669128,0.42099872,0.31239328,3.789599,6.9578314,3.8640282,-1.9525543
31,1715789478.1731439,1.0804719,-0.03172744,3.8181536,8.844794,3.8609738,-2.312965
32,1715789478.1874692,1.0804719,-0.42807645,3.5147903,8.844794,3.8609738,-2.312965
33,1715789478.189283,1.4485103,-0.42807645,3.5147903,10.172204,4.2067237,-2.620841
34,1715789478.2157865,1.4485103,-0.42807645,3.5147903,10.172204,5.0039024,-3.436957
35,1715789478.217786,2.5285246,-1.7951021,2.178516,12.704852,5.055826,-4.1589994
36,1715789478.2443266,2.4887128,-2.094072,1.8873558,13.169109,5.102863,-4.4766498
37,1715789478.2623246,2.4887128,-2.8684962,1.0260471,13.989501,3.8273761,-5.272607
38,1715789478.2643266,1.1400219,-2.9719768,0.009518232,13.3395405,1.8188512,-5.3825626
39,1715789478.2835116,1.1400219,-2.9719768,-0.60968554,11.53871,0.72356987,-5.001383
40,1715789478.286015,-0.24503349,-2.577092,-0.81371737,9.571113,0.42302418,-4.2280273
41,1715789478.2978094,-0.24503349,-2.577092,-0.81371737,7.7611194,0.34972036,-3.2573626
42,1715789478.30081,-0.42954078,-2.6005213,-0.9960281,7.7611194,0.34972036,-3.2573626
43,1715789478.3210337,-0.66093755,-2.5456085,-1.0831566,5.704947,0.573297,-2.1028273
44,1715789478.32331,-1.0392263,-2.7530572,-1.310862,1.6995034,0.58551437,0.16653714
45,1715789478.3372576,-1.0392263,-2.7530572,-1.310862,1.6995034,0.59650993,1.3656656
46,1715789478.3392603,-1.221049,-2.9929655,-1.4685229,0.008017606,0.59650993,1.3656656
47,1715789478.347783,-1.2491155,-3.0708199,-1.5110195,-1.8862755,0.441961,2.9416978
48,1715789478.3646905,-1.2491155,-3.0708199,-1.0143324,-4.7787223,-0.15057829,6.980739
49,1715789478.3660688,-1.0480123,-3.343432,-1.0143324,-4.7787223,-0.15057829,6.980739
50,1715789478.3749042,-0.41245672,-3.395416,-0.6890041,-5.706627,-0.55680364,8.705822
51,1715789478.3852708,-0.41245672,-3.395416,-0.26504618,-6.377968,-1.176221,10.353326
52,1715789478.3872685,0.5013241,-3.4137204,-0.26504618,-6.377968,-1.176221,10.353326
53,1715789478.406058,2.204386,-3.3507533,0.38902727,-6.45005,-2.3160956,12.045423
54,1715789478.4131596,3.318538,-2.9597738,0.81420547,-5.6498165,-3.814548,12.193863
55,1715789478.423663,3.318538,-2.6529937,0.8886429,-4.637613,-4.622112,12.034427
56,1715789478.425519,3.8423154,-2.6529937,0.8886429,-4.637613,-4.622112,12.034427
57,1715789478.4321034,3.8423154,-2.3764465,0.80541945,-3.465362,-4.221384,11.705782
58,1715789478.4340568,3.9770348,-2.3764465,0.80541945,-3.465362,-4.221384,11.705782
59,1715789478.456217,4.1373806,-1.7543446,0.7639297,-2.1477258,-3.134655,10.961748
60,1715789478.469926,4.073437,-1.4714516,0.4595598,-1.7830393,-3.0045407,10.6386
61,1715789478.4721408,3.9309082,-0.86789805,-0.3956168,-1.7830393,-3.0045407,10.6386
62,1715789478.473164,3.9309082,-0.86789805,-0.3956168,-2.419561,-2.7247643,10.499933
63,1715789478.4826458,4.1771617,-0.5442782,-0.9962722,-4.1703005,-1.9074267,10.434571
64,1715789478.4973457,4.648955,-0.08175918,-0.6733844,-6.4335566,-1.31672,9.720469
65,1715789478.5062022,4.6506634,0.34168017,0.38975942,-6.9998283,-1.3381003,8.93001
66,1715789478.5147333,4.777573,1.0223863,2.6986325,-5.528865,-1.8799378,7.6911755
67,1715789478.5287118,4.777573,2.388405,2.9473267,-0.77816594,-2.6697865,6.250755
68,1715789478.530302,3.9306638,2.388405,2.9473267,2.7831783,-2.2043073,5.1878495
69,1715789478.5544407,3.6478016,2.5582995,0.9545384,2.7831783,-2.2043073,5.1878495
70,1715789478.555424,3.567995,2.84165,-0.3380193,3.4813974,-1.779145,3.7419314
71,1715789478.564482,3.567995,3.2916915,-1.0331249,2.3012056,-1.5506815,3.1335096
72,1715789478.566596,3.5621376,3.2916915,-1.0331249,2.3012056,-1.5506815,3.1335096
73,1715789478.5796218,3.6246164,4.1127305,-1.0650963,2.3012056,-1.5506815,3.1335096
74,1715789478.5818975,4.168864,4.275761,-0.6741166,-3.3602934,0.46273044,0.40172026
75,1715789478.5996146,4.4614887,4.1593456,-0.16132185,-4.4952807,0.8695667,-1.1779773
76,1715789478.6073346,4.302119,4.0939384,0.4058672,-4.8501935,1.0790935,-2.52127
77,1715789478.615377,4.302119,4.0939384,0.4058672,-4.6620474,1.099252,-3.8566213
78,1715789478.6184447,3.9765468,3.809856,0.8964527,-4.6620474,1.099252,-3.8566213
79,1715789478.6199682,3.6761124,3.3756473,1.396282,-4.6620474,1.099252,-3.8566213
80,1715789478.626483,3.6761124,3.3756473,1.396282,-3.8007271,0.94959,-5.2335114
81,1715789478.6341476,3.5533514,3.1660023,1.67527,-2.600988,0.8017606,-6.0648994
82,1715789478.6492677,3.5704355,2.9073014,1.6252382,-1.5741234,0.9294315,-6.5432067
83,1715789478.663536,3.5704355,2.9073014,1.6252382,-1.5741234,0.9294315,-6.894454
84,1715789478.6659887,3.649266,2.429895,1.2544848,-0.13003793,1.7040086,-7.4222417
85,1715789478.6747332,3.581418,2.2029216,1.046304,0.3580434,1.9165897,-7.7734895
86,1715789478.68294,3.5362673,1.8919927,0.81664604,0.47594038,2.1493294,-8.06304
87,1715789478.7137215,2.735485,0.6731404,0.83787906,1.094136,2.7327056,-8.780807
88,1715789478.7211504,2.2995684,0.013911263,0.93208516,1.9084194,2.8506026,-8.835173
89,1715789478.734019,2.2995684,0.013911263,0.9437999,2.6915486,2.9281826,-8.7411
90,1715789478.7354848,1.9969374,-0.43979117,0.9437999,2.6915486,2.9281826,-8.7411
91,1715789478.7496657,1.8048644,-0.7553877,0.85911196,3.5614207,2.9721649,-8.475373
92,1715789478.7577398,1.8048644,-0.7553877,0.85911196,3.5614207,2.9721649,-8.165054
93,1715789478.7599661,1.7201765,-0.9433118,0.735619,4.103258,2.9697213,-8.165054
94,1715789478.7627873,1.8075489,-1.0843768,0.5225571,4.57057,2.8280005,-7.68919
95,1715789478.7803874,1.8075489,-1.0843768,0.5225571,4.679304,2.8316658,-7.381314
96,1715789478.7818456,2.263448,-1.2813311,0.2135501,4.5546875,3.1132748,-7.135135
97,1715789478.804357,2.5380428,-1.4780413,0.17157225,4.359822,3.4419203,-7.109479
98,1715789478.812534,2.665685,-1.7233493,0.19304928,4.2877393,3.5860844,-7.284797
99,1715789478.8140259,2.665685,-1.7233493,0.19304928,4.3494368,3.5903604,-7.5816774
100,1715789478.8163333,2.6176054,-2.020855,0.21574661,4.3494368,3.5903604,-7.5816774
101,1715789478.8292408,2.1941357,-2.5370665,0.13496366,4.3494368,3.5903604,-7.5816774
102,1715789478.8315845,1.7677675,-2.8265185,-0.09274176,4.6035566,3.193298,-7.938423
103,1715789478.8328094,1.7677675,-2.8265185,-0.09274176,4.580955,2.8280005,-7.9781294
104,1715789478.8460772,1.4014072,-3.0808263,-0.31532198,4.3292785,2.6019804,-7.8944407
105,1715789478.856517,0.8969409,-3.400541,-0.6001673,3.7856083,2.5201247,-7.579845
106,1715789478.8692803,0.21037734,-3.6036272,-0.8483735,3.16558,2.5806003,-7.035564
107,1715789478.8965647,0.21037734,-3.6036272,-0.8483735,0.25541803,1.3112222,-1.369789
108,1715789478.8981123,-2.525596,-3.4974625,-1.3948177,0.25541803,1.3112222,-1.369789
109,1715789478.92084,-2.6888702,-3.268018,-1.2798667,-1.1507938,0.024129177,3.2110896
110,1715789478.9221647,-1.2857242,-2.6134565,-0.75685203,-2.137952,-0.5329799,6.0412283
111,1715789478.9405112,-0.25772443,-2.349112,-0.45638704,-2.885651,-0.7296785,7.5103593
112,1715789478.948905,0.5918693,-2.2112198,-0.20159128,-3.4171038,-0.85062987,8.164596
113,1715789478.9701993,1.1268429,-2.1006618,0.008786061,-3.4171038,-0.85062987,8.164596
114,1715789478.9720051,1.3028082,-1.9459295,0.2489384,-3.6364045,-1.462106,8.332583
115,1715789478.9907446,1.1336764,-2.0682023,0.5833273,-3.3841171,-1.8781052,9.277593
116,1715789478.9989522,1.3567448,-2.21244,0.6343353,-3.166649,-2.1975877,10.565296
117,1715789479.0182061,2.692043,-2.4316034,0.65459204,-3.044476,-2.237294,12.921404
118,1715789479.0265956,3.8467083,-2.4318473,0.65410393,-3.044476,-2.237294,12.921404
119,1715789479.0291426,3.8467083,-2.4318473,0.65410393,-3.1745903,-1.6844609,14.152907
120,1715789479.0356545,5.037738,-2.3469155,0.68119425,-3.3511305,-1.525636,14.1999445
121,1715789479.0471482,6.070375,-1.9427568,0.7204875,-3.3694563,-1.3833044,13.33557
122,1715789479.0641484,6.070375,-1.9427568,0.7204875,-3.5728745,-1.0839803,12.572599
123,1715789479.0668466,5.6454716,-0.9752833,-0.3402158,-5.122029,-0.600786,12.389951
124,1715789479.0745704,5.6454716,-1.1119553,-0.547695,-5.122029,-0.600786,12.389951
125,1715789479.0774488,5.788733,-1.1119553,-0.547695,-7.33275,0.01985312,12.333751
126,1715789479.0897288,5.8887963,-1.1837082,-0.4842096,-8.045019,0.17867808,12.21952
127,1715789479.1054392,5.8887963,-1.1715053,0.9286684,-9.660147,-0.7156286,11.237859
128,1715789479.108459,6.227792,-0.6477585,1.9246964,-8.72308,-1.6771306,10.218936
129,1715789479.1112704,5.687693,0.11543907,2.5661094,-8.72308,-1.6771306,10.218936
130,1715789479.1233425,5.687693,0.11543907,2.5661094,-6.9326334,-2.4327707,8.941616
131,1715789479.132604,4.296506,1.555682,1.594243,-3.5545485,-2.6141977,4.9380054
132,1715789479.148698,3.7268763,1.9059042,1.2940221,-3.7714057,-1.5183055,3.1396184
133,1715789479.1679711,3.1633174,2.0269563,1.357721,-3.7714057,-1.5183055,3.1396184
134,1715789479.1703284,2.4633307,2.0496538,1.7643509,-3.5820374,1.1267409,0.35285103
135,1715789479.1763403,2.1626523,1.9676505,1.88882,-2.3792439,1.5054774,-0.4883104
136,1715789479.1857667,2.0833337,1.9488581,1.7255458,-1.0536662,1.2452488,-1.0533607
137,1715789479.1983423,2.1953561,1.9552035,1.1551535,-0.010919216,0.7528914,-1.5603789
138,1715789479.2149844,2.408174,2.2026777,0.08956901,0.16134478,-0.010079277,-2.516994
139,1715789479.2298887,3.3910232,2.6605594,-0.38341394,-2.7640889,-0.010079277,-4.239634
140,1715789479.2484639,4.083932,2.823346,-0.05832968,-4.128151,0.40591997,-5.4693055
141,1715789479.260554,5.00235,2.6097956,0.6733844,-5.2442017,1.271516,-7.778376
142,1715789479.2900903,5.00235,2.6097956,0.6733844,-4.9913034,1.8500054,-9.403277
143,1715789479.2927604,4.733643,1.4592488,1.9947408,-3.9021308,1.9807305,-10.109438
144,1715789479.2950838,4.733643,1.4592488,1.9947408,-2.0799198,1.9813415,-10.260933
145,1715789479.3074672,4.2515993,1.2398413,2.208291,-2.0799198,1.9813415,-10.260933
146,1715789479.3100672,4.058062,1.1124434,2.152646,-0.5582545,1.87444,-10.129597
147,1715789479.3125105,4.008518,0.9376984,1.8744206,0.8394052,1.738217,-10.045298
148,1715789479.3235512,4.008518,0.9376984,1.8744206,2.4282658,1.4718798,-10.236498
149,1715789479.3265924,3.7588477,0.46444094,1.136117,2.4282658,1.4718798,-10.236498
150,1715789479.3352675,3.2174983,0.1164153,0.53451586,2.4282658,1.4718798,-10.236498
151,1715789479.337328,3.2174983,0.1164153,0.53451586,3.0482938,1.1597277,-10.356838
152,1715789479.3501668,3.2174983,0.1164153,0.53451586,3.2046754,0.9117164,-10.312856
153,1715789479.351917,2.7352412,-0.22575295,0.17767367,3.2046754,0.9117164,-10.312856
154,1715789479.3747313,2.7352412,-0.22575295,0.036852647,3.2046754,0.9117164,-10.312856
155,1715789479.376746,1.5307881,-1.016773,-0.079318605,3.102661,0.5109888,-9.915183
156,1715789479.3844655,1.272789,-1.1053658,-0.122760795,2.8454866,0.52381694,-9.443595
157,1715789479.4013097,1.272789,-1.1053658,-0.122760795,2.4606416,0.7870999,-8.801576
158,1715789479.4031985,1.2630267,-1.3472265,0.004881145,2.4606416,0.7870999,-8.801576
159,1715789479.4162087,1.3286781,-1.5727658,0.1786499,2.2059107,1.6869044,-7.8913865
160,1715789479.4322143,1.3464943,-1.9803414,0.29604146,2.4649177,2.0583105,-7.620773
161,1715789479.447957,1.2012802,-2.362291,0.2806658,2.8381562,2.1615467,-7.3880334
162,1715789479.4509559,0.95160973,-2.7284074,0.11153416,3.1832952,1.9575176,-7.0563335
163,1715789479.452954,0.67631316,-3.0173714,-0.09518232,3.1832952,1.9575176,-7.0563335
164,1715789479.464735,0.67631316,-3.0173714,-0.09518232,3.2767575,1.5732834,-6.7399054
165,1715789479.4678006,0.3612047,-3.2619166,-0.35290676,3.1093805,1.1768318,-6.301915
166,1715789479.479165,-0.25601605,-3.5121057,-0.7783291,2.213852,0.8677341,-5.2206836
167,1715789479.495456,-0.6816824,-3.6619568,-1.0045701,0.9921215,0.9263771,-3.8908298
168,1715789479.503277,-0.6816824,-3.6619568,-0.9916351,-0.12637275,1.0607675,-2.5927413
169,1715789479.505343,-0.96722937,-3.8181536,-0.9916351,-0.12637275,1.0607675,-2.5927413
170,1715789479.5131495,-1.2581456,-3.8381662,-0.8771723,-0.12637275,1.0607675,-2.5927413
171,1715789479.5154042,-1.6125473,-3.6668382,-0.70096296,-1.3645966,1.1078042,-0.21525364
172,1715789479.525044,-1.8058406,-3.2316535,-0.4053791,-1.9491947,0.82924956,2.8103619
173,1715789479.5478482,-1.8058406,-3.2316535,-0.4053791,-1.9491947,0.28985557,6.330778
174,1715789479.5498502,-0.8320217,-2.4489315,0.122516744,-1.8398497,0.28985557,6.330778
175,1715789479.5562747,-0.40342662,-2.2390423,0.19915071,-1.5649604,0.16157386,7.165831
176,1715789479.5641105,-0.40342662,-2.2390423,0.19915071,-1.2974014,0.05467244,7.8591633
177,1715789479.566564,0.07834238,-1.9803414,0.19622204,-1.2974014,0.05467244,7.8591633
178,1715789479.5741239,0.07834238,-1.9803414,0.19622204,-1.2974014,0.05467244,8.499961
179,1715789479.5753813,0.581863,-1.7726487,0.108117364,-1.1251374,-0.0729984,8.499961
180,1715789479.587732,0.7712514,-1.7487313,0.0741934,-1.2045499,-0.101098195,8.835326
181,1715789479.597058,1.0558221,-1.739457,0.073949344,-1.4446199,0.04734206,9.422367
182,1715789479.6045802,1.0558221,-1.739457,0.073949344,-1.4446199,0.21777347,9.879906
183,1715789479.6064274,1.2696164,-1.7418976,0.07224095,-1.6718618,0.21777347,9.879906
184,1715789479.6126847,1.6144997,-1.7467787,0.07834238,-1.6718618,0.21777347,9.879906
185,1715789479.6136901,1.6144997,-1.7467787,0.07834238,-1.9027689,0.30818152,10.217714
186,1715789479.6251278,2.2046301,-1.7489753,0.20940112,-2.4220042,0.5726862,10.785818
187,1715789479.6335971,2.4884686,-1.7980309,0.2894519,-2.7439303,0.6759224,11.237859
188,1715789479.6489258,2.4884686,-1.7980309,0.40562314,-3.1544318,0.5036584,11.883543
189,1715789479.6499555,3.032503,-1.7287184,0.40562314,-3.1544318,0.5036584,11.883543
190,1715789479.6521714,3.032503,-1.7287184,0.40562314,-3.4317646,0.15790866,12.187755
191,1715789479.6595614,3.6190028,-1.5495806,0.44833317,-3.4317646,0.15790866,12.187755
192,1715789479.6721413,5.365751,-0.7475779,0.34582913,-4.954041,-0.12186762,11.9592905
193,1715789479.685608,5.365751,-0.7475779,0.34582913,-4.954041,0.0693332,11.378968
194,1715789479.6876862,5.9925203,-0.32923323,0.29189247,-6.067037,0.0693332,11.378968
195,1715789479.694177,5.8970942,-0.12715383,0.83641475,-6.067037,0.0693332,11.378968
196,1715789479.696203,5.8970942,-0.12715383,0.83641475,-6.748152,-0.013133603,10.882336
197,1715789479.7121418,5.8970942,-0.12715383,0.83641475,-6.748152,-0.013133603,10.539029
198,1715789479.7141068,5.450439,0.20256752,2.5626926,-5.093318,-1.6496416,10.539029
199,1715789479.7371876,5.450439,0.20256752,2.5626926,-1.5997797,-2.612976,9.667935
200,1715789479.7391925,6.152622,1.4299619,2.5841696,0.7441102,-2.4761422,7.759592
201,1715789479.7474868,5.47997,2.212684,1.5754505,1.5877151,-1.5971072,5.6783743
202,1715789479.7626297,4.0558653,2.9756377,0.079318605,1.2535719,-0.50243664,4.172591
203,1715789479.7690973,4.0558653,2.9756377,0.079318605,1.2535719,-0.50243664,2.9588022
204,1715789479.7708504,3.2009022,3.233118,-0.24552159,-1.4201853,1.2617421,1.5257123
205,1715789479.7835226,2.9051049,3.297061,-0.19744232,-2.4024568,1.0045679,-0.05093089
206,1715789479.7999191,2.6693456,3.1401322,-0.13398743,-2.745152,0.38026363,-1.6990453
207,1715789479.8083646,2.4208648,2.8521445,-0.13716017,-2.8520534,0.160963,-2.738127
208,1715789479.816614,2.4208648,2.5273044,-0.19793043,-2.9772809,0.15607607,-3.8871646
209,1715789479.8186874,2.1433718,2.5273044,-0.19793043,-2.9772809,0.15607607,-3.8871646
210,1715789479.840952,1.7709404,1.8995585,-0.012202863,-2.845945,0.34238997,-5.5749855
211,1715789479.8440042,1.7709404,1.8995585,-0.012202863,-2.4617107,0.24587326,-5.9384503
212,1715789479.8504,2.0581958,1.7582495,0.13203497,-2.4617107,0.24587326,-5.9384503
213,1715789479.863609,2.0581958,1.7582495,0.13203497,-2.4617107,0.21288654,-7.0251794
214,1715789479.8646176,3.2872987,1.7245696,0.30970863,-1.7915914,0.21288654,-7.0251794
215,1715789479.8880446,3.2872987,1.7245696,0.30970863,-1.7915914,0.8219192,-8.964677
216,1715789479.890152,4.152756,1.7026043,0.40611124,-1.9638554,0.8219192,-8.964677
217,1715789479.8978996,4.1561728,1.6066898,0.6836348,-1.9638554,0.8219192,-8.964677
218,1715789479.8994427,4.1561728,1.6066898,0.6836348,-2.05182,1.2434162,-9.617691
219,1715789479.923768,4.016816,0.83080137,1.5664204,-0.116598904,2.5384505,-10.416703
220,1715789479.948895,4.016816,0.45052966,1.5578785,-0.116598904,2.5384505,-10.416703
221,1715789479.951475,3.357099,0.022941383,1.3750491,2.3109796,2.4071145,-10.600574
222,1715789479.9532871,3.015663,-0.30092257,1.2195846,2.3109796,2.4071145,-10.600574
223,1715789479.955655,3.015663,-0.30092257,1.2195846,3.070896,2.2653937,-10.461296
224,1715789479.9771342,2.5853899,-0.6091974,1.0670488,3.070896,2.2653937,-10.461296
225,1715789479.9789374,2.1279962,-0.95868737,0.8525225,5.20587,1.4999796,-9.639683
226,1715789479.9964545,2.1279962,-0.95868737,0.8525225,5.20587,1.2629639,-9.225516
227,1715789479.9982805,1.6618468,-1.1727256,0.6050484,5.8570523,1.2629639,-9.225516
228,1715789480.0002744,1.264003,-1.3035402,0.34704942,6.2657213,1.1108584,-8.678792
229,1715789480.007637,0.9308648,-1.3599174,0.09445015,6.310925,1.1212431,-8.199873
230,1715789480.0263035,0.6048044,-1.3599174,-0.16717921,6.126444,1.1835514,-7.6409316
231,1715789480.0279796,0.34168017,-1.3345355,-0.4046469,5.469153,1.2318097,-6.683095
232,1715789480.0344949,0.15888128,-1.2766939,-0.53500396,4.675639,1.0461067,-5.933563
233,1715789480.0443115,0.08005078,-1.2349602,-0.5140151,3.8986185,0.818254,-5.2701635
234,1715789480.0554357,0.08517598,-1.2991472,-0.43320164,3.2107842,0.66248333,-4.7319913
235,1715789480.0644295,0.09176553,-1.4116577,-0.26577836,2.4826326,0.5494733,-4.2103124
236,1715789480.083511,0.31532198,-1.9078566,-0.15888128,0.5510768,0.68508536,-3.7124572
237,1715789480.1170056,0.4144092,-2.3898697,-0.24112856,0.5510768,0.68508536,-3.7124572
238,1715789480.1190052,-0.04368625,-3.433733,-0.4837215,-3.1128929,2.6050348,-3.6819139
239,1715789480.1200066,-1.0348332,-4.0090065,-0.22892569,-3.1128929,2.6050348,-3.6819139
240,1715789480.122009,-1.0348332,-4.0090065,-0.22892569,-4.2875867,2.7467556,-2.5988498
241,1715789480.144037,-1.0348332,-4.0090065,-0.22892569,-4.476955,2.1621575,-0.6837873
242,1715789480.1452885,-2.5151014,-3.768854,0.5616062,-4.0481277,1.2721269,2.456671
243,1715789480.1564157,-2.5151014,-3.768854,0.5616062,-4.0481277,1.2721269,4.9294534
244,1715789480.1584504,-2.0943162,-3.6265688,0.74440515,-3.5099554,1.0125091,4.9294534
245,1715789480.1651597,-1.0023736,-3.3041387,0.8625288,-2.9278007,1.1365148,7.15789
246,1715789480.1725795,-0.23966423,-3.0139544,0.84105176,-2.9278007,1.1365148,7.15789
247,1715789480.1757228,-0.23966423,-3.0139544,0.84105176,-2.25646,1.6820174,8.834105
248,1715789480.1952808,-0.23966423,-3.0139544,0.84105176,-2.25646,1.6820174,9.854249
249,1715789480.1973991,0.55989784,-2.481635,0.45980385,-1.7555504,2.2085834,9.854249
250,1715789480.209127,0.7363512,-2.281752,0.26211748,-1.9155971,2.11451,10.114478
251,1715789480.2162747,0.7363512,-2.281752,0.26211748,-2.196595,1.9324722,10.305678
252,1715789480.2187414,0.9921232,-2.1753433,0.14057697,-2.196595,1.9324722,10.305678
253,1715789480.2288022,1.5461637,-2.0328138,0.17084008,-2.196595,1.9324722,10.305678
254,1715789480.2300718,1.5461637,-2.0328138,0.17084008,-2.727437,1.5787812,10.350271
255,1715789480.2321138,1.9591085,-1.9544716,0.24186075,-3.0432544,1.14018,10.213438
256,1715789480.2597823,2.7533014,-1.9979136,0.3951287,-3.4445927,0.40103304,10.159071
257,1715789480.2722623,2.7533014,-1.9586204,0.59528613,-3.765297,0.12858713,11.013061
258,1715789480.2742596,3.7437162,-1.9586204,0.59528613,-3.765297,0.12858713,11.013061
259,1715789480.2873933,4.560606,-1.9237202,0.5828392,-4.246659,0.09010262,11.25985
260,1715789480.2956603,4.560606,-1.9237202,0.86106443,-4.577137,-0.40103304,11.548789
261,1715789480.2966754,5.2610507,-1.6901575,0.86106443,-4.577137,-0.40103304,11.548789
262,1715789480.304067,5.7267423,-1.4836545,1.0319046,-4.6828165,-0.8151997,11.964178
263,1715789480.3163028,6.599766,-1.0729063,1.8915048,-4.0230823,-1.3594806,12.62269
264,1715789480.3341143,6.599766,-1.0729063,2.5143692,1.2486849,-2.0430388,11.769922
265,1715789480.3367436,7.994583,1.0543578,2.5143692,1.2486849,-2.0430388,11.769922
266,1715789480.3653514,7.200879,3.3937073,-0.018304294,1.991497,-1.3435981,4.9471684
267,1715789480.372773,7.200879,3.3937073,-0.7007189,-0.41286856,-0.5305365,1.7755562
268,1715789480.375182,5.676223,3.8908825,-0.7007189,-0.41286856,-0.5305365,1.7755562
269,1715789480.3838549,4.5701246,3.7080839,-0.70218325,-2.8923705,0.84879726,-0.53290355
270,1715789480.4015741,3.6004546,3.3192701,-0.30238694,-2.8923705,0.84879726,-0.53290355
271,1715789480.4037051,3.6004546,3.3192701,-0.30238694,-4.378606,1.8432859,-2.280589
272,1715789480.4059126,2.811143,2.9534283,0.14863087,-4.7964377,2.2366831,-3.4852152
273,1715789480.4266157,2.811143,2.9534283,0.14863087,-4.7964377,2.1371121,-4.5322385
274,1715789480.4286175,1.4328907,2.2658885,1.1095147,-2.38352,1.4724907,-5.376454
275,1715789480.4356244,1.4328907,2.2658885,1.1095147,-0.3804927,0.56291234,-5.720982
276,1715789480.4382346,1.1805354,2.2278156,1.08096,-0.3804927,0.56291234,-5.720982
277,1715789480.4599473,1.7738692,2.3000565,0.4195344,1.6750689,-0.6478226,-6.0594015
278,1715789480.467171,2.653482,2.4623544,-0.024405725,1.6750689,-0.6478226,-6.0594015
279,1715789480.470171,2.653482,2.4623544,-0.024405725,1.6439147,-0.7644979,-6.683095
280,1715789480.4768245,3.5787334,2.4264781,-0.28115395,0.77892953,-0.35277468,-7.870006
281,1715789480.4933817,3.5787334,2.4264781,-0.28115395,-0.006032294,0.20066923,-8.9078665
282,1715789480.4948716,4.097843,1.6738057,0.27017137,-0.48433977,0.81336707,-9.776517
283,1715789480.5041094,4.0441504,1.3020759,0.62017995,-0.4611269,1.1114693,-10.139981
284,1715789480.524948,3.9187052,1.0306844,0.9611279,-0.4611269,1.1114693,-10.139981
285,1715789480.5270114,3.9187052,1.0306844,0.9611279,0.036728274,1.3503176,-10.43564
286,1715789480.5290244,3.7237036,0.464685,0.9193942,0.83696175,1.3087788,-10.67571
287,1715789480.5316632,3.7237036,0.464685,0.9193942,1.3280973,1.0393872,-10.859581
288,1715789480.541786,3.6233962,0.12813005,0.9098759,1.6958383,0.75411314,-10.9970255
289,1715789480.5567453,3.6233962,0.12813005,0.9098759,1.6958383,0.75411314,-11.130805
290,1715789480.55952,3.666106,-0.27871338,1.03825,2.0586922,0.7131852,-11.130805
291,1715789480.5739048,3.028842,-1.4465579,1.1561297,3.615177,0.68325275,-11.278023
292,1715789480.5814588,2.7003407,-1.8265854,1.0882818,4.398306,0.24770586,-10.897454
293,1715789480.642053,2.4377048,-2.0528266,0.94087124,4.973741,-0.074830994,-10.474125
294,1715789480.6450536,0.4127008,-2.5968606,0.25552794,5.0354385,0.32589662,-8.4497175
295,1715789480.6570566,0.4127008,-3.1628294,-0.39195594,3.8216493,0.81214535,-6.9665365
296,1715789480.6600568,-1.0646082,-3.1628294,-0.39195594,3.8216493,0.81214535,-6.9665365
297,1715789480.6740592,-1.9678946,-3.5365117,-0.7783291,3.8216493,0.81214535,-6.9665365
298,1715789480.6760614,-1.9678946,-3.5365117,-0.7783291,0.70868003,1.7986927,-1.7888426
299,1715789480.6890626,-2.7210858,-4.024626,-1.20006,0.70868003,1.7986927,-1.7888426
300,1715789480.6910627,-2.6227307,-4.0136433,-1.1461233,-0.3114649,1.9453003,0.16714801
301,1715789480.6920638,-2.6227307,-4.0136433,-1.1461233,-1.7323375,1.9269744,3.1750484
302,1715789480.7070732,-2.6227307,-4.0136433,-1.1461233,-1.7323375,1.8805487,5.2519903
303,1715789480.7100763,-1.9530071,-3.8357258,-0.94038314,-2.695672,1.8805487,5.2519903
304,1715789480.721071,-1.9530071,-3.8357258,-0.94038314,-3.7298667,1.847562,7.0192237
305,1715789480.736627,0.60260785,-3.199438,-0.15668476,-5.735948,1.6325374,8.928788
306,1715789480.7436535,0.96966994,-3.0864396,0.07150877,-6.3480353,1.4364496,9.190239
307,1715789480.756656,0.96966994,-3.0864396,0.07150877,-6.3480353,1.1725558,9.311801
308,1715789480.7586586,1.2459428,-2.9624584,0.33631086,-6.6705723,1.1725558,9.311801
309,1715789480.7706594,1.5185852,-2.7713616,0.6572767,-6.675459,0.84574294,9.295918
310,1715789480.77266,1.5185852,-2.7713616,0.6572767,-6.1611104,0.5348125,9.1206
311,1715789480.77466,1.5869212,-2.4208648,0.9855337,-6.1611104,0.5348125,9.1206
312,1715789480.7826622,1.5869212,-2.4208648,0.9855337,-5.4482307,0.4804455,9.038744
313,1715789480.784665,1.459981,-2.1585033,1.1051217,-5.4482307,0.4804455,9.038744
314,1715789480.794665,1.459981,-2.1585033,1.1051217,-4.7781115,0.6044512,9.126709
315,1715789480.7956645,1.3450301,-1.9298216,1.1124434,-4.7781115,0.6044512,9.126709
316,1715789480.8066669,1.3433216,-1.7516599,1.0094513,-4.136703,0.7626653,9.347231
317,1715789480.8166692,1.6232858,-1.5964395,0.9777239,-3.602196,0.5531385,9.38938
318,1715789480.8236938,1.8817425,-1.323797,0.97381896,-2.4568236,-0.09437868,9.030191
319,1715789480.8346968,1.8817425,-1.323797,0.97381896,-2.4568236,-0.09437868,8.784013
320,1715789480.8372507,1.926649,-1.1246463,0.92329913,-1.3364968,-0.7968737,8.784013
321,1715789480.8452535,1.926649,-1.0175052,0.8181104,-0.07811439,-1.5060883,8.80295
322,1715789480.847246,1.9459295,-1.0175052,0.8181104,-0.07811439,-1.5060883,8.80295
323,1715789480.8602583,2.054779,-0.92134666,0.7016951,0.71723217,-1.7931949,9.033857
324,1715789480.8802614,3.032503,-0.53402776,-0.1461903,0.7935903,-1.7846428,10.846294
325,1715789480.8822603,3.7566512,-0.2638259,-0.024649782,0.7935903,-1.7846428,10.846294
326,1715789480.895263,4.916198,0.25894472,0.32166746,0.4826599,-1.5580118,10.904326
327,1715789480.9042652,4.916198,0.25894472,0.32166746,0.4826599,-1.5580118,10.305678
328,1715789480.9052658,5.9783654,0.61822754,0.66044945,0.46433395,-1.5164729,10.305678
329,1715789480.9162676,6.8643236,1.2630267,1.0240947,0.46433395,-1.5164729,10.305678
330,1715789480.9182699,6.8643236,1.2630267,1.0240947,0.69401926,-1.3435981,9.288588
331,1715789480.9242923,7.412476,2.280288,0.95258594,0.8668941,-0.6600399,6.6472063
332,1715789480.933294,6.796476,3.0085852,0.6133464,0.36781722,-0.0070249503,3.92458
333,1715789480.9448466,6.060125,3.229213,0.60846525,-0.4647921,0.14874569,1.9050596
334,1715789480.9668512,6.060125,3.229213,0.60846525,-0.4647921,0.14874569,0.13171782
335,1715789480.9678526,5.1414623,2.8428702,1.0968238,-1.2094368,0.5213735,-0.7015024
336,1715789480.9808557,4.463441,2.4645512,1.4868273,-0.8087092,0.73823065,-1.9647717
337,1715789480.9838564,3.961903,2.1777837,1.4350871,0.09903653,0.83108217,-2.9146671
338,1715789480.9908571,3.611193,1.9303099,1.0560663,0.7398342,0.86345804,-3.668475
339,1715789481.0338929,3.412256,1.7892448,0.77173954,0.7398342,0.86345804,-3.668475
340,1715789481.0364416,3.191384,1.6391494,0.31581008,1.235246,0.82558435,-5.196249
341,1715789481.0374649,2.9451303,1.4111695,-0.23502712,0.3195589,0.6582073,-6.676986
342,1715789481.0394652,2.8182206,1.2940221,-0.1701079,0.3195589,0.6582073,-6.676986
343,1715789481.046469,2.8182206,1.2940221,-0.1701079,-0.12515102,0.5366451,-7.2750235
344,1715789481.058471,2.691311,1.1929823,-0.071264714,-0.12515102,0.5366451,-7.2750235
345,1715789481.06047,2.691311,1.1929823,-0.071264714,-0.45623997,0.4615087,-7.8492365
346,1715789481.0674727,2.645672,1.1346527,0.037828874,-0.45623997,0.4615087,-7.8492365
347,1715789481.0804775,2.6551905,0.9362341,0.17523311,-0.15935947,0.8353582,-8.549899
348,1715789481.0824785,2.632005,0.62896603,0.28432667,-0.15935947,0.8353582,-8.549899
349,1715789481.0944793,2.632005,0.62896603,0.3682824,0.33421963,1.0180069,-8.893816
350,1715789481.0954795,2.438193,0.3653537,0.3682824,0.33421963,1.0180069,-8.893816
351,1715789481.1134863,2.438193,0.3653537,0.3682824,0.80092067,0.98807454,-9.0593605
352,1715789481.115484,2.3979235,-0.10714114,0.505229,1.4185054,0.87995136,-9.225516
353,1715789481.129337,2.395483,-0.46932206,0.49641246,2.1649828,0.70402217,-9.312259
354,1715789481.1313376,2.4162278,-0.6987664,0.456143,2.5822039,0.54519725,-9.304929
355,1715789481.1442387,2.4162278,-0.6987664,0.456143,2.5822039,0.54519725,-9.270109
356,1715789481.1452773,2.526084,-1.0062785,0.39195594,2.9823205,0.30207285,-9.270109
357,1715789481.159347,2.5670857,-1.255217,0.36681804,3.188793,0.23060162,-9.202303
358,1715789481.176352,2.438437,-1.6662399,0.44491637,3.2602642,0.21838433,-9.127777
359,1715789481.1783516,2.438437,-1.6662399,0.44491637,3.364722,0.13958271,-8.965287
360,1715789481.1843529,2.438437,-1.8639262,0.5442782,3.478343,0.03023783,-8.837617
361,1715789481.1853533,2.238066,-1.8639262,0.5442782,3.478343,0.03023783,-8.837617
362,1715789481.198356,2.238066,-1.8639262,0.5442782,3.642055,-0.10354166,-8.750874
363,1715789481.2013552,1.9976696,-2.0149977,0.675825,3.642055,-0.10354166,-8.750874
364,1715789481.2073581,1.4658383,-2.1863258,0.85740364,3.642055,-0.10354166,-8.750874
365,1715789481.209338,1.4658383,-2.1863258,0.85740364,4.048891,-0.37293324,-8.541958
366,1715789481.2213612,1.4658383,-2.1863258,0.85740364,4.048891,-0.37293324,-8.311662
367,1715789481.2243862,0.21843125,-2.9551365,0.81396145,5.215644,-0.48899764,-8.294558
368,1715789481.2389407,-0.58576787,-3.5025876,0.24503349,5.215644,-0.48899764,-8.294558
369,1715789481.2419422,-0.58576787,-3.5025876,0.24503349,5.2370243,-0.46639562,-7.937201
370,1715789481.2439427,-1.7365283,-3.8799,-0.3526627,4.3824234,-0.2678644,-6.5725284
371,1715789481.2569444,-2.59442,-4.06636,-0.79053193,3.2315536,-0.028405234,-4.7771955
372,1715789481.2649462,-2.59442,-4.06636,-0.79053193,1.624367,0.116980694,-2.0979404
373,1715789481.2669466,-3.3995647,-4.0783186,-1.1075623,1.624367,0.116980694,-2.0979404
374,1715789481.27409,-3.65732,-3.7320013,-1.0411787,-0.40431643,0.14019357,1.9007835
375,1715789481.2829502,-2.7716057,-3.4866934,-0.64360946,-1.8752799,0.5354234,5.140202
376,1715789481.2979534,-1.7724047,-3.238487,-0.2020794,-2.6700156,1.1688906,7.2763977
377,1715789481.3109572,-1.0026177,-3.0447056,0.10201593,-2.9375746,1.7907515,8.608695
378,1715789481.331986,-1.0026177,-3.0447056,0.10201593,-2.8923705,1.7058412,11.096138
379,1715789481.3339863,0.81274116,-2.585146,0.055645052,-2.8923705,1.7058412,11.096138
380,1715789481.341541,1.2644911,-2.4450266,-0.025626011,-3.0279827,1.1420126,11.388132
381,1715789481.357543,1.7736249,-2.3220217,-0.017328065,-3.2142966,0.6209445,11.493812
382,1715789481.3645446,1.7736249,-2.3220217,-0.017328065,-3.2142966,0.6209445,11.426617
383,1715789481.3675463,2.1123765,-2.1934035,0.0622346,-3.4128277,0.053450707,11.426617
384,1715789481.3735454,2.362291,-2.0389154,0.13789235,-3.5649333,-0.23182335,11.316661
385,1715789481.38855,2.5526862,-1.9517869,0.21013328,-3.5649333,-0.23182335,11.316661
386,1715789481.3915508,2.8562934,-1.8273177,0.36242503,-3.769573,-0.23487769,11.362475
387,1715789481.39355,2.8562934,-1.8273177,0.36242503,-3.923511,-0.113926366,11.301389
388,1715789481.4065535,2.8562934,-1.8273177,0.36242503,-3.923511,-0.113926366,11.11141
389,1715789481.408555,2.9873524,-1.6911337,0.4651731,-3.8923569,0.06688975,11.11141
390,1715789481.4305832,2.9873524,-1.6911337,0.4651731,-3.8923569,0.03390302,10.194501
391,1715789481.4325836,3.9372535,-0.6328709,0.13838045,-4.8611894,-0.0106901415,9.564699
392,1715789481.4501424,3.7517703,-0.07614586,0.6829027,-5.00291,-0.269697,9.15603
393,1715789481.4571438,3.7517703,-0.07614586,1.2813311,-4.4512987,-0.5390886,8.984377
394,1715789481.4591467,3.8379223,0.26480213,1.2813311,-4.4512987,-0.5390886,8.984377
395,1715789481.4661458,3.8379223,0.26480213,1.2813311,-4.4512987,-0.9459248,8.419937
396,1715789481.4681468,4.276249,0.38805103,1.9737519,-2.999272,-0.9459248,8.419937
397,1715789481.4701486,4.259409,0.79736555,2.6669052,-2.999272,-0.9459248,8.419937
398,1715789481.471147,4.259409,0.79736555,2.6669052,0.02939789,-1.3881912,7.2947235
399,1715789481.4831498,3.8608634,1.1680884,2.3356888,2.9053514,-1.3142766,6.4853272
400,1715789481.4931507,3.585323,1.3647985,1.5254189,4.4416776,-1.1688906,5.740072
401,1715789481.5071404,3.585323,1.3647985,1.5254189,5.0067277,-0.8213083,4.8249955
402,1715789481.510155,3.3431878,1.7184682,0.6775334,5.0067277,-0.8213083,4.8249955
403,1715789481.5291853,3.3431878,1.94837,0.1552204,4.8546224,-0.5342017,4.134718
404,1715789481.5311692,3.413964,2.2431912,-0.43246946,3.9542072,-0.0711658,2.6264915
405,1715789481.54674,3.4410548,2.3571658,-0.82030696,1.747151,0.11148291,-0.12667818
406,1715789481.5637414,3.2414157,2.1138408,-0.5799105,-0.16791159,-0.4700608,-1.9256763
407,1715789481.581748,3.1169467,2.0743036,-0.281398,-0.8600219,-0.6942484,-2.7515662
408,1715789481.5837476,3.1669784,2.067714,-0.14643435,-1.2919036,-0.52320606,-3.3245578
409,1715789481.5917473,3.3517299,2.0276887,0.053692598,-1.5435802,-0.124311075,-3.9183187
410,1715789481.6087537,3.5138142,2.0445285,0.18572757,-1.4855479,0.19761491,-4.560338
411,1715789481.6307843,3.670743,2.017194,0.21525851,-1.4855479,0.19761491,-4.560338
412,1715789481.6317823,3.994119,1.8202399,0.41221267,-1.1520154,0.050396383,-6.0679536
413,1715789481.633783,3.994119,1.8202399,0.41221267,-0.9742537,-0.063224554,-6.7710595
414,1715789481.6503384,4.019989,1.6977232,0.51694375,-0.7616726,0.049785517,-7.3422184
415,1715789481.662341,3.9509206,1.5952193,0.61163795,-0.16974418,0.52687126,-8.00012
416,1715789481.6643414,3.910407,1.5107754,0.6321388,-0.16974418,0.52687126,-8.00012
417,1715789481.6863463,3.6155863,1.0870615,0.379509,0.5211444,0.5653558,-8.590216
418,1715789481.6953485,3.5038078,0.8742436,0.281398,0.5296965,0.47067168,-8.774697
419,1715789481.7133527,3.1469657,0.31019676,0.3951287,0.57184625,0.4700608,-9.171149
420,1715789481.7313807,2.493106,-0.28701133,0.5572132,1.0299952,0.84574294,-9.09479
421,1715789481.7479346,2.493106,-0.28701133,0.5572132,1.4136186,0.981355,-8.881598
422,1715789481.750935,2.3679044,-0.58650005,0.5428138,1.4136186,0.981355,-8.881598
423,1715789481.77294,2.3679044,-0.58650005,0.5428138,1.9542342,0.82802784,-8.52913
424,1715789481.774941,2.3515525,-0.89986956,0.48006064,1.9542342,0.82802784,-8.52913
425,1715789481.7899437,2.6049144,-1.2825513,0.48713827,2.0379229,0.54153204,-8.107021
426,1715789481.7919447,2.6049144,-1.2825513,0.48713827,1.915139,0.5348125,-7.9225407
427,1715789481.8059475,2.6049144,-1.2825513,0.48713827,1.7251598,0.66920286,-7.8223586
428,1715789481.8079484,2.6930192,-1.4668145,0.5054731,1.7251598,0.66920286,-7.8223586
429,1715789481.81695,2.6954596,-1.6396377,0.6043163,1.5583936,0.86467975,-7.818693
430,1715789481.8299768,2.6954596,-1.6396377,0.6043163,1.5583936,1.3552046,-7.8773365
431,1715789481.830977,2.5124168,-1.9347028,0.78857946,1.4960853,1.3552046,-7.8773365
432,1715789481.838777,2.5124168,-2.2407506,1.0250709,1.7135534,1.9556851,-7.992179
433,1715789481.8407776,2.2671087,-2.2407506,1.0250709,1.7135534,1.9556851,-7.992179
434,1715789481.847779,2.2671087,-2.2407506,1.0250709,2.513176,2.826779,-8.390463
435,1715789481.8497796,2.050874,-2.6271238,1.2288588,2.513176,2.826779,-8.390463
436,1715789481.855781,1.8683193,-3.161365,1.2249539,3.0855567,3.4034357,-8.751485
437,1715789481.8647828,1.6188927,-4.2999225,1.0597271,3.0855567,3.4034357,-8.751485
438,1715789481.865783,1.6188927,-4.2999225,1.0597271,4.2608614,4.327064,-9.526062
439,1715789481.8807864,-3.303162,-6.0027714,-1.8849151,5.9596777,2.5702155,-8.562727
440,1715789481.89679,-6.3371296,-5.459225,-2.5722108,4.573014,-1.0876455,-4.061261
441,1715789481.905792,-6.3371296,-5.459225,-2.5722108,2.803948,-3.1670308,2.3803127
442,1715789481.9077926,-5.837056,-4.866898,-2.096757,2.803948,-3.1670308,2.3803127
443,1715789481.9157941,-5.837056,-4.866898,-1.6623349,1.1338422,-1.8597792,6.336887
444,1715789481.9187953,-3.8957639,-4.284547,-1.6623349,1.1338422,-1.8597792,6.336887
445,1715789481.9197958,-1.3643105,-3.4295838,-1.0165288,1.1338422,-1.8597792,6.336887
446,1715789481.9268208,-1.3643105,-3.4295838,-1.0165288,-1.4043028,0.8903361,9.624564
447,1715789481.9338224,-1.3643105,-2.9858878,-0.60895336,-3.034702,2.0027218,10.644098
448,1715789481.9358234,0.046858992,-2.9858878,-0.60895336,-3.034702,2.0027218,10.644098
449,1715789481.9483767,0.046858992,-2.5487814,-0.23917611,-4.09944,2.3069327,10.45534
450,1715789481.9493768,1.0592389,-2.5487814,-0.23917611,-4.09944,2.3069327,10.45534
451,1715789481.977383,1.5981479,-1.944465,0.06199054,-4.5160503,1.8750509,8.998426
452,1715789481.9783833,1.2713248,-1.7428739,0.1466784,-4.3523383,1.3686435,8.448648
453,1715789481.989386,1.2713248,-1.7428739,0.1466784,-4.133649,0.74189585,8.756524
454,1715789481.9913864,1.0026177,-1.8265854,0.19378147,-4.133649,0.74189585,8.756524
455,1715789481.9923863,1.0026177,-1.8265854,0.19378147,-3.8776963,0.079107046,9.45291
456,1715789482.0113907,1.0026177,-1.8265854,0.19378147,-3.8776963,0.079107046,10.234818
457,1715789482.0123923,1.1639395,-1.9469057,0.1718163,-3.6730564,-0.5177083,10.234818
458,1715789482.0183923,1.1639395,-1.9469057,0.1718163,-3.6730564,-1.0626001,11.25252
459,1715789482.0193925,1.4055562,-2.0779645,0.20061506,-3.5056794,-1.0626001,11.25252
460,1715789482.0304193,2.1631403,-2.2468522,0.24698594,-3.5056794,-1.0626001,11.25252
461,1715789482.0324206,2.1631403,-2.2468522,0.24698594,-3.3688455,-1.4321736,12.383842
462,1715789482.043729,3.118899,-2.2012134,0.2277054,-3.3688455,-1.4321736,12.383842
463,1715789482.044729,3.6912441,-2.0479455,0.10933765,-3.2680528,-1.7345519,12.680722
464,1715789482.0557318,3.6912441,-2.0479455,0.10933765,-3.5502725,-1.5549575,12.253117
465,1715789482.057732,4.096867,-1.8099896,0.04368625,-3.5502725,-1.5549575,12.253117
466,1715789482.0647337,4.2479386,-1.5085789,-0.017572122,-3.9021308,-1.1707232,12.031373
467,1715789482.0717354,4.3850985,-1.1915181,0.20574026,-4.7194686,-0.5439755,11.854833
468,1715789482.0837379,4.503009,-0.829337,0.6831467,-4.7573423,-0.2519819,11.658134
469,1715789482.1037428,4.6301627,-0.29189247,1.1773627,-4.7573423,-0.2519819,11.658134
470,1715789482.105744,4.6301627,-0.29189247,1.1773627,-3.0652454,-0.49021935,10.756497
471,1715789482.1127448,5.083865,0.35412705,1.3460063,-3.0652454,-0.49021935,10.756497
472,1715789482.1137447,5.083865,0.35412705,1.3460063,-2.2753966,-0.39858958,10.017961
473,1715789482.128772,5.083865,0.35412705,1.3460063,-1.2076043,0.036957346,8.610527
474,1715789482.1307728,4.751703,0.9157333,1.2549728,-1.2076043,0.036957346,8.610527
475,1715789482.142309,4.751703,0.9157333,1.2549728,-0.43241623,-0.1731803,7.551287
476,1715789482.1433258,3.7622647,1.671365,1.6352446,1.3403147,-0.6973027,6.2531986
477,1715789482.1623302,3.4952657,1.8783256,1.4746244,1.3403147,-0.6973027,6.2531986
478,1715789482.1633298,3.4093275,1.9796093,1.0411787,4.1203623,-1.1591167,4.5201735
479,1715789482.172332,3.4093275,1.9796093,1.0411787,4.1203623,-1.4266758,2.8384616
480,1715789482.1743326,3.2782686,2.1428838,0.23258655,4.6695304,-1.4266758,2.8384616
481,1715789482.1843345,3.071064,2.2068267,-0.5042528,4.6695304,-1.4266758,2.8384616
482,1715789482.1863356,3.071064,2.2068267,-0.5042528,3.8430295,-1.2049317,1.3045791
483,1715789482.1953375,2.8697166,2.157039,-0.9704022,2.2156847,-0.54519725,0.21174116
484,1715789482.2073991,2.8697166,2.003039,-1.1446589,0.446008,0.28252518,-0.4620432
485,1715789482.2093256,2.769409,2.003039,-1.1446589,0.446008,0.28252518,-0.4620432
486,1715789482.2153418,2.7969875,1.7943699,-0.9652769,-1.4427874,1.325883,-1.0948995
487,1715789482.2399232,2.7969875,1.7943699,0.48542988,-2.5447884,1.8182404,-2.6581037
488,1715789482.242924,2.8379893,1.5874094,0.48542988,-2.5447884,1.8182404,-2.6581037
489,1715789482.2539265,2.8379893,1.5874094,0.9164654,-1.753107,1.0680978,-3.2194889
490,1715789482.256927,3.1879673,1.6777105,1.1898096,-0.46723557,0.094989546,-3.8596756
491,1715789482.2749312,3.4884017,1.6555014,1.0963356,0.36903897,-0.47128254,-4.4271693
492,1715789482.2769315,3.8728225,1.6120591,0.74025613,0.83574003,-0.713796,-5.3055935
493,1715789482.2879336,3.8728225,1.6120591,0.74025613,0.55168766,-0.4474588,-5.9494457
494,1715789482.2889342,4.113463,1.5339608,0.45223808,-0.12698361,0.14508049,-6.6439996
495,1715789482.295936,4.4141417,1.3320949,0.33704305,-0.12698361,0.14508049,-6.6439996
496,1715789482.3149402,4.4141417,1.3320949,0.61920375,-0.8392525,0.8921687,-7.6647553
497,1715789482.3159401,4.3816814,1.0282438,0.61920375,-0.8392525,0.8921687,-7.6647553
498,1715789482.3241487,4.2035203,0.8923038,0.73024976,-0.8972847,1.0436633,-7.9817944
499,1715789482.3339686,3.8330412,0.66093755,0.90060174,-0.7066947,1.1273518,-8.350757
500,1715789482.3495219,3.8330412,0.66093755,0.90060174,-0.3804927,1.2391402,-8.581053
501,1715789482.351523,3.605824,0.5035206,0.96674126,-0.3804927,1.2391402,-8.581053
502,1715789482.3645253,3.3292763,0.32947728,0.9796763,0.391641,1.570229,-8.893816
503,1715789482.3675263,3.157704,0.19622204,0.97674763,0.391641,1.570229,-8.893816
504,1715789482.3735275,3.157704,0.19622204,0.927204,1.0611492,1.6734654,-9.042868
505,1715789482.375528,2.7986958,-0.049787678,0.927204,1.0611492,1.6734654,-9.042868
506,1715789482.4015336,2.7986958,-0.049787678,0.927204,1.9181932,1.7962493,-8.750263
507,1715789482.4035194,2.20341,-0.4790844,0.6868076,1.9181932,1.7962493,-8.750263
508,1715789482.4045346,2.20341,-0.4790844,0.6868076,2.3464098,2.0766363,-8.426504
509,1715789482.405535,2.161432,-0.6819264,0.6685033,2.3464098,2.0766363,-8.426504
510,1715789482.416537,2.2683291,-0.794925,0.6167632,2.6469555,2.1902573,-8.245688
511,1715789482.4235625,2.3888934,-0.93501383,0.56770766,2.6469555,2.1902573,-8.245688
512,1715789482.425564,2.3888934,-0.93501383,0.56770766,3.1008284,2.1609359,-8.154669
513,1715789482.4325645,2.4569852,-1.102437,0.5816189,3.1008284,2.1609359,-8.154669
514,1715789482.433565,2.4569852,-1.102437,0.5816189,3.5974617,1.8329011,-8.138786
515,1715789482.443119,2.438193,-1.2630267,0.62823385,3.5974617,1.8329011,-8.138786
516,1715789482.4441192,2.438193,-1.2630267,0.62823385,4.0024652,1.4639386,-8.100303
517,1715789482.456122,2.4194005,-1.4485103,0.75685203,4.5143704,0.91415983,-7.987903
518,1715789482.466124,2.4194005,-1.4485103,0.75685203,5.0415473,0.41874814,-7.843739
519,1715789482.4681246,2.3925543,-1.598636,0.927204,5.0415473,0.41874814,-7.843739
520,1715789482.4841285,2.294199,-1.9151782,0.927204,6.0018272,-0.3222314,-7.662312
521,1715789482.5068913,1.7499515,-2.5151014,0.47054234,6.169204,-0.49632803,-8.147339
522,1715789482.5289028,1.7499515,-2.5151014,0.47054234,5.7098336,-0.35338554,-8.5431795
523,1715789482.530901,-0.25723633,-4.038049,-0.7485541,3.269427,0.2770274,-8.681846
524,1715789482.5484087,-0.25723633,-4.4954123,-1.2752296,1.5748869,0.42180246,-7.9097123
525,1715789482.5504096,-1.7572733,-4.4954123,-1.2752296,1.5748869,0.42180246,-7.9097123
526,1715789482.5644128,-4.3011427,-5.091919,-1.5808198,-2.219197,0.00580322,-2.811431
527,1715789482.5744147,-4.3011427,-5.091919,-1.5808198,-2.219197,0.00580322,1.7431804
528,1715789482.5764155,-4.190829,-4.837611,-0.89620876,-3.7995055,0.057726767,1.7431804
529,1715789482.586418,-3.204807,-4.4387913,-0.36730617,-4.66388,0.57696223,5.914779
530,1715789482.6014209,-2.152646,-3.900889,0.11617125,-4.7139707,0.92087936,8.247673
531,1715789482.6234498,-0.16400647,-3.203831,0.37194324,-4.4745116,0.96669424,9.983142
532,1715789482.6254501,0.72707707,-2.8772824,0.34802565,-3.6596174,0.19272798,11.30933
533,1715789482.633452,0.72707707,-2.8772824,0.34802565,-3.285157,-0.31856623,11.469988
534,1715789482.6490054,1.5415266,-2.464795,0.30165476,-3.0371456,-0.6203337,11.572613
535,1715789482.6640086,1.5415266,-2.464795,0.30165476,-2.6852872,-0.8750645,11.921417
536,1715789482.6660092,1.9237202,-2.2951753,0.2884757,-2.6852872,-0.8750645,11.921417
537,1715789482.6800122,1.9237202,-2.2951753,0.2884757,-2.6852872,-0.8750645,12.551219
538,1715789482.6820126,2.6669052,-2.1536222,0.26626647,-2.4250586,-0.9398162,12.551219
539,1715789482.7120202,2.6669052,-2.1536222,0.26626647,-2.2833378,-1.1682798,12.482191
540,1715789482.7130163,3.8044865,-1.4455816,0.54964745,-1.5924493,-1.498147,11.99411
541,1715789482.7190175,3.8044865,-1.4455816,0.54964745,-1.5924493,-1.2702943,11.741212
542,1715789482.7200177,4.174477,-1.0309283,0.4249037,-1.4024702,-1.2702943,11.741212
543,1715789482.723023,4.174477,-1.0309283,0.4249037,-1.6071101,-0.627664,11.384466
544,1715789482.7240477,4.246962,-0.37413976,0.09493827,-1.6071101,-0.627664,11.384466
545,1715789482.7320495,4.3201795,0.23649146,-0.08371163,-1.6071101,-0.627664,11.384466
546,1715789482.7340498,4.3201795,0.23649146,-0.08371163,-2.663907,0.39614612,11.11141
547,1715789482.7516062,4.3201795,0.23649146,-0.08371163,-3.2014685,0.7315111,10.443123
548,1715789482.753587,5.109003,0.6724082,0.46639338,-3.2014685,0.7315111,10.443123
549,1715789482.7606068,6.001795,1.2425259,1.3111061,-2.6480246,0.8744536,8.58426
550,1715789482.7666094,6.001795,1.2425259,1.3111061,-1.7225636,1.0051788,6.8500137
551,1715789482.76861,6.123091,1.6823475,1.692598,-1.7225636,1.0051788,6.8500137
552,1715789482.7756083,5.223222,2.2514892,1.8519673,-1.7225636,1.0051788,6.8500137
553,1715789482.7766087,5.223222,2.2514892,1.8519673,-0.2607631,1.2104294,4.6954923
554,1715789482.7886155,3.790087,2.5553708,1.4372836,1.370858,1.7259997,2.9643
555,1715789482.8066149,3.790087,2.5553708,1.4372836,1.370858,1.5891659,1.7236327
556,1715789482.8086169,2.8443346,2.7584264,0.61285824,2.681164,1.5891659,1.7236327
557,1715789482.8226187,2.8443346,2.7584264,0.61285824,3.074561,0.9056077,1.0467939
558,1715789482.8236394,2.6427433,2.9751494,-0.1769415,3.138702,-0.020463986,-0.04665483
559,1715789482.8381722,2.7203536,2.9707565,-0.5642909,2.643901,-0.2611449,-0.88842714
560,1715789482.8471951,2.7203536,2.9707565,-0.5642909,2.643901,-0.026572637,-1.9971476
561,1715789482.848195,2.9534283,2.8550732,-0.9154892,1.5626696,-0.026572637,-1.9971476
562,1715789482.8552003,2.9534283,2.7540333,-0.9794322,0.43195808,0.35155296,-2.997134
563,1715789482.856197,2.956845,2.7540333,-0.9794322,0.43195808,0.35155296,-2.997134
564,1715789482.865199,2.806994,2.72133,-0.78003746,0.43195808,0.35155296,-2.997134
565,1715789482.8662033,2.806994,2.72133,-0.78003746,-0.43363798,0.5653558,-3.7191768
566,1715789482.8742213,2.7633076,2.6339574,-0.25381953,-0.43363798,0.5653558,-3.7191768
567,1715789482.8762016,2.7633076,2.6339574,-0.25381953,-0.9376018,0.5012149,-4.37097
568,1715789482.9012105,2.7633076,2.6339574,-0.25381953,-0.9876927,0.14202617,-4.9628983
569,1715789482.904208,3.084731,2.446735,0.47713193,-0.555811,-0.03940081,-5.445482
570,1715789482.905208,3.169175,2.369613,0.59943515,-0.555811,-0.03940081,-5.445482
571,1715789482.9062085,3.169175,2.369613,0.59943515,0.014126259,-0.112704635,-5.9408937
572,1715789482.9162107,3.2021227,2.3813276,0.530855,0.37148243,-0.17440203,-6.309245
573,1715789482.9322417,3.3424554,2.4101264,0.3704789,0.4472297,-0.28985557,-6.63728
574,1715789482.9342446,3.6253486,2.3830361,0.29164842,0.03733914,-0.21166481,-7.103981
575,1715789482.948793,3.866721,2.1956,0.34924594,-0.38476875,0.038789943,-7.6048903
576,1715789482.9628007,3.866721,2.1956,0.34924594,-0.38476875,0.66859204,-8.775919
577,1715789482.9648,3.7210188,1.5305439,0.7380596,-0.6822601,0.66859204,-8.775919
578,1715789482.971798,3.4207978,1.1175686,0.83787906,-0.5399285,0.90010995,-9.076465
579,1715789482.9818008,3.4207978,1.1175686,0.83787906,-0.5399285,0.90010995,-9.342192
580,1715789482.9828007,3.1091368,0.54989153,0.9603958,-0.09399689,0.9941832,-9.342192
581,1715789482.9938042,2.6742268,0.055400997,1.0367857,0.5571855,0.9611965,-9.3922825
582,1715789483.0108075,2.6742268,0.055400997,1.0367857,0.5571855,0.9611965,-9.220018
583,1715789483.0128076,2.3391058,-0.30970863,1.0272675,1.2193633,0.88056225,-9.220018
584,1715789483.0288174,1.952519,-0.83324194,0.9030423,2.3299165,0.8035932,-8.702616
585,1715789483.0443728,1.7233493,-1.178827,0.6848551,3.3983197,0.52381694,-7.6781945
586,1715789483.064371,1.7743572,-1.2703484,0.5891847,3.5125515,0.3454443,-7.213937
587,1715789483.0663722,1.901755,-1.38774,0.5298788,3.4459672,0.23426682,-6.8297024
588,1715789483.1103823,2.16192,-1.7013841,0.54330194,3.4459672,0.23426682,-6.8297024
589,1715789483.111381,2.2073147,-2.9580655,0.81981885,3.29264,1.0577132,-7.1632347
590,1715789483.113384,2.2073147,-2.9580655,0.81981885,3.514384,1.4749341,-7.599393
591,1715789483.1143837,1.9244524,-3.3507533,0.6663068,3.514384,1.4749341,-7.599393
592,1715789483.1263916,0.7929725,-4.094182,0.044174362,3.5430949,1.9312505,-7.811974
593,1715789483.1439376,0.7929725,-4.094182,0.044174362,2.9823205,2.1713204,-6.8437524
594,1715789483.1449378,-2.4345322,-4.521069,-0.9494132,2.3714552,2.1010711,-4.8352275
595,1715789483.1649463,-3.8388984,-4.360693,-1.2954865,1.4966962,1.2263119,-1.1443797
596,1715789483.1772544,-4.097599,-4.1742334,-1.3777337,1.4966962,1.2263119,-1.1443797
597,1715789483.178915,-3.3646648,-3.8406067,-1.1715053,0.07399105,-0.3643811,5.116989
598,1715789483.1863337,-3.3646648,-3.8406067,-1.1715053,0.07399105,-0.3643811,8.3270855
599,1715789483.188334,-1.9322623,-3.2999895,-0.86789805,-1.040838,-0.34483343,8.3270855
600,1715789483.190331,-0.84666514,-2.8658118,-0.62847793,-1.040838,-0.34483343,8.3270855
601,1715789483.1916094,-0.84666514,-2.8658118,-0.62847793,-2.0298288,-0.07238753,9.809656
602,1715789483.2134752,-0.040513504,-2.5739193,-0.40684342,-2.8612165,0.10903945,10.555522
603,1715789483.216469,0.53451586,-2.3925543,-0.22062775,-3.452534,0.19517145,10.8371315
604,1715789483.2215717,1.2312994,-2.1121325,0.049787678,-4.0853906,0.20189096,10.718623
605,1715789483.2465522,1.2312994,-2.1121325,0.049787678,-4.0853906,0.20189096,10.498712
606,1715789483.247553,1.6293873,-1.9168867,0.4127008,-3.9992585,0.38881573,10.322172
607,1715789483.2575886,1.6293873,-1.9168867,0.4127008,-3.9992585,0.38881573,10.297737
608,1715789483.2587514,1.8195078,-1.9259167,0.4170938,-3.7310886,0.40042216,10.297737
609,1715789483.2661486,1.9122496,-1.9329944,0.36706212,-3.4757469,0.22510384,10.429684
610,1715789483.2782347,2.2751627,-1.9434888,0.34509695,-3.1825316,-0.129198,10.666089
611,1715789483.3093462,2.811631,-1.8607534,0.2613853,-2.4922538,-0.8188649,10.927539
612,1715789483.3106687,3.2968168,-1.8146267,-0.2323425,-2.6205356,-1.0082331,11.691731
613,1715789483.323586,4.028775,-1.7296947,-0.5845476,-5.012073,-0.43279803,13.353285
614,1715789483.3400662,5.572986,-1.4348431,0.26968327,-6.544734,-0.49632803,13.830982
615,1715789483.3421516,6.555835,-0.99139106,1.2762059,-6.544734,-0.49632803,13.830982
616,1715789483.3441846,6.555835,-0.99139106,1.2762059,-6.2032604,-0.59956425,12.824886
617,1715789483.3582616,6.662732,-0.47176263,1.9554478,-6.2032604,-0.59956425,12.824886
618,1715789483.3600588,6.662732,-0.47176263,1.9554478,-5.035286,-0.5335908,11.608654
619,1715789483.3657453,6.4252343,-0.16522676,2.114573,-3.833103,-0.2678644,10.633713
620,1715789483.3748088,5.960305,0.105676785,1.9796093,-3.833103,-0.2678644,10.633713
621,1715789483.3779614,5.960305,0.105676785,1.9796093,-2.7366,0.038789943,9.584247
622,1715789483.3999321,3.5887399,0.9193942,1.4306941,-0.69753176,0.11636983,7.790746
623,1715789483.4020538,3.485229,1.0419109,1.5632477,-0.69753176,0.11636983,7.790746
624,1715789483.4035797,3.485229,1.0419109,1.5632477,0.17417295,-0.17440203,7.4437747
625,1715789483.4179757,3.485229,1.0419109,1.5632477,0.17417295,-0.17440203,6.8707833
626,1715789483.420129,3.370278,1.3123263,1.7667913,1.4948636,-0.4156938,6.8707833
627,1715789483.430437,3.1708834,1.7331116,1.637197,1.4948636,-0.4156938,6.8707833
628,1715789483.4327075,3.0105379,2.0896792,0.9010899,5.05743,-1.2672399,4.399833
629,1715789483.452298,2.9570892,2.2797997,0.32386398,5.2669563,-1.4285084,3.3302083
630,1715789483.4583488,2.7081506,2.4394133,-0.65215147,5.2669563,-1.4285084,3.3302083
631,1715789483.4605875,2.7081506,2.4394133,-0.65215147,4.2107706,-1.0235047,1.3180181
632,1715789483.4656045,2.7081506,2.4394133,-0.65215147,4.2107706,-1.0235047,0.36812267
633,1715789483.4678528,2.493838,2.4316034,-0.99456376,3.0623438,-0.52748215,0.36812267
634,1715789483.4743657,2.260031,2.2705257,-1.1261107,1.2786173,0.14263703,-0.65996355
635,1715789483.4840949,2.1794922,1.8900403,-0.70145106,-0.72746414,0.82558435,-1.6819412
636,1715789483.4967685,2.234893,1.6362208,-0.17157225,-1.3700944,1.0729848,-2.303802
637,1715789483.5183017,2.2797997,1.5207816,0.65312773,-0.7592291,0.37843102,-3.259806
638,1715789483.5324173,2.4050012,1.5329845,0.7937047,-0.18135062,-0.25809056,-3.5823429
639,1715789483.533833,2.935124,1.5364014,0.8044432,0.4704426,-1.1670581,-4.1559453
640,1715789483.5528855,2.935124,1.5364014,0.75441146,0.60727644,-1.3497068,-4.8407254
641,1715789483.5550187,3.537732,1.5578785,0.75441146,0.60727644,-1.3497068,-4.8407254
642,1715789483.5566108,4.119808,1.5605631,0.7248805,0.44356453,-1.1517864,-5.697769
643,1715789483.5654814,4.119808,1.5605631,0.7248805,0.44356453,-0.89827734,-6.5664196
644,1715789483.5666687,4.460512,1.5173649,0.7192672,0.15279266,-0.89827734,-6.5664196
645,1715789483.5836747,4.670188,1.336732,0.7707633,-0.29802588,-0.6918049,-7.490048
646,1715789483.5864873,4.763174,0.99798054,1.0472802,-0.8355873,-0.2489276,-8.505917
647,1715789483.593078,4.763174,0.99798054,1.0472802,-0.9333257,0.1432479,-8.835784
648,1715789483.5943203,4.7968535,0.7785731,1.20006,-0.9333257,0.1432479,-8.835784
649,1715789483.6150866,4.8102765,0.42954078,1.4411886,-0.83436555,0.6337727,-9.12289
650,1715789483.6176853,4.8102765,0.42954078,1.4411886,-0.574137,0.99296147,-9.35563
651,1715789483.6357327,4.2296343,0.015375607,1.3687036,0.3562108,1.4419475,-9.66595
652,1715789483.6444716,3.9704452,-0.21623473,1.2630267,0.3562108,1.4419475,-9.66595
653,1715789483.6459382,3.9704452,-0.21623473,1.2630267,0.85956377,1.7400496,-9.640904
654,1715789483.6612318,3.9704452,-0.46810177,1.1583261,1.3262649,2.0131063,-9.584704
655,1715789483.6622355,3.6414561,-0.46810177,1.1583261,1.3262649,2.0131063,-9.584704
656,1715789483.6688406,3.4290957,-0.7087728,1.0787636,1.6591864,2.16399,-9.527284
657,1715789483.6814854,2.8684962,-1.1851726,0.9364782,2.7196484,2.4956899,-9.24262
658,1715789483.698867,2.6817925,-1.3904246,0.81371737,3.3861024,2.4578164,-8.828454
659,1715789483.73011,2.760867,-1.760446,0.46248847,4.0238457,1.8646661,-7.88711
660,1715789483.7374785,2.760867,-1.760446,0.46248847,3.8619664,1.5409076,-7.7044616
661,1715789483.7710252,2.5751395,-2.3986557,0.7339106,3.7061958,0.97158116,-7.8663406
662,1715789483.7774017,2.3347127,-2.6566546,0.7463576,3.8332558,0.8720101,-8.012948
663,1715789483.7971532,1.8951657,-3.1145062,0.59406585,4.0757694,0.9257663,-8.265236
664,1715789483.7983913,1.5054061,-3.657076,0.26406994,4.249255,1.20371,-8.600601
665,1715789483.8155997,1.5054061,-3.657076,0.26406994,4.249255,1.20371,-8.865716
666,1715789483.8166218,0.11690342,-5.220049,-0.94819295,3.8723512,1.8976529,-8.865716
667,1715789483.8369565,-5.040667,-5.7438264,-2.9116945,0.8119163,0.0021380284,-3.264693
668,1715789483.8471656,-5.040667,-5.1709933,-2.5561032,0.8119163,0.0021380284,-3.264693
669,1715789483.8489285,-5.8085017,-5.1709933,-2.5561032,-0.38476875,-1.6930131,1.223334
670,1715789483.850717,-3.9631233,-4.546939,-1.387252,-1.403081,-2.3380868,7.1468945
671,1715789483.8726308,-2.190475,-4.0468354,-0.6409248,-1.7170658,-1.8090774,9.81271
672,1715789483.8740911,-0.6145667,-3.554328,-0.06467517,-1.7109572,-0.95569867,11.542681
673,1715789483.8844595,-0.6145667,-3.554328,-0.06467517,-1.7109572,-0.95569867,12.366127
674,1715789483.885466,0.6226205,-3.1286614,0.17889395,-1.4904349,-0.20861048,12.366127
675,1715789483.9027045,1.2198286,-2.7725818,0.18816814,-1.3200034,0.22571471,12.36124
676,1715789483.9260752,1.9730198,-2.3049376,0.056133166,-1.3499359,0.31245756,12.054585
677,1715789483.9274049,1.9730198,-2.3049376,0.056133166,-1.4983761,0.099265605,11.573834
678,1715789483.9287863,2.1736348,-2.1814446,0.059794027,-1.6156622,-0.011301007,11.169442
679,1715789483.9409971,2.2693055,-1.9547155,-0.017328065,-1.6156622,-0.011301007,11.169442
680,1715789483.9442933,2.2693055,-1.9547155,-0.017328065,-2.1868212,0.026572637,10.46939
681,1715789483.9508886,2.302741,-1.9813178,-0.082735404,-3.0230958,0.355829,10.561631
682,1715789483.9637942,2.3847442,-2.0794287,-0.06809197,-3.9852085,0.79381937,11.0203905
683,1715789483.9650633,2.4921296,-2.2004812,0.0039049159,-4.8776827,1.2409728,11.610487
684,1715789483.9932973,2.4921296,-2.2004812,0.0039049159,-4.8776827,1.1743884,12.914684
685,1715789483.9951477,4.6950817,-2.2898061,0.92427534,-6.6736264,0.5122105,13.110161
686,1715789484.0254352,4.6950817,-2.2898061,0.92427534,-6.4427195,-0.022907447,13.10222
687,1715789484.0275884,6.131389,-1.4145863,1.8375679,-6.0193896,-0.3820962,12.935453
688,1715789484.028601,6.131389,-1.4145863,1.8375679,-5.098205,-0.9837985,12.521287
689,1715789484.0406497,6.410835,-0.97674763,2.151914,-3.4824665,-1.2599095,11.678904
690,1715789484.0421593,6.0759883,-0.5064493,2.1460564,-3.4824665,-1.2599095,11.678904
691,1715789484.0443363,6.0759883,-0.5064493,2.1460564,-1.5863407,-1.0180069,10.523757
692,1715789484.0645473,5.340125,0.110801995,2.0052354,1.0794753,-1.044885,9.270873
693,1715789484.0812159,4.841516,0.63799614,1.8102336,1.0794753,-1.044885,9.270873
694,1715789484.0824268,4.6440735,1.1429507,1.5705694,3.4038174,-0.98990715,7.0375495
695,1715789484.0842545,4.562803,1.9315301,1.0526494,3.4038174,-0.98990715,7.0375495
696,1715789484.0943332,4.601852,2.4503958,0.56063,3.963981,-0.91538155,4.7162614
697,1715789484.111683,4.344097,2.726699,0.11031388,3.4630713,-0.5653558,0.112780996
698,1715789484.1317577,2.913647,1.828538,-1.0262913,0.29940033,1.4853189,-3.9525273
699,1715789484.168839,1.9725317,0.8705827,-0.14008886,-2.0279963,2.5891523,-5.0136003
700,1715789484.176101,1.867099,0.8381231,0.45980385,-1.6193274,1.8219056,-4.9482374
701,1715789484.2038999,1.867099,0.8381231,0.45980385,-1.6193274,1.8219056,-4.784526
702,1715789484.205935,2.0987093,1.0311724,1.255217,0.80214244,-0.68630713,-4.664796
703,1715789484.2079475,2.5373106,1.0794957,1.2437462,1.919415,-1.5384641,-4.700837
704,1715789484.224078,3.0644743,1.1146399,1.169797,2.435596,-1.8347337,-4.899979
705,1715789484.2318726,3.8401186,1.1966431,1.0089632,2.435596,-1.8347337,-4.899979
706,1715789484.2336204,4.2437897,1.2144594,0.8027348,2.4551437,-1.7180585,-6.6812625
707,1715789484.247555,4.4219513,1.1710172,0.65117526,2.4551437,-1.7180585,-6.6812625
708,1715789484.248684,4.4219513,1.1710172,0.65117526,1.6549103,-1.2953397,-7.4833283
709,1715789484.2648296,4.6348,0.9193942,0.9464845,-0.064064495,-0.14752395,-8.577388
710,1715789484.2812266,4.6348,0.9193942,0.9464845,-0.4892267,0.3368922,-9.00255
711,1715789484.2836788,4.308953,0.3385074,1.4509509,-0.4892267,0.3368922,-9.00255
712,1715789484.2850497,4.308953,0.3385074,1.4509509,-0.64499736,0.97585726,-9.588981
713,1715789484.29369,4.308953,0.3385074,1.4509509,-0.4030947,1.3222178,-9.6971035
714,1715789484.2951715,3.7422516,0.024161667,1.5781351,-0.4030947,1.3222178,-9.6971035
715,1715789484.3039627,3.2963288,-0.26748675,1.6750259,-0.4030947,1.3222178,-9.6971035
716,1715789484.3059213,3.2963288,-0.26748675,1.6750259,0.063606344,1.5409076,-9.534614
717,1715789484.3164601,2.9587975,-0.47542354,1.7706963,0.69768447,1.7027869,-9.302485
718,1715789484.3295639,2.9587975,-0.47542354,1.7706963,0.69768447,1.7027869,-8.97384
719,1715789484.3320498,2.6486008,-0.71048117,1.8622179,1.6817883,1.7345519,-8.97384
720,1715789484.333059,2.49997,-0.94599634,1.8116981,2.975601,1.674687,-8.579831
721,1715789484.3462398,2.3376412,-1.3123263,1.4226402,4.4936013,1.6050484,-8.226751
722,1715789484.3628662,2.220738,-1.4807258,1.149296,4.4936013,1.6050484,-8.226751
723,1715789484.3643286,2.1284842,-1.603273,0.9154892,5.0610948,1.5745052,-8.081366
724,1715789484.3661556,2.1284842,-1.603273,0.9154892,5.324378,1.5531249,-7.9451423
725,1715789484.3808901,1.86295,-1.9034635,0.43149322,5.0128365,1.3771957,-7.4430113
726,1715789484.3972964,1.61572,-1.9898597,0.4639528,4.4917684,1.2574661,-7.045949
727,1715789484.4405625,1.4499747,-2.1421516,0.6194478,4.4917684,1.2574661,-7.045949
728,1715789484.4430175,0.8530106,-3.584347,-0.05662128,3.519882,1.8408424,-6.637891
729,1715789484.4591808,0.8530106,-3.584347,-0.6575208,2.8515954,2.2275202,-6.7936616
730,1715789484.4612005,0.3402158,-4.0602584,-0.6575208,2.8515954,2.2275202,-6.7936616
731,1715789484.468093,-0.041001618,-4.31359,-1.02922,2.5180628,2.3014348,-6.772281
732,1715789484.4819942,-0.041001618,-4.31359,-1.02922,1.1405618,2.2751677,-6.0648994
733,1715789484.4850698,-3.5147903,-4.258433,-2.115061,-1.194776,1.2562444,-2.0979404
734,1715789484.495486,-3.7903314,-3.858911,-1.59888,-2.1996493,0.16707164,1.9679787
735,1715789484.5348382,-3.7903314,-3.858911,-1.59888,-0.89056516,-0.9233228,9.710085
736,1715789484.5358536,0.1164153,-2.455765,-0.23161033,-0.89056516,-0.9233228,9.710085
737,1715789484.543405,0.71048117,-2.2217143,-0.34680536,-0.8704066,-1.1120802,9.883571
738,1715789484.5516918,1.2588778,-2.0167062,-0.3951287,-1.1507938,-1.3588698,9.718026
739,1715789484.566681,1.4741364,-1.8622179,-0.3448529,-1.4238505,-1.3845261,9.508499
740,1715789484.5798662,1.7094378,-1.6220655,-0.23917611,-1.8771125,-1.1212431,9.193904
741,1715789484.5868163,1.7094378,-1.6220655,-0.23917611,-2.564947,-0.49571714,9.065622
742,1715789484.587833,1.7623985,-1.5481162,-0.2923806,-2.564947,-0.49571714,9.065622
743,1715789484.6210718,1.760446,-1.5800875,-0.39464056,-3.5007923,0.18478674,9.362502
744,1715789484.6222847,1.9927884,-1.6389055,-0.311173,-5.63149,1.5732834,10.302013
745,1715789484.6236467,2.7162046,-1.7782621,0.2072046,-6.316881,1.7803668,10.656926
746,1715789484.6358888,2.7162046,-1.7782621,0.2072046,-6.8202343,1.4046847,11.286118
747,1715789484.638587,3.2977931,-1.6220655,0.5723447,-6.8202343,1.4046847,11.286118
748,1715789484.646094,4.286988,-1.4507067,1.1327002,-6.579553,0.54641896,11.576889
749,1715789484.6692939,4.901066,-1.2742534,1.4009191,-5.8575106,0.030848695,11.299556
750,1715789484.6705518,5.097776,-0.90792346,1.3186718,-5.047503,-0.34666604,10.958082
751,1715789484.682884,5.097776,-0.90792346,1.3186718,-5.047503,-0.6478226,9.933051
752,1715789484.6839006,5.5156326,-0.31873876,1.1107349,-4.6938124,-0.6478226,9.933051
753,1715789484.6938834,5.0806923,-0.18060236,1.2725451,-4.6938124,-0.6478226,9.933051
754,1715789484.6949942,5.0806923,-0.18060236,1.2725451,-4.6699886,-0.67103547,9.371055
755,1715789484.7159324,4.706064,0.16693515,1.9305538,-4.191681,-1.2739595,9.291642
756,1715789484.7180235,4.5581656,0.4829893,2.3906019,-3.0383673,-1.756543,9.136482
757,1715789484.7298102,4.5581656,1.0628998,2.8323758,-0.85574585,-2.0583105,8.462088
758,1715789484.7322934,4.6250377,1.0628998,2.8323758,-0.85574585,-2.0583105,8.462088
759,1715789484.7433047,4.7990503,1.7648389,2.8958306,-0.85574585,-2.0583105,8.462088
760,1715789484.7446425,4.5581656,2.3081105,2.4403894,3.7630062,-0.9837985,4.591034
761,1715789484.7556555,4.2852793,2.5116847,2.0655174,4.4471755,-0.6575964,3.5201874
762,1715789484.7675474,4.2852793,2.7198653,0.67680126,4.4471755,-0.6575964,3.5201874
763,1715789484.7699034,3.2235997,2.7198653,0.67680126,5.1527247,0.046731193,0.98143137
764,1715789484.7828746,2.1831532,2.4045131,-0.7485541,3.6035705,0.62888575,-1.3972778
765,1715789484.8129096,1.6569656,1.9561797,-1.1139078,0.53091824,0.04184427,-2.9183323
766,1715789484.819129,1.8878438,1.6603825,-0.72366023,-0.41470113,-0.027183503,-3.3795357
767,1715789484.8323572,2.3373973,1.1890775,-0.09005712,-0.87529355,0.025350908,-3.7472765
768,1715789484.834237,2.3373973,1.1890775,-0.09005712,-1.1153636,0.0711658,-4.1235695
769,1715789484.8461123,2.3373973,1.1890775,-0.09005712,-1.1153636,0.0711658,-4.932355
770,1715789484.848456,2.6688576,0.9323292,0.29433304,-1.0328968,0.058948494,-4.932355
771,1715789484.8648045,2.6688576,0.9323292,0.29433304,-1.0328968,0.058948494,-5.9140153
772,1715789484.8662164,3.18333,0.7165826,0.6316506,-0.6016259,0.2501493,-5.9140153
773,1715789484.8854132,3.6851425,0.4502856,0.9396509,-0.33589953,0.31429017,-6.523048
774,1715789484.886902,3.6851425,0.4502856,0.9396509,-0.0139735425,0.528093,-7.132692
775,1715789484.895079,3.6851425,0.4502856,0.9396509,0.19433151,0.57818395,-7.6268816
776,1715789484.8964632,3.972154,0.35461518,0.99139106,0.19433151,0.57818395,-7.6268816
777,1715789484.9099674,3.972154,0.35461518,0.99139106,0.34399348,0.5543602,-8.162
778,1715789484.9121797,4.1181,0.28432667,1.0616795,0.34399348,0.5543602,-8.162
779,1715789484.919205,4.1181,0.28432667,1.1136637,0.40263656,0.5726862,-8.436889
780,1715789484.9214096,4.0985756,0.27480847,1.1136637,0.40263656,0.5726862,-8.436889
781,1715789484.9380684,4.0780745,0.21599068,1.2166559,0.5107597,0.71685034,-8.757593
782,1715789484.9466221,3.9921665,-0.04759116,1.2259301,0.7618253,1.2330315,-8.9060335
783,1715789484.9586549,3.798385,-0.14545812,1.1744341,0.7618253,1.2330315,-8.9060335
784,1715789484.9597723,3.798385,-0.14545812,1.1744341,0.8821658,1.4395039,-8.899314
785,1715789484.9676735,3.451793,-0.22355644,1.1090267,0.8821658,1.4395039,-8.899314
786,1715789484.980275,3.451793,-0.22355644,1.1090267,1.0403799,1.63437,-8.774697
787,1715789484.9820113,3.1606328,-0.3099527,1.0953594,1.1833223,1.6820174,-8.659244
788,1715789484.987523,2.8184648,-0.40903994,1.1458793,1.1833223,1.6820174,-8.659244
789,1715789485.0152614,2.1694858,-0.7785731,1.191762,4.0470586,1.4700472,-7.51265
790,1715789485.0298862,1.7670356,-1.0499648,0.80371106,4.4190755,1.4205672,-7.317784
791,1715789485.0461452,1.3550363,-1.1768746,0.35485923,4.6377654,0.90133166,-6.3904905
792,1715789485.05432,1.3411251,-1.2037208,0.3287451,4.6377654,0.90133166,-6.3904905
793,1715789485.0557303,1.3411251,-1.2037208,0.3287451,4.4514513,0.50976706,-5.9909844
794,1715789485.0742667,1.3411251,-1.2037208,0.3287451,4.293848,0.13530666,-5.772906
795,1715789485.075621,1.4543676,-1.522002,0.51596755,4.207105,-0.30879238,-5.6904387
796,1715789485.0965457,1.5144362,-2.4218411,0.3414361,4.080045,-0.2770274,-6.4448576
797,1715789485.1281476,-0.1415532,-3.7922838,-0.8088362,1.8870391,0.96486163,-7.444844
798,1715789485.1361382,-0.1415532,-3.7922838,-1.1737018,0.55046594,1.2244794,-6.124764
799,1715789485.1384525,-1.845866,-4.233783,-1.1737018,0.55046594,1.2244794,-6.124764
800,1715789485.1650627,-3.6888032,-3.4949913,-0.7082847,-1.1489612,-0.95203346,2.478662
801,1715789485.188299,-1.5791113,-2.5175421,-0.1696198,-1.0878747,-0.22510384,7.51097
802,1715789485.2002206,-0.645806,-2.2463639,-0.061502427,-1.0530553,0.2782491,8.86648
803,1715789485.2021418,0.099819414,-2.0189025,-0.023673553,-0.98586017,0.37720928,9.542707
804,1715789485.2184215,0.099819414,-2.0189025,-0.023673553,-0.8820131,0.18661933,9.698479
805,1715789485.2214587,0.7180469,-1.8409848,-0.038316987,-0.8820131,0.18661933,9.698479
806,1715789485.2440445,1.598636,-1.3755372,-0.28261828,-0.7616726,-0.33017266,9.0191965
807,1715789485.2535126,1.8302463,-1.3782218,-0.4249037,-1.3847551,-0.16157386,9.046685
808,1715789485.271467,1.9195713,-1.4053122,-0.46200037,-1.9253709,0.121256754,9.156641
809,1715789485.2810907,1.9195713,-1.4053122,-0.44930938,-4.5007787,1.1633929,10.977631
810,1715789485.282144,1.8768613,-1.4851189,-0.44930938,-4.5007787,1.1633929,10.977631
811,1715789485.2845201,2.1753433,-1.6730734,-0.34973404,-4.5007787,1.1633929,10.977631
812,1715789485.30344,3.2633808,-1.7633747,-0.2169669,-6.430502,0.9801333,12.341692
813,1715789485.3179164,4.0431747,-1.7584935,-0.0959145,-7.224016,0.6630942,12.482191
814,1715789485.3259842,4.4754,-1.6869847,-0.034168016,-7.740808,0.4877759,12.355742
815,1715789485.3346977,5.116569,-1.5913143,0.7575842,-8.325406,-0.18906279,11.61293
816,1715789485.3486183,5.101437,-1.1244023,1.7536124,-7.1745358,-1.1713341,10.979463
817,1715789485.3552737,5.406509,-0.5113304,2.344719,-7.1745358,-1.1713341,10.979463
818,1715789485.357538,5.406509,-0.5113304,2.344719,-5.0279555,-1.8212948,10.82919
819,1715789485.3792646,5.406509,-0.113974735,2.2824843,-2.2986095,-2.0931299,9.732687
820,1715789485.3806667,4.050496,0.13935669,2.0362306,1.239522,-2.7259862,9.483454
821,1715789485.4106014,4.050496,0.13935669,2.0362306,2.612747,-1.6618589,7.7577596
822,1715789485.4119587,3.8691616,1.0306844,0.55037963,2.612747,-1.6618589,7.7577596
823,1715789485.4183981,3.9011333,1.5166328,0.31190515,2.395279,-0.8677341,6.762049
824,1715789485.4264896,3.9011333,1.5166328,0.31190515,2.1662045,-0.0711658,4.9428926
825,1715789485.4415414,3.9802074,2.0708866,0.32044718,2.1662045,-0.0711658,4.9428926
826,1715789485.4438498,3.8581789,2.422573,0.38561043,2.3354142,0.29718593,2.446897
827,1715789485.4557145,3.8581789,2.422573,0.32117933,2.5327237,0.2959642,0.56543213
828,1715789485.456813,3.472294,2.400608,0.32117933,2.5327237,0.2959642,0.56543213
829,1715789485.464181,3.050319,2.1875463,0.14252943,2.599308,0.5873469,-1.0399218
830,1715789485.472176,2.8194408,1.9752163,-0.012690976,2.5192847,0.90010995,-1.8407661
831,1715789485.4739218,2.6437197,1.7619102,-0.15888128,2.24073,1.2660183,-2.6678777
832,1715789485.4853399,2.48554,1.4719398,-0.3577879,2.24073,1.2660183,-2.6678777
833,1715789485.486479,2.48554,1.4719398,-0.3577879,1.6323082,1.5580118,-3.3996942
834,1715789485.498688,2.4284306,1.3396608,-0.39317623,1.6323082,1.5580118,-3.3996942
835,1715789485.5000153,2.4284306,1.3396608,-0.39317623,1.1020772,1.4187346,-3.7026832
836,1715789485.505842,2.5509777,1.2920696,-0.26626647,0.5565746,0.83291477,-4.0013967
837,1715789485.5467546,3.8140047,0.7856508,0.6645984,0.20044015,-1.0955868,-5.9329524
838,1715789485.5486753,3.8140047,0.7856508,0.6645984,0.19799669,-1.361924,-6.781444
839,1715789485.5667748,3.9528732,0.5472069,0.7075525,0.035506543,-1.2275337,-7.383757
840,1715789485.5689933,4.096379,0.38463423,0.8386112,-0.2577088,-0.8567385,-7.937201
841,1715789485.58866,4.3970575,0.21379416,1.1353848,-0.4892267,-0.29657507,-8.805241
842,1715789485.597055,4.4261003,0.071264714,1.1798033,-0.49350277,-0.14996742,-9.160153
843,1715789485.6102784,4.3255486,-0.03734076,1.2100663,-0.45807257,0.01740966,-9.555384
844,1715789485.6304474,3.4076188,-0.43246946,1.272789,-0.32979086,0.37598756,-9.963441
845,1715789485.6443374,3.2028546,-0.5537964,1.306469,0.28779387,1.1389582,-10.008645
846,1715789485.6593118,3.2028546,-0.5537964,1.306469,0.9322567,1.3735305,-9.985433
847,1715789485.6615684,2.897295,-0.675825,1.323797,0.9322567,1.3735305,-9.985433
848,1715789485.694575,2.6420112,-0.8552071,1.3081774,2.314034,1.3826935,-9.840047
849,1715789485.696575,2.1001737,-1.2081139,1.067781,3.3176856,1.2678508,-9.391671
850,1715789485.7125795,1.9542273,-1.3482027,0.7468457,3.973755,1.2244794,-8.660465
851,1715789485.7225804,1.956424,-1.3794421,0.62896603,4.06905,1.181108,-8.278064
852,1715789485.7295866,1.956424,-1.3794421,0.62896603,4.0757694,1.1023064,-7.9494185
853,1715789485.7315872,2.034034,-1.4353312,0.6172513,4.0757694,1.1023064,-7.9494185
854,1715789485.7335885,2.1502054,-1.5295677,0.66069347,4.081267,1.0015136,-7.6671987
855,1715789485.7575896,2.3271468,-1.802912,0.86423725,4.308509,0.86284715,-7.4570613
856,1715789485.760593,2.310307,-2.0630767,1.0362976,4.780708,0.73273283,-7.4827175
857,1715789485.773199,2.094072,-2.4464908,1.0567983,5.5449004,0.58551437,-7.617108
858,1715789485.776743,1.8177994,-2.8465312,0.89205974,6.1331635,0.46517387,-7.8174715
859,1715789485.7942545,1.2181202,-3.5606732,0.294089,6.551606,0.47555858,-8.315327
860,1715789485.795842,0.16937573,-4.517164,-0.6162751,6.082462,0.37415496,-8.50775
861,1715789485.8028507,0.16937573,-4.517164,-1.3652867,5.1392856,0.074830994,-7.947586
862,1715789485.8044581,-1.080228,-5.071662,-1.3652867,5.1392856,0.074830994,-7.947586
863,1715789485.843113,-4.765126,-4.811741,-1.9117615,0.24258986,-1.3240504,0.71448326
864,1715789485.845131,-3.42031,-3.9877734,-0.9923673,-2.1269565,-0.4896085,6.195777
865,1715789485.854134,-1.7699642,-3.4286077,-0.40049794,-3.2094097,0.6392705,9.072342
866,1715789485.870695,-0.6306744,-2.9644108,-0.041001618,-3.8098903,1.4022411,10.368598
867,1715789485.8771584,0.13227904,-2.6556783,0.17059602,-4.0756164,1.7119498,10.749778
868,1715789485.893186,0.84861755,-2.263448,0.43881494,-3.96505,1.5958854,10.576292
869,1715789485.9153714,1.2217811,-2.0110927,0.4996157,-3.6046395,1.0699304,10.167623
870,1715789485.9172814,1.4097052,-1.7716725,0.45199403,-2.985222,0.21533,9.638002
871,1715789485.9486685,1.3567448,-1.7794824,0.39854547,-2.967507,0.15302174,9.863412
872,1715789485.9506688,1.7448263,-2.0189025,0.3619369,-3.851429,0.37965274,12.074133
873,1715789485.951669,2.3801074,-2.0970008,0.42026657,-3.851429,0.37965274,12.074133
874,1715789485.964169,2.7918622,-2.1333654,0.37609223,-4.2020655,0.41141775,12.516399
875,1715789485.9766016,3.1606328,-2.233917,0.40293851,-4.5435395,0.52931476,12.736311
876,1715789485.9859464,3.5182073,-2.1809566,0.54915935,-4.759175,0.6453791,12.832828
877,1715789486.0092938,3.5182073,-2.1809566,0.54915935,-5.4005833,1.0070114,12.896358
878,1715789486.0115738,5.133897,-1.594487,0.40733153,-6.0945263,1.2018774,12.223185
879,1715789486.0233386,5.0775194,-1.3301425,0.7873592,-5.91371,0.52687126,10.693578
880,1715789486.024683,4.6884923,-1.0492326,1.2386211,-5.91371,0.52687126,10.693578
881,1715789486.0344703,4.6884923,-1.0492326,1.2386211,-5.4201307,0.09865474,10.5341425
882,1715789486.0356014,4.521069,-0.9848015,1.3987225,-5.4201307,0.09865474,10.5341425
883,1715789486.0446005,4.521069,-0.9848015,2.0010865,-3.2546136,-1.1206323,10.112034
884,1715789486.0456116,4.322132,-0.88913107,2.0010865,-3.2546136,-1.1206323,10.112034
885,1715789486.0604484,4.322132,-0.63628775,2.1680214,-3.2546136,-1.1206323,10.112034
886,1715789486.0614698,4.254284,-0.63628775,2.1680214,-0.954706,-1.7913623,9.62151
887,1715789486.0788076,4.254284,-0.63628775,2.1680214,0.8644507,-2.155438,9.062568
888,1715789486.0804567,3.8039985,-0.08615221,1.7248136,2.6506207,-2.4040601,8.45659
889,1715789486.087592,3.8039985,0.20403185,1.5234663,3.6200638,-2.4034493,8.220184
890,1715789486.088626,3.6075323,0.20403185,1.5234663,3.6200638,-2.4034493,8.220184
891,1715789486.092491,3.6075323,0.20403185,1.5234663,5.825898,-1.4382823,7.157279
892,1715789486.093504,3.711989,1.1229379,0.66069347,5.825898,-1.4382823,7.157279
893,1715789486.1181228,3.711989,1.9298216,-1.2752296,4.9554152,-1.4975362,3.33143
894,1715789486.119169,3.658296,1.9298216,-1.2752296,4.9554152,-1.4975362,3.33143
895,1715789486.1255794,3.4608235,2.0621006,-1.747755,3.6768742,-1.6337591,2.0241783
896,1715789486.1390517,3.4608235,2.0047472,-1.9710674,3.6768742,-1.6337591,2.0241783
897,1715789486.1405737,3.0903444,2.0047472,-1.9710674,0.7337255,-1.2043208,0.21662809
898,1715789486.1500542,2.9068134,1.4836545,-1.1707731,-2.5118015,0.0070249503,-1.1425471
899,1715789486.1570597,2.9068134,1.4836545,-1.1707731,-2.9565115,0.28313604,-1.3337479
900,1715789486.1655326,2.9068134,1.4836545,-1.1707731,-2.9565115,0.28313604,-2.6104562
901,1715789486.166827,2.9636786,0.89986956,-0.010494461,-4.645554,1.9507982,-2.6104562
902,1715789486.1840284,2.9944298,0.7675905,0.5149913,-4.645554,1.9507982,-2.6104562
903,1715789486.1850288,2.9292667,0.6890041,1.0316606,-3.389004,1.8909334,-4.0594287
904,1715789486.1967528,3.0002873,0.67680126,1.1995718,-2.2356904,1.5897768,-4.5768313
905,1715789486.213761,3.1962652,0.6121261,1.1168364,-1.0170143,1.2043208,-5.200525
906,1715789486.2367902,3.4586267,0.53183126,0.7016951,0.15523612,0.3576616,-6.5218263
907,1715789486.253355,3.8257194,0.6428773,0.6733844,-0.032910366,-0.08093964,-7.467446
908,1715789486.2813609,4.028043,0.6987664,0.6985224,-0.22716552,0.109650314,-7.787539
909,1715789486.282361,4.102968,0.7334225,0.7199994,-0.39271,0.26053402,-8.044713
910,1715789486.2953644,4.070509,0.447601,0.87863666,-0.78427464,1.0125091,-9.0166
911,1715789486.3133683,3.7317572,0.21745501,1.1012168,-0.6187301,1.4731015,-9.369069
912,1715789486.3393984,3.7317572,0.21745501,1.1012168,0.007406741,1.9544634,-9.471695
913,1715789486.3419495,2.5465848,-0.42392743,1.2281265,3.084335,2.17804,-8.5431795
914,1715789486.353952,2.5063155,-0.5428138,0.94087124,3.084335,2.17804,-8.5431795
915,1715789486.3559525,2.5063155,-0.5428138,0.94087124,3.9615374,2.0552561,-8.364807
916,1715789486.379958,2.508512,-0.6348234,0.7588045,4.37998,1.9984456,-8.350146
917,1715789486.3819585,2.5617166,-0.96820563,0.28749946,4.9352565,1.6319265,-8.561505
918,1715789486.392961,2.6188257,-1.1265987,0.13911264,4.8540115,1.303281,-8.678792
919,1715789486.401963,2.6137006,-1.2583896,0.065407336,4.541249,0.872621,-8.772865
920,1715789486.4169664,2.6097956,-1.3801743,0.05686534,4.099593,0.5708536,-8.767978
921,1715789486.4399953,2.5343819,-1.5708134,0.17840585,3.2101731,0.44135013,-8.624425
922,1715789486.4425483,2.4147635,-1.7231051,0.29823795,3.2101731,0.44135013,-8.624425
923,1715789486.4435487,2.4147635,-1.7231051,0.29823795,2.517452,0.6954701,-8.441165
924,1715789486.4625523,2.2605193,-1.8775933,0.49079913,2.245006,0.9434814,-8.403292
925,1715789486.464553,1.978145,-1.990836,0.7429407,2.245006,0.9434814,-8.403292
926,1715789486.4705544,1.978145,-1.990836,0.7429407,2.3164773,1.0968086,-8.407567
927,1715789486.4715543,1.978145,-1.990836,0.7429407,2.7911196,1.0699304,-8.383743
928,1715789486.478556,1.5671526,-2.1826649,1.0516732,2.7911196,1.0699304,-8.383743
929,1715789486.4905586,1.5671526,-2.1826649,1.0516732,3.397098,0.9007208,-8.389853
930,1715789486.4925592,1.2954865,-2.3561897,1.1510044,4.8106403,0.4089743,-8.332431
931,1715789486.4945598,0.4412555,-2.998823,0.8896192,4.8106403,0.4089743,-8.332431
932,1715789486.5025613,-0.21184167,-3.7903314,0.27554062,5.3201017,0.28985557,-8.165054
933,1715789486.5165644,-0.8981612,-4.404867,-0.3619369,5.2303047,0.18661933,-7.6494837
934,1715789486.555148,-3.481324,-4.0746574,-1.4468019,-1.956525,0.034513887,6.631935
935,1715789486.5811534,-2.0686903,-3.704179,-0.9220788,-3.411606,1.0430524,9.345398
936,1715789486.597157,-2.0686903,-3.704179,-0.9220788,-4.8337,2.0796907,11.543291
937,1715789486.5991578,-0.9394069,-3.4610672,-0.49104318,-4.3016367,1.7479908,10.766882
938,1715789486.61016,0.84202796,-2.965631,0.16888762,-5.0554442,1.3814718,12.017934
939,1715789486.6211624,1.247163,-2.8484838,0.29482117,-4.658993,0.44012842,11.868272
940,1715789486.6301885,1.247163,-2.6517735,0.42148685,-4.658993,0.44012842,11.868272
941,1715789486.6321893,1.8292701,-2.6517735,0.42148685,-4.658993,0.44012842,11.868272
942,1715789486.6437433,2.0957806,-2.55171,0.4544346,-4.0230823,-0.623388,11.648972
943,1715789486.6617472,2.3676603,-2.3805954,0.50156814,-4.0230823,-0.623388,11.648972
944,1715789486.6627474,2.5070474,-2.322754,0.4795725,-3.8728094,-0.79198676,11.715555
945,1715789486.66475,2.5070474,-2.322754,0.4795725,-3.833103,-0.68019843,11.942798
946,1715789486.6717494,2.5070474,-2.322754,0.4795725,-3.9363394,-0.52626044,12.205469
947,1715789486.6727495,2.8811872,-2.3081105,0.48152497,-4.122042,-0.42546764,12.051532
948,1715789486.696755,3.7246795,-1.9610609,0.38780698,-4.3511167,-0.22693644,11.331932
949,1715789486.6987555,3.7917953,-1.8968738,0.37658033,-4.4256425,-0.19456059,11.178605
950,1715789486.7047567,3.8157132,-1.434599,0.0019524579,-4.4256425,-0.19456059,11.178605
951,1715789486.7057571,3.8157132,-1.434599,0.0019524579,-5.4494524,0.4615087,10.329502
952,1715789486.7177598,3.5394402,-1.3760253,-0.087616555,-5.4494524,0.4615087,10.329502
953,1715789486.71876,3.5394402,-1.3760253,-0.087616555,-6.548399,0.7693848,10.367987
954,1715789486.726786,3.422506,-1.3655308,0.35827604,-6.548399,0.7693848,10.367987
955,1715789486.7327871,3.422506,-1.3655308,0.35827604,-7.255781,0.50243664,10.718623
956,1715789486.7347834,3.4901104,-1.4177591,1.144415,-7.0432,-0.2764165,11.14745
957,1715789486.7433403,4.0858846,-1.4414326,2.6100397,-4.775668,-1.6172657,11.214646
958,1715789486.752342,4.7643943,-1.1868808,3.1535552,-1.0664943,-3.0039299,10.628826
959,1715789486.7693458,4.7643943,-0.86057633,3.0349436,2.1191678,-3.5756998,9.885404
960,1715789486.7713463,4.92474,-0.86057633,3.0349436,2.1191678,-3.5756998,9.885404
961,1715789486.772347,4.5857444,-0.46444094,2.2990801,4.9987864,-3.6343427,9.110215
962,1715789486.799353,3.9855769,0.3653537,-0.14423785,7.099552,-1.7681495,6.5073185
963,1715789486.8193572,3.9899697,0.56673145,-0.56770766,7.099552,-1.7681495,6.5073185
964,1715789486.8203573,3.9899697,0.56673145,-0.56770766,6.312758,-1.0680978,5.2574883
965,1715789486.832384,3.7764199,1.0160408,-0.8669218,5.6230907,-0.8335256,4.463974
966,1715789486.8343863,3.7764199,1.0160408,-0.8669218,4.177784,-0.6032294,3.0168343
967,1715789486.8569422,3.7764199,1.0160408,-0.8669218,4.177784,-0.6032294,0.6326273
968,1715789486.860943,3.4205537,1.2859682,-0.8532546,1.9035325,-0.6404922,0.6326273
969,1715789486.8719454,3.3339133,1.1671122,-0.7934606,0.64392835,-0.27030787,-0.6098726
970,1715789486.8799472,3.3339133,0.999689,-0.7617332,0.64392835,-0.27030787,-0.6098726
971,1715789486.8809474,3.292424,0.79907393,-0.6977902,-0.3346778,0.23426682,-1.5041794
972,1715789486.8829486,3.292424,0.79907393,-0.6977902,-1.2760211,0.7510588,-2.33068
973,1715789486.8949509,3.1840622,0.54354596,-0.4737151,-2.3071616,1.2006557,-3.3618205
974,1715789486.9119542,3.0264015,0.37755656,-0.02757847,-2.7060566,1.0974194,-4.0777545
975,1715789486.928982,2.9544046,0.33020946,0.33460248,-2.7060566,1.0974194,-4.0777545
976,1715789486.9299824,2.9973586,0.33948365,0.55916566,-2.1587214,0.4560109,-4.6366963
977,1715789486.9319828,3.101815,0.34778157,0.66777116,-2.1587214,0.4560109,-4.6366963
978,1715789486.932983,3.101815,0.34778157,0.66777116,-1.8196912,0.24709499,-4.8321733
979,1715789486.9445353,3.3732069,0.36388937,0.7163385,-1.2601386,-0.01740966,-5.331861
980,1715789486.955538,3.559697,0.43613032,0.5730769,-0.6981426,-0.29168814,-6.648886
981,1715789486.982544,3.27656,0.3133695,0.5452544,-0.5802456,-0.59895337,-8.356866
982,1715789486.9945464,3.2445884,0.12739788,0.64556193,-0.5509241,-0.48349985,-8.821734
983,1715789487.0035486,3.2445884,0.12739788,0.64556193,-0.40737075,-0.37293324,-8.992776
984,1715789487.0055494,3.199194,-0.01586372,0.71267766,-0.40737075,-0.37293324,-8.992776
985,1715789487.0265536,3.0561764,-0.15009521,0.76417375,-0.40737075,-0.37293324,-8.992776
986,1715789487.0275779,2.9033966,-0.2762728,0.79663336,0.350713,-0.015577064,-9.25667
987,1715789487.0451338,2.6915548,-0.3145898,0.714142,0.822301,0.07727446,-9.265223
988,1715789487.0471344,2.6915548,-0.3145898,0.714142,1.3311517,0.15790866,-9.229792
989,1715789487.0561361,2.6915548,-0.3145898,0.714142,1.7086664,0.21227567,-9.30615
990,1715789487.059137,2.704978,-0.44418418,0.6316506,1.7086664,0.21227567,-9.30615
991,1715789487.0691392,2.539019,-0.4698102,0.5530642,1.9230802,0.24465153,-9.303096
992,1715789487.0881436,2.594176,-0.7712514,0.55916566,2.24073,0.29352075,-9.279883
993,1715789487.0951452,2.594176,-0.7712514,0.55916566,2.24073,0.29352075,-9.37701
994,1715789487.0961452,2.6141887,-1.0445955,0.56063,2.4850762,0.25320363,-9.37701
995,1715789487.113149,2.590271,-1.2701045,0.57063633,2.631073,0.07666359,-9.420382
996,1715789487.1151495,2.590271,-1.2701045,0.57063633,2.7428613,-0.07360926,-9.389228
997,1715789487.1211507,2.493838,-1.5183411,0.6048044,2.7428613,-0.07360926,-9.389228
998,1715789487.1291766,2.3483799,-1.7272543,0.66313404,2.8625908,-0.20677789,-9.231014
999,1715789487.139179,2.3483799,-1.7272543,0.66313404,3.047683,-0.49021935,-8.85411
1000,1715789487.1417053,2.0477014,-1.9710674,0.7509947,3.047683,-0.49021935,-8.85411
