id,timestamp,acc_x,acc_y,acc_z,gyro_x,gyro_y,gyro_z
0,1715789456.262183,-0.18231077,0.25015867,1.0148206,0.8149706,-1.0601566,0.07002043
1,1715789456.2821865,-0.14570218,0.2306341,1.0607033,0.717843,-0.8854492,0.024816401
2,1715789456.285073,-0.12056428,0.19353738,1.1636955,0.7624362,-0.64843345,-0.13523029
3,1715789456.2982311,-0.12056428,0.19353738,1.1636955,0.7624362,-0.64843345,-0.28367054
4,1715789456.3003173,-0.13471961,0.15936938,1.2535084,0.89499396,-0.59895337,-0.28367054
5,1715789456.3142967,-0.11836776,0.12715383,1.2083579,1.0018953,-0.46578476,-0.598877
6,1715789456.3163612,-0.16815543,0.12178457,1.0482564,1.0018953,-0.46578476,-0.598877
7,1715789456.3243728,-0.23331872,0.02391761,0.93891877,0.23342688,-0.7443393,-0.39118284
8,1715789456.3458376,-0.20012695,0.13716017,1.1175686,-0.63278,-1.5231925,0.0046578473
9,1715789456.3538303,-0.20012695,0.13716017,1.1175686,-1.2277628,-2.2837198,0.12744176
10,1715789456.3568504,-0.053204484,0.07541369,1.2845038,-1.5680147,-2.9000828,0.20257819
11,1715789456.3882666,-0.053204484,0.07541369,1.2845038,-1.5680147,-2.7070494,-0.13217597
12,1715789456.39076,0.27871338,0.23868799,1.01238,-1.6284903,-1.8774943,-0.26412287
13,1715789456.3934214,0.2403964,0.3909797,1.2273945,-1.434846,-1.1328496,-0.381409
14,1715789456.407341,0.2403964,0.3909797,1.2273945,-1.0487792,-0.3454443,-0.4657084
15,1715789456.4097378,0.15033926,0.3397277,1.2283707,-1.0487792,-0.3454443,-0.4657084
16,1715789456.4184878,0.027334413,0.12032023,1.1734577,-0.14714217,0.70402217,-0.3636939
17,1715789456.4268718,0.018060237,0.052716363,0.923055,-0.14714217,0.70402217,-0.3636939
18,1715789456.429266,0.018060237,0.052716363,0.923055,0.41118866,1.566564,-0.25557074
19,1715789456.4437633,0.0078098318,0.08786061,1.0367857,0.41485387,0.52564955,-0.12851077
20,1715789456.4711487,0.20159128,0.10323621,0.9345257,0.27740917,-0.4999932,-0.19448422
21,1715789456.4725928,0.0102504045,0.42099872,0.79687744,-0.19478965,-3.9971967,-1.3771193
22,1715789456.4882405,-0.09152147,0.7514828,0.59406585,-0.864298,-4.6062293,-2.0649536
23,1715789456.5088246,-0.09152147,0.7514828,0.8747317,-0.864298,-4.6062293,-2.0649536
24,1715789456.5118337,-0.61188203,0.70999306,0.999689,-1.1966087,-0.7272351,-1.6422348
25,1715789456.5138307,-0.61188203,0.70999306,0.999689,-0.8178722,0.24770586,-0.53107095
26,1715789456.5293682,-0.61188203,0.70999306,1.0001771,-1.3755922,-0.50610185,-0.3093269
27,1715789456.5333695,-0.17206036,0.005857374,1.0001771,-1.3755922,-0.50610185,-0.3093269
28,1715789456.5357158,0.27090356,-0.14570218,1.1683326,-1.5869515,-0.043676864,-0.24335344
29,1715789456.5470948,0.27090356,-0.14570218,1.5337168,-1.1727849,-0.5653558,-0.13950635
30,1715789456.5504851,0.40781966,0.048323333,1.5337168,-1.1727849,-0.5653558,-0.13950635
31,1715789456.5521777,0.08127106,0.28871974,1.4321585,-0.010919216,-2.4627032,0.34429893
32,1715789456.5692513,0.08127106,0.28871974,1.4321585,-0.010919216,-4.3142357,0.31375566
33,1715789456.5722516,0.110557936,-0.026114125,1.0311724,1.0788643,-4.3142357,0.31375566
34,1715789456.5745785,0.2928687,0.06296677,0.45638704,1.3659711,-6.352693,-0.3093269
35,1715789456.5835674,0.2928687,0.06296677,0.45638704,1.3659711,-6.352693,-0.26900977
36,1715789456.586078,0.692665,-0.107385196,0.34558508,1.4979179,-6.0478716,-0.26900977
37,1715789456.5973382,0.27187976,-0.35461518,0.22355644,1.63353,-5.2800136,-0.16271923
38,1715789456.6062453,0.35022214,-0.24527754,0.22135992,2.154598,-5.5481834,-0.1175152
39,1715789456.614886,0.35022214,-0.28579104,0.17498904,3.029968,-6.807177,-0.29894218
40,1715789456.6180198,0.4600479,-0.28579104,0.17498904,3.029968,-6.807177,-0.29894218
41,1715789456.6212277,0.31190515,-0.5738091,-0.19256116,4.345161,-8.4333,-0.69111764
42,1715789456.644195,0.053204484,-0.6992545,-0.56502306,4.345161,-8.4333,-0.69111764
43,1715789456.6471534,-0.19158493,-0.80786,-0.7273211,5.419062,-10.860268,-0.71433055
44,1715789456.6600416,-0.44052333,-0.9884624,-0.7873592,5.7299924,-11.686157,-0.3111595
45,1715789456.6799307,-0.38268176,-1.127331,-0.8010264,5.7299924,-11.686157,-0.3111595
46,1715789456.682237,-0.21525851,-1.1946907,-0.7263449,5.884541,-11.580478,0.87269735
47,1715789456.6840007,-0.028066583,-1.1795592,-0.6399486,5.6982274,-10.7497015,1.5214362
48,1715789456.7070365,0.24723,-1.0216541,-0.57673776,5.048267,-8.224384,2.7266734
49,1715789456.738049,0.65019906,-0.7597807,-0.67948586,3.3531158,-4.4474044,4.1310525
50,1715789456.7400308,0.6550802,-0.6980342,-0.78198993,2.403831,-2.9678888,4.699157
51,1715789456.7510734,0.7878473,-0.641657,-0.8984052,2.403831,-2.9678888,4.699157
52,1715789456.7520757,0.7878473,-0.641657,-0.8984052,1.4441618,-1.7705929,5.2012887
53,1715789456.7547445,0.939895,-0.6155429,-0.90011364,0.2083814,-0.70524395,5.708307
54,1715789456.7623239,1.3906687,-0.46273252,-0.7426967,-0.5606979,-0.21105394,5.9685354
55,1715789456.773844,2.4550328,-0.117147475,-0.34851375,-2.1636083,0.31245756,5.793828
56,1715789456.7894468,3.0217643,0.2853029,-0.20574026,-2.7610345,0.6221663,4.973436
57,1715789456.8030448,3.0217643,0.2853029,-0.20574026,-3.4134386,1.1108584,4.2629995
58,1715789456.8054655,3.212861,1.0792516,-0.41416514,-4.672432,1.951409,3.6105955
59,1715789456.8129666,3.5655541,1.5156566,-0.6070009,-6.59116,2.9666672,2.9074895
60,1715789456.8211346,3.5655541,1.5156566,-0.6070009,-8.404819,3.987423,2.1628447
61,1715789456.823392,3.806927,1.5871652,-0.6472703,-8.404819,3.987423,2.1628447
62,1715789456.8326569,4.288696,1.7152953,-0.36266908,-10.294836,5.3368244,0.933173
63,1715789456.8467524,4.3387275,1.5954633,0.38878322,-11.28627,6.1382794,-0.51030153
64,1715789456.8656309,4.3387275,1.5954633,0.38878322,-10.183047,5.415626,-2.9769754
65,1715789456.8685107,3.9016213,1.5266391,2.2666206,-10.183047,5.415626,-2.9769754
66,1715789456.8792703,3.3304965,1.6904016,3.0276217,-7.910629,4.195728,-3.8218021
67,1715789456.886896,3.3317173,1.901023,3.079606,-5.479385,3.6599991,-4.1608324
68,1715789456.905359,3.3317173,1.901023,3.079606,-5.479385,3.6599991,-4.6483026
69,1715789456.908193,3.8786798,1.8341513,2.4972851,-3.062802,4.1706824,-5.2383986
70,1715789456.9153738,3.747377,1.6208452,2.2793117,-3.062802,4.1706824,-5.2383986
71,1715789456.9168928,3.747377,1.6208452,2.2793117,-2.4592671,5.0814824,-5.8315487
72,1715789456.9189088,3.3458724,1.3828589,2.3820598,-1.8300759,5.87744,-6.025804
73,1715789456.9374003,3.054956,1.098044,2.6727624,-0.728075,6.28,-6.12171
74,1715789456.9755518,2.6742268,0.11373068,2.6302965,2.7544677,5.703954,-6.4344726
75,1715789456.9775507,2.242459,-0.46541715,2.3120153,5.214422,4.5640798,-6.513885
76,1715789456.9805524,1.990592,-1.0919427,1.8368357,7.9480443,2.4058928,-6.578026
77,1715789456.9876814,1.990592,-1.0919427,1.8368357,9.573557,0.4896085,-6.6586604
78,1715789456.990245,1.757029,-1.7638626,1.2100663,9.573557,0.4896085,-6.6586604
79,1715789457.0081952,1.757029,-1.7638626,1.2100663,10.4306,-0.6044512,-6.759453
80,1715789457.0104587,1.4236165,-2.3891375,0.15888128,10.658453,-1.6612481,-6.8657436
81,1715789457.0378425,1.4370396,-2.6483567,-0.12886222,10.288879,-2.0851886,-7.043505
82,1715789457.0402918,1.289873,-2.9448862,-0.95331806,7.744015,-1.1914927,-7.9414773
83,1715789457.070295,-0.5298788,-2.9663632,-0.7761325,1.7214947,1.3405437,-6.559089
84,1715789457.0723004,-1.0614355,-2.9236534,-0.17816179,1.7214947,1.3405437,-6.559089
85,1715789457.1012142,-1.0614355,-2.9236534,0.42612398,2.1081724,1.4242324,-4.5939355
86,1715789457.1034431,-1.5012572,-2.8528767,0.42612398,2.1081724,1.4242324,-4.5939355
87,1715789457.1106834,-1.4895118,-2.7367055,0.2801777,2.6017513,1.3313808,-3.6104426
88,1715789457.1304502,-1.6001004,-2.5744073,-0.23356278,2.6017513,1.3313808,-3.6104426
89,1715789457.1324534,-1.6969911,-2.504851,-0.42661208,2.0159316,0.72356987,-0.103465304
90,1715789457.133756,-1.8116981,-2.3862088,-0.6040722,2.0159316,0.72356987,-0.103465304
91,1715789457.160449,-1.8116981,-2.3862088,-0.6040722,2.0159316,0.72356987,1.3998741
92,1715789457.1614895,-1.6362208,-2.276139,-0.66874737,0.8534551,0.71685034,2.6478717
93,1715789457.1699743,-1.6362208,-2.276139,-0.66874737,0.06299548,0.7663304,4.4945173
94,1715789457.172423,-1.3274579,-2.3200693,-0.6018757,-0.3658319,0.68386364,5.593464
95,1715789457.2153008,-1.3274579,-2.3200693,-0.6018757,-1.3529902,0.32895094,8.617858
96,1715789457.217334,1.6994317,-2.628588,0.077122085,-1.7005725,-0.3631594,10.31362
97,1715789457.2192285,2.6466484,-2.5663533,0.19231711,-1.7005725,-0.3631594,10.31362
98,1715789457.2261806,2.6466484,-2.5663533,0.19231711,-1.7005725,-0.3631594,10.602559
99,1715789457.2283745,2.6466484,-2.5663533,0.19231711,-1.6700292,-0.6392705,10.602559
100,1715789457.2356434,3.4227505,-2.4457586,0.06882414,-1.6535358,-0.8713993,10.637379
101,1715789457.247378,3.5365117,-2.122627,-0.20818083,-1.9369774,-0.54336464,10.570183
102,1715789457.267274,3.258988,-1.8976061,-1.0358094,-3.9613848,0.9263771,11.458382
103,1715789457.2755246,3.258988,-1.8976061,-1.0358094,-7.0499196,1.8585575,12.113229
104,1715789457.2768779,3.8462203,-2.0149977,-1.1541772,-7.0499196,1.8585575,12.113229
105,1715789457.285995,3.8462203,-2.0149977,-1.1541772,-7.0499196,1.303281,11.484649
106,1715789457.2880738,4.789044,-1.9166427,0.16254212,-8.00348,1.303281,11.484649
107,1715789457.3024898,4.789044,-1.9166427,0.16254212,-8.00348,1.303281,10.3069
108,1715789457.3056374,4.9313293,-1.3801743,1.2454547,-6.914307,0.011911872,9.941603
109,1715789457.3074424,4.4195104,-1.0116477,1.0236065,-6.914307,0.011911872,9.941603
110,1715789457.3301044,4.445869,-0.7937047,1.0175052,-6.594214,-0.56291234,9.710085
111,1715789457.3325267,5.3030286,-0.036120474,2.1077394,-3.2637765,-2.3747387,7.4175076
112,1715789457.334417,5.5788436,0.83104545,2.0979772,-3.2637765,-2.3747387,7.4175076
113,1715789457.353222,5.694771,1.8080372,1.8177994,-3.2637765,-2.3747387,7.4175076
114,1715789457.3546062,5.694771,1.8080372,1.8177994,-2.2405775,-1.8891008,5.676542
115,1715789457.3566177,5.600321,2.564645,1.409461,-2.0719786,-1.2971723,3.9783363
116,1715789457.372221,5.600321,2.564645,1.409461,-2.0719786,0.043066,1.3913219
117,1715789457.3743916,4.6604257,3.1386676,0.35437113,-4.482453,1.4749341,-0.5066364
118,1715789457.3826823,4.0170603,2.7623315,0.71267766,-4.482453,1.4749341,-0.5066364
119,1715789457.3850474,4.0170603,2.7623315,0.71267766,-5.3828683,2.4559836,-2.2610414
120,1715789457.4132254,3.543589,2.3713212,1.2935339,-5.3828683,2.4559836,-2.2610414
121,1715789457.4152331,3.2951086,2.1580153,1.7577612,-4.368832,2.4663684,-4.1730494
122,1715789457.4167497,3.2936442,1.9915682,1.9281132,-2.6248116,1.8585575,-4.7765846
123,1715789457.435242,4.184972,1.867831,0.93891877,-1.0176251,1.0693196,-6.210896
124,1715789457.4465652,4.598679,1.6684363,0.52646196,-1.1257483,1.0589349,-7.044116
125,1715789457.4611773,4.598679,1.6684363,0.52646196,-1.516702,0.9263771,-7.725842
126,1715789457.4631817,4.982337,1.2820632,0.3699908,-1.8783343,1.493871,-8.567615
127,1715789457.4813504,4.3465376,0.64385355,1.1390457,-1.0157925,2.1010711,-9.719095
128,1715789457.4974055,3.8323088,0.24332508,1.2049412,0.3140611,2.3558018,-9.968939
129,1715789457.516036,3.5880077,-0.012690976,0.9611279,1.1918745,2.2592852,-10.051406
130,1715789457.5186725,3.3458724,-0.46590528,0.57795805,2.259056,2.0412061,-10.405097
131,1715789457.5254643,2.632493,-1.0209221,0.20940112,3.1246521,1.6777414,-10.735575
132,1715789457.533859,1.8932132,-1.4331347,0.082491346,3.6994762,1.0467176,-10.705031
133,1715789457.5475318,1.8932132,-1.4331347,0.19256116,4.1967206,0.14874569,-10.428309
134,1715789457.5496027,1.3262376,-1.6801511,0.19256116,4.1967206,0.14874569,-10.428309
135,1715789457.5622184,1.3262376,-1.6801511,0.19256116,4.1967206,-0.6398814,-9.964052
136,1715789457.563589,0.8842499,-1.7792383,0.23673552,4.629824,-0.6398814,-9.964052
137,1715789457.566085,0.4698102,-1.790953,0.0353883,4.7703233,-1.2635747,-9.082574
138,1715789457.5747874,0.4698102,-1.7416537,-0.20110317,4.3103414,-1.1102476,-8.2719555
139,1715789457.5772126,0.3133695,-1.7416537,-0.20110317,4.3103414,-1.1102476,-8.2719555
140,1715789457.594773,0.31263736,-1.756785,-0.27920148,2.57243,0.52564955,-6.6433887
141,1715789457.6039155,0.31263736,-1.756785,-0.27920148,1.9493474,1.312444,-6.197457
142,1715789457.6060417,0.33411437,-1.9271369,-0.17035197,1.9493474,1.312444,-6.197457
143,1715789457.6263268,0.26162934,-2.12702,-0.032215554,1.5962672,1.924531,-5.8468204
144,1715789457.6468349,0.26162934,-2.12702,-0.032215554,1.3262649,2.3087652,-5.4833555
145,1715789457.647839,-0.44906533,-3.2799768,-0.38316986,0.84001607,2.2305744,-4.9580116
146,1715789457.650375,-0.87204707,-3.505028,-0.49641246,0.84001607,2.2305744,-4.9580116
147,1715789457.6517205,-0.87204707,-3.505028,-0.49641246,0.60300034,2.1157317,-4.569501
148,1715789457.653011,-1.336244,-3.7456686,-0.5926015,0.60300034,2.1157317,-4.569501
149,1715789457.6669478,-1.336244,-3.7456686,-0.5926015,0.60300034,1.8463402,-3.6562576
150,1715789457.668281,-1.999866,-4.029263,-0.47151858,-0.44768786,1.466382,-1.8517616
151,1715789457.6705406,-2.3554575,-4.0905213,-0.32996538,-0.7971028,1.4547756,0.15798502
152,1715789457.6830497,-2.4074416,-4.033168,-0.08151512,-0.92782795,1.5036448,2.0974822
153,1715789457.7308257,-1.8439136,-3.687095,0.23136626,-0.5839108,1.5170839,5.633781
154,1715789457.7328284,-0.44027928,-2.9578214,0.08078295,0.12896892,1.1823297,9.018585
155,1715789457.7478304,0.4339338,-2.747444,-0.05051985,0.21571179,0.82558435,9.583635
156,1715789457.7628329,0.4339338,-2.2322085,-0.28408262,0.13446671,0.030848695,9.686261
157,1715789457.7658353,1.7367723,-2.2322085,-0.28408262,0.13446671,0.030848695,9.686261
158,1715789457.7678354,2.0738153,-1.8817425,-0.16498269,-0.012751812,0.113926366,9.74185
159,1715789457.779839,1.8944334,-1.7714285,-0.10860548,-0.12698361,0.61666846,10.247035
160,1715789457.7978392,2.008652,-1.6642874,-0.29482117,-0.12698361,0.61666846,10.247035
161,1715789457.7998397,2.8167562,-1.7282305,-0.45907167,-1.1074224,0.93492925,12.215243
162,1715789457.8168988,3.799117,-1.7406774,-0.41123646,-1.1074224,0.93492925,12.215243
163,1715789457.8201687,3.799117,-1.7406774,-0.41123646,-1.6248252,0.9550878,12.453481
164,1715789457.822283,5.145367,-1.6808833,-0.009030119,-1.8905516,0.9056077,11.572613
165,1715789457.8361003,4.9925876,-1.2600981,0.6421451,-1.2387583,0.2770274,10.666699
166,1715789457.8371108,4.7158265,-0.97601545,0.63726395,-0.53381985,-0.26419923,10.93487
167,1715789457.844598,4.7158265,-0.97601545,0.63726395,-0.23938282,-0.27091873,11.30261
168,1715789457.8459005,5.2569013,-0.78101367,0.11324256,-0.23938282,-0.27091873,11.30261
169,1715789457.8536453,5.729427,-0.5657552,-0.37316352,-0.5509241,-0.030848695,11.319715
170,1715789457.8738945,6.3415227,-0.28676724,-0.7592926,-0.5509241,-0.030848695,11.319715
171,1715789457.8765192,6.693971,-0.012202863,-0.48445365,-3.0731866,0.79504114,9.327683
172,1715789457.8828366,6.67762,0.63579965,0.61895967,-3.2698853,0.30390546,8.0521965
173,1715789457.8961651,6.5668178,1.5617833,1.2879206,-2.3523657,-0.41691554,6.5708485
174,1715789457.9158337,6.2253513,2.769165,0.4685899,-1.2894602,-0.5720753,3.371747
175,1715789457.9304693,5.369168,3.152335,-0.41245672,-3.7824013,1.4419475,-1.4956272
176,1715789457.9314744,4.3116374,3.0183475,-0.513527,-3.7824013,1.4419475,-1.4956272
177,1715789457.9529538,4.3116374,3.0183475,0.32166746,-4.476344,2.3521366,-2.838309
178,1715789457.9554172,2.9151113,2.2734542,0.32166746,-4.3743296,1.9758437,-3.8657844
179,1715789457.9746528,2.199261,1.9771688,0.62701356,-1.3456597,0.75411314,-5.57132
180,1715789457.9838314,2.909986,1.6650196,0.39586085,-0.35850155,-0.0852157,-6.2261677
181,1715789458.0035934,3.5738525,1.569349,-0.47103047,0.04772385,-0.26908615,-6.8492503
182,1715789458.0171158,3.5738525,1.2398413,-0.83080137,-0.25465444,0.53969944,-8.516912
183,1715789458.0191424,3.6312058,1.2398413,-0.83080137,-0.25465444,0.53969944,-8.516912
184,1715789458.0211408,3.7327337,0.9452642,-0.81786627,-0.25465444,0.53969944,-8.516912
185,1715789458.0438213,3.8325531,0.5803986,-0.6318947,-1.0506119,0.9251554,-9.334861
186,1715789458.057436,3.7886226,0.049299564,-0.22233616,-1.1654545,0.49327368,-9.871812
187,1715789458.073718,3.7886226,0.049299564,-0.22233616,-0.85696757,0.2947425,-10.502224
188,1715789458.0765157,3.3197582,-0.7668584,0.20329969,-0.85696757,0.2947425,-10.502224
189,1715789458.0864863,3.3197582,-1.2205608,0.4795725,-0.33223432,0.17379116,-10.64028
190,1715789458.0884979,3.0100496,-1.2205608,0.4795725,-0.33223432,0.17379116,-10.64028
191,1715789458.0995085,2.5931997,-1.6318277,0.6809502,0.33971745,-0.051618114,-10.666547
192,1715789458.1084182,2.5931997,-1.6318277,0.6809502,0.33971745,-0.4541783,-10.494894
193,1715789458.1114078,2.17876,-1.854652,0.8024908,1.0324386,-0.4541783,-10.494894
194,1715789458.1178985,2.17876,-1.854652,0.7707633,1.6604081,-0.9801333,-10.156475
195,1715789458.1205807,1.8046203,-1.9959611,0.7707633,1.6604081,-0.9801333,-10.156475
196,1715789458.1227443,1.8046203,-1.9959611,0.7707633,2.2114086,-1.6362026,-9.457644
197,1715789458.1237433,1.3184278,-2.1199422,0.5745413,2.2114086,-1.6362026,-9.457644
198,1715789458.146209,0.9865099,-2.1846173,0.40440285,2.2114086,-1.6362026,-9.457644
199,1715789458.1483161,0.66362214,-2.2592988,0.31703037,2.2468388,-1.6930131,-8.1058
200,1715789458.1683965,-0.22160399,-2.4945703,0.16791138,1.8870391,-1.4413365,-7.2689147
201,1715789458.1762345,-1.2725451,-2.7096152,0.14911897,1.3238213,-1.4315627,-6.3251276
202,1715789458.1854584,-1.2725451,-2.7096152,0.12007617,1.0293843,-1.2794572,-5.6012526
203,1715789458.1875625,-1.9383637,-2.84165,0.12007617,1.0293843,-1.2794572,-5.6012526
204,1715789458.198122,-2.7533014,-3.0495868,0.08859278,0.6109416,-0.65026605,-3.5127041
205,1715789458.205765,-3.0542238,-3.1808896,0.059794027,0.46861,-0.19517145,-2.040519
206,1715789458.2141259,-3.0542238,-3.1808896,0.059794027,0.4014148,0.35033122,0.41393757
207,1715789458.216394,-3.2135935,-3.3226867,0.03294773,0.4014148,0.35033122,0.41393757
208,1715789458.2292783,-3.059349,-3.3749151,-0.011470691,0.5022076,0.7431176,3.2679
209,1715789458.2307837,-3.059349,-3.3749151,-0.011470691,0.49487722,0.9275989,5.4419694
210,1715789458.2329035,-2.4906654,-3.3536823,-0.25211114,0.49487722,0.9275989,5.4419694
211,1715789458.2609303,-0.8422721,-3.4176252,-0.7051119,-0.45318565,1.3307699,8.561658
212,1715789458.2761648,0.1867038,-3.3898025,-0.824944,-0.45318565,1.3307699,8.561658
213,1715789458.2786875,0.84129584,-3.305847,-0.76148915,-2.34137,1.3753631,9.788886
214,1715789458.2966735,1.5525092,-2.8911936,-0.20476402,-3.4739144,0.93431836,9.581192
215,1715789458.3070905,1.4255689,-2.6830127,0.16864355,-3.3969452,0.81031275,9.521328
216,1715789458.3209012,1.4255689,-2.6830127,0.16864355,-3.3969452,-0.01985312,10.298959
217,1715789458.3232894,1.4111695,-2.422573,0.97674763,-1.5973363,-0.01985312,10.298959
218,1715789458.3463392,2.071863,-2.2444115,1.1368492,0.1277472,-1.0454959,10.2946825
219,1715789458.3484702,2.6224866,-1.9549595,1.0109156,2.0067687,-1.9220876,9.873796
220,1715789458.356754,2.8306675,-1.8192637,0.6838789,3.423365,-2.4480424,9.398543
221,1715789458.3660924,2.8306675,-1.8192637,-0.30336314,4.538805,-2.518292,8.854262
222,1715789458.3673186,3.0051684,-1.442653,-0.30336314,4.538805,-2.518292,8.854262
223,1715789458.3748283,3.0051684,-1.442653,-0.30336314,4.538805,-2.518292,8.85915
224,1715789458.3781316,2.9331715,-1.2420379,-1.0477682,4.327446,-2.087021,8.85915
225,1715789458.3901975,2.8741097,-1.0602151,-1.6308515,3.3280702,-1.3857478,9.568975
226,1715789458.400682,3.2614286,-0.83421814,-2.046237,1.4380531,-0.355829,10.755276
227,1715789458.407569,3.7346861,-0.63799614,-2.0638092,0.22059871,0.22937989,11.411345
228,1715789458.4160988,3.7346861,-0.63799614,-1.6789309,-2.6168704,1.4792101,11.547567
229,1715789458.4179537,6.715937,-0.41562948,-1.6789309,-2.6168704,1.4792101,11.547567
230,1715789458.4257145,6.715937,0.25552794,-1.0646082,-3.8984656,1.9086485,9.562866
231,1715789458.4278886,7.9757905,0.25552794,-1.0646082,-3.8984656,1.9086485,9.562866
232,1715789458.4355688,7.9950714,1.4865832,-0.08859278,-4.517272,1.8524488,6.277633
233,1715789458.4521816,7.9950714,1.4865832,0.54867125,-4.525824,1.6673567,3.688786
234,1715789458.4538236,6.352017,2.224643,0.72366023,-4.450688,1.3729197,2.1133647
235,1715789458.4776282,6.352017,2.224643,0.72366023,-4.403651,1.0082331,0.8439867
236,1715789458.4794416,5.0860615,1.8751528,0.7741801,-4.386547,0.86467975,0.19341521
237,1715789458.4977312,4.742917,1.5676408,1.1470995,-4.018195,1.258077,-1.5255595
238,1715789458.5054328,4.742917,1.5676408,1.1470995,-3.1293862,1.5042557,-2.4320836
239,1715789458.5074332,4.2777133,1.5334727,1.5202936,-3.1293862,1.5042557,-2.4320836
240,1715789458.514688,3.8559825,1.5232222,1.5925345,-3.1293862,1.5042557,-2.4320836
241,1715789458.5159724,3.8559825,1.5232222,1.5925345,-2.0933588,1.3808609,-3.0753248
242,1715789458.517802,3.5553038,1.504918,1.3987225,-2.0933588,1.3808609,-3.0753248
243,1715789458.5199027,3.5553038,1.504918,1.3987225,-1.0964267,1.1261301,-3.5737908
244,1715789458.546138,3.580442,1.3760253,0.69534963,-0.04757113,0.67103547,-4.424115
245,1715789458.547948,3.4891338,1.3106179,-0.10201593,-0.022525655,-0.37843102,-6.0331345
246,1715789458.57045,3.058861,1.1314799,-0.27895743,-0.17707457,-0.44012842,-6.516329
247,1715789458.5736368,2.744271,0.8774163,-0.1889003,-0.4452444,-0.052839845,-7.196222
248,1715789458.5885735,2.4645512,0.77247167,-0.17352471,-0.28214338,0.47616947,-7.3929205
249,1715789458.6077423,2.4523482,0.35363895,-0.10982577,0.07032586,1.0216721,-7.607334
250,1715789458.6113474,2.4118347,0.22184804,-0.14008886,0.23953554,1.0809261,-7.737448
251,1715789458.6134858,2.5019224,0.04881145,-0.200371,0.23953554,1.0809261,-7.737448
252,1715789458.6203585,2.5019224,0.04881145,-0.200371,0.23953554,1.2098186,-8.023334
253,1715789458.6214325,2.5019224,0.04881145,-0.200371,0.6793585,1.4816537,-8.453993
254,1715789458.6238213,2.2153685,-0.34851375,-0.2848148,0.6793585,1.4816537,-8.453993
255,1715789458.6496842,2.0303733,-0.5657552,-0.18548352,0.88583094,1.7779233,-8.538293
256,1715789458.651993,1.9962053,-0.71853507,-0.15546446,1.1356748,1.8353447,-8.4252825
257,1715789458.6598394,2.2602751,-0.88620234,-0.24088451,1.2731196,1.7162259,-8.40268
258,1715789458.6662295,2.551954,-1.1859046,-0.26504618,1.3775775,1.4566082,-8.632977
259,1715789458.6844025,2.4823673,-1.4795055,-0.12861817,1.565724,0.9593639,-9.078298
260,1715789458.686486,2.25515,-1.6999198,0.030019043,1.8222874,0.5757405,-9.275607
261,1715789458.697868,1.9793652,-1.8841829,0.16303024,2.1173353,0.14813483,-9.26339
262,1715789458.713126,1.7501955,-1.9615492,0.2072046,2.1173353,0.14813483,-9.26339
263,1715789458.7156422,1.7501955,-1.9615492,0.2072046,2.3830616,-0.23060162,-9.180312
264,1715789458.7171745,1.4350871,-2.0955365,0.23722363,2.6029732,-0.6044512,-9.008658
265,1715789458.7233305,1.4350871,-2.0955365,0.23722363,2.6029732,-0.6044512,-8.597547
266,1715789458.7248042,0.9372103,-2.1763196,0.41050428,2.9737685,-1.244027,-8.597547
267,1715789458.7393894,0.9372103,-2.1763196,0.41050428,2.9737685,-1.6197093,-8.452771
268,1715789458.7406898,0.5462307,-2.3090868,0.460536,3.2425492,-1.6197093,-8.452771
269,1715789458.7625444,0.5462307,-2.3090868,0.460536,3.1344259,-2.7210991,-6.995247
270,1715789458.7649052,-0.9191501,-2.7972317,0.17547716,3.1344259,-2.7210991,-6.995247
271,1715789458.7672596,-1.5276153,-3.1020591,-0.057841565,3.1344259,-2.7210991,-6.995247
272,1715789458.795239,-3.82816,-3.4881577,-0.38048524,0.7441102,-2.908024,-0.7699193
273,1715789458.808301,-3.8945436,-3.3680816,-0.208913,0.07887798,-2.2886066,1.5709163
274,1715789458.8219402,-2.5417037,-3.1667342,0.011226633,-1.3572662,0.90194255,7.20065
275,1715789458.8335047,-1.5063823,-3.2301893,0.13105874,-1.8673387,2.0350976,9.038744
276,1715789458.8530025,-1.5063823,-3.2472732,0.2037878,-2.0689242,2.3057108,10.098596
277,1715789458.856135,-0.6001673,-3.2472732,0.2037878,-2.0426571,2.0576997,10.572016
278,1715789458.8573365,0.049299564,-3.2057836,0.23722363,-2.0426571,2.0576997,10.572016
279,1715789458.8663518,0.049299564,-3.0637422,0.24137263,-1.7274506,1.2562444,10.872561
280,1715789458.868761,0.90963185,-3.0637422,0.24137263,-1.7274506,1.2562444,10.872561
281,1715789458.8802555,0.90963185,-3.0637422,0.24137263,-1.7274506,1.2562444,10.922652
282,1715789458.8824399,1.590094,-2.7786834,0.16620298,-0.8783479,-0.5329799,10.978852
283,1715789458.8835557,1.9583764,-2.5958846,0.02391761,-0.8783479,-0.5329799,10.978852
284,1715789458.9019175,1.9583764,-2.5958846,0.02391761,-0.8783479,-0.6301075,11.088197
285,1715789458.9039667,2.2053623,-2.353261,-0.09859913,-0.7934376,-0.6301075,11.088197
286,1715789458.9055977,2.217565,-2.217565,-0.12813005,-0.8649088,-0.37048978,11.312385
287,1715789458.9274628,2.217565,-2.217565,-0.12813005,-0.8649088,0.52626044,11.294059
288,1715789458.930463,3.3041387,-1.9434888,-0.09200958,-1.4525611,0.52626044,11.294059
289,1715789458.9317672,3.306091,-1.7843635,-0.0012202862,-1.4800501,0.61422503,10.994735
290,1715789458.9494157,2.9885726,-1.7233493,0.0353883,-1.462335,0.74372846,10.658758
291,1715789458.9563112,2.846287,-1.8534318,0.025870068,-1.4330136,0.895223,10.755886
292,1715789458.9649947,2.846287,-1.8534318,0.025870068,-1.2289845,0.818254,10.730229
293,1715789458.9669755,3.0778975,-1.9542273,0.18011424,-1.2289845,0.818254,10.730229
294,1715789458.973584,3.450817,-1.8263415,0.6001673,-0.18807013,0.1957823,10.567129
295,1715789458.984877,3.5489585,-1.5786233,0.6338472,1.1332314,-0.4792238,10.683193
296,1715789459.0069473,3.5489585,-1.5786233,-0.07272906,2.7630198,-0.8524625,11.051545
297,1715789459.009044,4.4117007,-1.0526494,-0.07272906,2.7630198,-0.8524625,11.051545
298,1715789459.0161035,5.181488,-0.63506746,-0.36681804,3.0305789,-0.95203346,10.396087
299,1715789459.0254786,5.181488,-0.63506746,-0.36681804,3.1411455,-1.4089607,8.0839615
300,1715789459.0281205,5.7006283,0.27358818,-0.62091213,3.1411455,-1.4089607,8.0839615
301,1715789459.048511,5.7006283,0.27358818,-0.94038314,1.7153859,-2.6160305,4.6087494
302,1715789459.0512643,4.943288,1.1409981,-1.1946907,1.7153859,-2.6160305,4.6087494
303,1715789459.0577276,4.943288,1.1409981,-1.1946907,0.5089271,-2.3704627,3.6283104
304,1715789459.0602198,4.588429,1.3106179,-1.2010362,0.5089271,-2.3704627,3.6283104
305,1715789459.0629146,4.588429,1.3106179,-1.2010362,-0.73479456,-1.6667458,2.8800006
306,1715789459.0639205,4.463685,1.3081774,-1.0389823,-0.73479456,-1.6667458,2.8800006
307,1715789459.0863123,4.369967,1.3640665,-0.4087959,-2.6449702,0.23732115,1.7236327
308,1715789459.0897744,4.369967,1.3640665,-0.4087959,-3.5380552,1.5305228,0.756633
309,1715789459.0984635,4.369967,1.3640665,-0.06272271,-4.0261364,2.3344216,-0.60193133
310,1715789459.1000721,4.279666,1.4360633,-0.06272271,-4.0261364,2.3344216,-0.60193133
311,1715789459.1190364,3.7378588,1.1895655,0.27529657,-3.8978548,2.4572055,-2.4736226
312,1715789459.1215394,3.277048,1.0092071,0.48713827,-3.2521703,1.9007072,-3.4082463
313,1715789459.1367717,3.1764965,0.9042626,0.59943515,-2.6345854,1.3503176,-3.7924805
314,1715789459.156468,3.4781513,0.90597105,0.4983649,-1.5283085,0.9477574,-4.6037097
315,1715789459.1721313,3.4781513,0.9989568,0.41758195,-1.1788936,1.0693196,-5.064913
316,1715789459.1746416,3.6087525,0.9989568,0.41758195,-1.1788936,1.0693196,-5.064913
317,1715789459.1771479,3.8225465,1.1312358,0.28676724,-0.8135961,1.2623531,-5.88897
318,1715789459.1873097,3.8225465,1.1312358,0.12349297,-0.8135961,1.2623531,-5.88897
319,1715789459.1900756,4.0068097,1.0492326,0.12349297,-0.64011043,1.3478742,-6.6446104
320,1715789459.2037783,3.9748385,0.8874227,-0.043198135,-0.6718754,1.3716979,-7.751498
321,1715789459.2061324,3.8896623,0.71340984,-0.153512,-0.6718754,1.3716979,-7.751498
322,1715789459.2237616,3.8352377,0.48616204,-0.20988922,-0.78244203,1.4706581,-8.182158
323,1715789459.2272604,3.760068,0.17987019,-0.13203497,-0.83314383,1.7620409,-8.745376
324,1715789459.2342463,3.593377,-0.073217176,-0.014643434,-0.70119697,2.01555,-9.120447
325,1715789459.249325,3.294132,-0.33704305,0.07516963,-0.40737075,2.2220223,-9.4222145
326,1715789459.2574718,3.294132,-0.33704305,0.07516963,-0.062842764,2.2696698,-9.585316
327,1715789459.2598398,3.1452572,-0.5149913,0.12837411,-0.062842764,2.2696698,-9.585316
328,1715789459.2741778,2.6222427,-1.0245829,0.07150877,0.96524346,2.1584923,-9.720928
329,1715789459.2844977,2.6222427,-1.2322756,0.0370967,1.3415364,2.0766363,-9.632352
330,1715789459.2869856,2.7027814,-1.2322756,0.0370967,1.3415364,2.0766363,-9.632352
331,1715789459.297876,2.7596467,-1.4648621,-0.08053889,1.6677384,1.9672915,-9.642126
332,1715789459.3088202,2.7596467,-1.6616027,-0.16473864,1.8253417,1.8616118,-9.681832
333,1715789459.3108416,2.8106549,-1.6616027,-0.16473864,1.8253417,1.8616118,-9.681832
334,1715789459.3294718,2.8106549,-1.6616027,-0.16473864,1.8253417,1.7168368,-9.768576
335,1715789459.33168,2.7833204,-2.1221387,-0.17084008,2.0721312,1.3906348,-9.934731
336,1715789459.3382015,2.6176054,-2.2800438,-0.06687169,2.0721312,1.3906348,-9.934731
337,1715789459.3401515,2.6176054,-2.2800438,-0.06687169,2.2621105,1.0595458,-9.982989
338,1715789459.3481584,2.3666842,-2.4118347,0.061502427,2.5027912,0.73823065,-9.945115
339,1715789459.3621817,2.092608,-2.5321856,0.17938207,2.7960067,0.4822781,-9.825996
340,1715789459.365114,1.7804586,-2.6556783,0.26699865,3.1179326,0.24953845,-9.6635065
341,1715789459.379855,0.20525214,-2.9629467,0.10884953,3.914501,-0.4596761,-9.340359
342,1715789459.3930018,-0.6675271,-3.4171371,-0.43124917,3.914501,-0.4596761,-9.340359
343,1715789459.395428,-0.6675271,-3.4171371,-0.43124917,3.605403,-0.95386606,-8.965287
344,1715789459.4060795,-1.5959513,-3.7608001,-0.9699141,2.74897,-1.3411547,-8.178493
345,1715789459.4222882,-3.7498176,-4.1893644,-1.2220252,-1.0445032,-1.1236867,-3.0686052
346,1715789459.429318,-3.957266,-4.267219,-0.8849821,-1.0445032,-1.1236867,-3.0686052
347,1715789459.4444168,-3.957266,-4.2716117,-0.35412705,-2.8654926,0.034513887,1.9637027
348,1715789459.446769,-3.9467719,-4.2716117,-0.35412705,-2.8654926,0.034513887,1.9637027
349,1715789459.4632626,-3.827916,-4.1666675,-0.00097622897,-2.8654926,0.034513887,1.9637027
350,1715789459.465452,-3.335622,-4.0792947,0.34460884,-2.8343384,1.4553864,7.0870295
351,1715789459.4795878,-2.0215874,-4.0446386,0.52719414,-2.0634265,1.5885551,10.152351
352,1715789459.481083,-2.0215874,-4.0446386,0.52719414,-1.3096187,1.31672,11.685012
353,1715789459.4835677,-0.82372373,-3.9882615,0.48640612,-1.3096187,1.31672,11.685012
354,1715789459.4971619,0.5115745,-3.8193738,0.31873876,-1.3096187,1.31672,11.685012
355,1715789459.499105,0.5115745,-3.8193738,0.31873876,-0.46601382,0.5549711,12.613527
356,1715789459.5071406,0.5115745,-3.8193738,0.31873876,-0.46601382,-0.3191771,12.881086
357,1715789459.509312,1.505162,-3.567263,0.11543907,0.21693352,-0.3191771,12.881086
358,1715789459.5308213,3.0188355,-2.6773996,-0.57649374,0.7221191,-1.0876455,12.489522
359,1715789459.5469446,3.0188355,-2.4833436,-0.726833,0.30673072,-0.59223384,12.421716
360,1715789459.548572,3.2555711,-2.4833436,-0.726833,0.30673072,-0.59223384,12.421716
361,1715789459.562525,3.3722303,-2.358386,-0.7988299,-0.21189389,-0.08399397,12.380788
362,1715789459.564451,3.8733106,-2.2778473,-0.85789174,-0.21189389,-0.08399397,12.380788
363,1715789459.5724547,3.8733106,-2.2778473,-0.85789174,-0.90889114,0.33200526,12.094903
364,1715789459.573905,3.9972916,-2.0494096,-0.8849821,-1.6138296,0.7144069,11.6563015
365,1715789459.5831108,3.9972916,-1.8302463,-0.9545384,-2.812958,1.2305881,11.438833
366,1715789459.5855117,4.0973554,-1.8302463,-0.9545384,-2.812958,1.2305881,11.438833
367,1715789459.600077,4.0973554,-1.8302463,-0.9545384,-3.6681695,1.6563611,11.435168
368,1715789459.6020727,4.199371,-1.5422589,-0.7370834,-3.6681695,1.6563611,11.435168
369,1715789459.6127412,4.199371,-1.5422589,-0.7370834,-4.029802,1.5555683,11.391797
370,1715789459.614813,4.4705186,-1.3003676,-0.022453265,-4.0352993,1.3203852,11.29528
371,1715789459.6282647,4.680682,-0.86155254,1.3860316,-4.0352993,1.3203852,11.29528
372,1715789459.6303773,4.680682,-0.86155254,1.3860316,-2.4519367,-0.50915617,10.45473
373,1715789459.6318665,4.6557884,-0.42978483,1.8624619,1.2969433,-2.4523184,9.569586
374,1715789459.6498961,4.824188,-0.07516963,1.2410617,3.387935,-3.1627548,8.604419
375,1715789459.6629417,4.183019,0.84080774,0.06687169,4.7318387,-2.762638,6.5745134
376,1715789459.6747355,4.183019,0.84080774,0.06687169,4.3647084,-2.0436497,5.388213
377,1715789459.6770089,4.110534,1.3394166,-0.47810817,4.3647084,-2.0436497,5.388213
378,1715789459.6845014,4.2437897,1.6723412,-0.64068073,3.7984364,-1.7644843,4.071799
379,1715789459.7032893,4.1669116,1.8453778,-0.51718783,3.7984364,-1.7644843,4.071799
380,1715789459.7058787,4.1669116,1.8453778,-0.51718783,3.2150602,-1.8463402,2.510427
381,1715789459.7082472,4.0678244,1.910053,-0.5415935,2.6976573,-1.824349,1.4536302
382,1715789459.7153518,4.0678244,1.910053,-0.5415935,1.882763,-1.4724907,0.33391422
383,1715789459.7171133,3.9802074,1.86295,-0.6765572,1.882763,-1.4724907,0.33391422
384,1715789459.7335973,3.7434719,1.7409214,-0.6633781,0.8076402,-0.47739118,-0.8994227
385,1715789459.7353554,3.3351338,1.5852128,-0.5623384,0.05138904,0.3210097,-1.7075975
386,1715789459.7480447,3.0359197,1.4201996,-0.44491637,-0.35972327,0.58551437,-2.1736877
387,1715789459.7644305,2.9529402,1.2754737,-0.319715,-0.35972327,0.58551437,-2.1736877
388,1715789459.7671196,2.9792984,1.1719935,-0.059549972,-0.27542385,0.3631594,-3.0209577
389,1715789459.774264,2.9792984,1.1719935,-0.059549972,0.23098342,-0.2489276,-3.6965747
390,1715789459.7772598,3.1540432,1.148808,-0.026846299,0.23098342,-0.2489276,-3.6965747
391,1715789459.8011558,3.7576275,1.1300155,-0.5313431,0.25725064,-0.6985244,-4.665407
392,1715789459.8121598,3.9387178,1.1287953,-0.66020536,0.25725064,-0.6985244,-4.665407
393,1715789459.814483,4.110534,1.1229379,-0.75294715,-0.15447254,-0.52748215,-5.262833
394,1715789459.8263135,4.4109683,1.0243388,-0.7348869,-0.7030295,-0.24465153,-5.799173
395,1715789459.828866,4.4109683,1.0243388,-0.7348869,-1.4586699,-0.0027488936,-6.527324
396,1715789459.835907,4.631139,0.81566983,-0.69534963,-1.9498055,0.0021380284,-7.136357
397,1715789459.8561227,4.631139,0.81566983,-0.69534963,-2.7695866,0.38515055,-8.377635
398,1715789459.8590925,4.641145,0.24625377,-0.47810817,-2.7695866,0.38515055,-8.377635
399,1715789459.8660958,4.641145,0.24625377,-0.47810817,-2.7695866,0.86467975,-8.895038
400,1715789459.8683321,4.4490414,-0.0017084008,-0.22794947,-2.9522355,0.86467975,-8.895038
401,1715789459.8754287,4.0531807,-0.3316738,0.11690342,-2.9522355,0.86467975,-8.895038
402,1715789459.877412,4.0531807,-0.3316738,0.11690342,-2.7152197,1.4828753,-9.39045
403,1715789459.8849933,3.598014,-0.5437901,0.4300289,-2.0188332,1.8548924,-9.654954
404,1715789459.8974223,3.1984618,-0.6921768,0.5950421,-1.1049789,1.8817704,-9.72215
405,1715789459.9064481,2.9756377,-0.8747317,0.5965064,0.041615196,1.6484199,-9.743529
406,1715789459.9195514,2.9756377,-1.0289758,0.46370876,0.6335436,1.4590516,-9.800951
407,1715789459.921978,2.5080237,-1.1810235,0.22306833,1.5987107,0.89766645,-9.789955
408,1715789459.9468856,2.3720534,-1.3543042,0.025381953,2.2144628,0.18234327,-9.57432
409,1715789459.948889,2.288586,-1.4970777,-0.16351835,2.2144628,0.18234327,-9.57432
410,1715789459.9636219,2.288586,-1.4970777,-0.16351835,2.1637611,-0.03940081,-9.420993
411,1715789459.9648445,2.3945067,-1.7257898,-0.40196228,1.9481256,-0.24587326,-9.2707205
412,1715789459.9788244,2.3945067,-1.7257898,-0.40196228,1.4661529,-0.38637227,-9.232236
413,1715789459.9812887,2.5451205,-1.9544716,-0.46370876,1.4661529,-0.38637227,-9.232236
414,1715789459.983798,2.5905151,-2.174123,-0.40659937,1.0892491,-0.34483343,-9.373345
415,1715789459.9973698,2.5905151,-2.174123,-0.40659937,1.0892491,-0.18234327,-9.648846
416,1715789459.99941,2.4279425,-2.3896255,-0.22013964,0.85956377,-0.18234327,-9.648846
417,1715789460.0132809,2.1848617,-2.5138812,-0.07175283,0.85956377,-0.18234327,-9.648846
418,1715789460.0158308,1.7423856,-2.6764233,0.08078295,1.0330495,0.048563786,-9.9066305
419,1715789460.0400307,0.99334353,-3.007853,0.13862452,1.3036628,-0.5335908,-9.648846
420,1715789460.0413907,0.22282428,-3.258988,0.08029483,1.3036628,-0.5335908,-9.648846
421,1715789460.0433583,-0.35949633,-3.6736715,-0.09542638,1.3036628,-0.5335908,-9.648846
422,1715789460.0599716,-0.35949633,-3.6736715,-0.09542638,1.189431,-1.1322387,-9.261557
423,1715789460.061822,-0.35949633,-3.6736715,-0.09542638,0.7954229,-1.5738943,-8.841282
424,1715789460.068971,-2.543656,-4.3560557,-0.65288365,-0.10010554,-2.0693061,-7.3782597
425,1715789460.0810342,-4.0363407,-4.235003,0.153512,-1.2686907,-2.2275202,-3.2475886
426,1715789460.0842483,-4.0363407,-4.235003,0.153512,-1.4934891,-1.8481728,-0.44005206
427,1715789460.0975661,-4.0363407,-4.235003,0.4600479,-1.4934891,-1.8481728,-0.44005206
428,1715789460.0999513,-3.934569,-4.0785627,0.4600479,-1.4244614,-0.88239485,2.664365
429,1715789460.1115947,-3.640724,-3.9521408,0.6155429,-1.1062006,0.5476407,6.047337
430,1715789460.1186407,-2.8172445,-3.8208385,0.66069347,-0.877737,1.2910637,8.074799
431,1715789460.1267858,-1.5202936,-3.7886226,0.51816404,-0.877737,1.2910637,8.074799
432,1715789460.1291611,-1.5202936,-3.7886226,0.51816404,-0.49167016,2.146275,10.734506
433,1715789460.135873,-1.5202936,-3.7886226,0.51816404,-0.32856914,2.3020456,12.252506
434,1715789460.1377947,-0.47664383,-3.7669015,0.29262465,-0.32856914,2.3020456,12.252506
435,1715789460.1442719,-0.47664383,-3.7669015,0.0078098318,-0.34261903,1.9544634,12.9580555
436,1715789460.145344,0.74391705,-3.6758683,0.0078098318,-0.34261903,1.9544634,12.9580555
437,1715789460.154942,0.74391705,-3.4456918,-0.17523311,-0.41836634,1.1548407,13.03197
438,1715789460.1565053,1.6667279,-3.4456918,-0.17523311,-0.41836634,1.1548407,13.03197
439,1715789460.165485,2.2417269,-3.1635616,-0.25137895,-0.44646615,0.43096542,12.743031
440,1715789460.1737258,2.6434755,-2.7994282,-0.25674823,-0.46784642,-0.2959642,12.28305
441,1715789460.1848445,2.8135836,-2.674715,-0.272856,-0.46784642,-0.2959642,12.28305
442,1715789460.186896,2.8135836,-2.674715,-0.272856,-0.49167016,-0.43768495,12.179813
443,1715789460.1940792,3.1293936,-2.4769979,-0.34778157,-0.60223675,-0.27091873,12.093681
444,1715789460.2187016,3.1293936,-2.4769979,-0.34778157,-0.60223675,-0.040011674,12.389339
445,1715789460.221221,3.5850787,-2.3825479,-0.5528202,-0.9211084,-0.040011674,12.389339
446,1715789460.2342236,4.119564,-2.3015208,-0.55989784,-1.0634401,-0.13408493,12.401557
447,1715789460.2592285,5.348423,-0.9906589,-0.38853914,-2.183156,-0.45540005,11.973341
448,1715789460.274754,5.309618,-0.66118157,0.25552794,-1.7836502,-0.8249735,11.35881
449,1715789460.29276,5.309618,-0.66118157,0.25552794,-0.54786974,-1.1065824,10.718013
450,1715789460.29576,4.7211957,-0.24845028,0.9113403,0.83757263,-1.2971723,10.215881
451,1715789460.2977595,4.696302,0.107873306,0.77051926,2.1338286,-1.3222178,9.40282
452,1715789460.3153617,4.696302,0.107873306,0.77051926,2.1338286,-1.1511755,7.6972837
453,1715789460.3167534,3.901377,0.81566983,-0.12202863,3.5345426,-1.1511755,7.6972837
454,1715789460.3366973,3.593865,1.3179396,-0.7527031,3.5345426,-1.1511755,7.6972837
455,1715789460.3388507,3.4161608,1.8173112,-0.99090296,2.5486062,-0.8671232,5.1737995
456,1715789460.3521564,3.4161608,1.8173112,-0.99090296,2.5486062,-0.8671232,3.8946478
457,1715789460.3551693,3.2936442,2.050386,-0.7558758,1.8907043,-0.7180721,3.8946478
458,1715789460.356549,3.3378184,2.093584,-0.58259517,1.5333481,-0.6227771,3.0748665
459,1715789460.3769996,3.3378184,2.093584,-0.58259517,1.5333481,-0.6227771,0.28932106
460,1715789460.379025,3.441787,1.7636187,-0.36242503,0.61705023,-0.23243423,0.28932106
461,1715789460.395396,3.441787,1.7636187,-0.36242503,0.0978148,-0.0076358155,-0.6275877
462,1715789460.3963964,3.0600815,1.3567448,-0.28335047,-0.4489096,0.3820962,-1.4192691
463,1715789460.4072983,3.0600815,1.3567448,-0.28335047,-0.83619815,0.59406644,-1.895744
464,1715789460.410813,2.8606865,1.2283707,-0.18523945,-0.83619815,0.59406644,-1.895744
465,1715789460.4173477,2.7913742,1.1424625,-0.078830495,-1.0701596,0.66920286,-2.2097287
466,1715789460.4393773,2.7913742,1.1424625,-0.078830495,-1.0701596,0.66920286,-2.7625618
467,1715789460.4410343,3.3856537,0.7519709,0.064919226,-1.1153636,0.63132924,-3.653814
468,1715789460.457574,3.3856537,0.7519709,0.064919226,-1.1153636,0.63132924,-4.225584
469,1715789460.4598367,3.6092405,0.63604367,0.004881145,-1.2558626,0.5696318,-4.225584
470,1715789460.4718106,3.7722707,0.5696601,0.026602242,-1.2558626,0.5696318,-4.225584
471,1715789460.4744031,4.214258,0.38463423,0.12593354,-1.426294,0.77488256,-5.289711
472,1715789460.4957764,4.520093,0.20598431,0.18475133,-1.3481033,1.1334605,-6.315354
473,1715789460.5044773,4.520093,0.20598431,0.18475133,-1.3481033,1.1530081,-7.035564
474,1715789460.5062602,4.581839,0.0924977,0.26504618,-1.2167672,1.1530081,-7.035564
475,1715789460.5172174,4.5186286,-0.03099527,0.3104408,-1.0506119,1.112691,-7.603058
476,1715789460.5238478,4.199859,-0.20915705,0.28969595,-0.8074875,1.0790935,-8.328766
477,1715789460.5340679,3.9928987,-0.29994637,0.29091623,-0.6657668,1.1597277,-8.646416
478,1715789460.5469055,3.9928987,-0.29994637,0.29091623,-0.44646615,1.3472633,-8.858386
479,1715789460.5483496,3.6260808,-0.42465958,0.30238694,-0.44646615,1.3472633,-8.858386
480,1715789460.5612292,3.6260808,-0.42465958,0.30238694,-0.44646615,1.5366315,-8.934134
481,1715789460.563951,3.3651528,-0.5206046,0.34631723,-0.1727985,1.5366315,-8.934134
482,1715789460.585672,3.3651528,-0.5206046,0.34631723,0.17172949,1.6447546,-8.954292
483,1715789460.5877957,2.5846577,-1.012868,0.34802565,1.4087316,1.4504995,-8.983003
484,1715789460.5986035,2.5846577,-1.012868,0.34802565,1.8833739,1.2373075,-8.950626
485,1715789460.6012003,2.255394,-1.1263547,0.24918245,1.8833739,1.2373075,-8.950626
486,1715789460.6132078,2.255394,-1.1263547,0.24918245,1.8833739,0.95386606,-8.854721
487,1715789460.6159222,2.0559993,-1.2466749,0.1581491,2.4960718,0.6264423,-8.712389
488,1715789460.6169233,1.9149342,-1.3279461,0.033679903,2.4960718,0.6264423,-8.712389
489,1715789460.629538,1.8278058,-1.3794421,-0.16547081,2.4246006,0.26175576,-8.424672
490,1715789460.6364148,1.9205476,-1.4455816,-0.21477039,2.0525837,0.06627888,-8.1839905
491,1715789460.6590858,2.1816885,-1.6725852,-0.03099527,1.1460595,0.18661933,-7.920097
492,1715789460.6853452,2.2573464,-1.8487947,0.10372432,1.1460595,0.18661933,-7.920097
493,1715789460.6883447,2.0782084,-2.5460966,0.6863195,1.2016484,0.90133166,-8.445441
494,1715789460.695356,2.0782084,-2.5460966,0.6863195,1.7703638,1.0864239,-8.835784
495,1715789460.6975615,1.6437867,-2.909498,0.722684,1.7703638,1.0864239,-8.835784
496,1715789460.719999,1.6437867,-3.494259,0.18987654,2.441094,1.0106765,-9.3324175
497,1715789460.7214808,0.12373702,-3.494259,0.18987654,2.441094,1.0106765,-9.3324175
498,1715789460.722488,-1.3455181,-3.9855769,-0.47395915,2.2669973,0.68325275,-8.690398
499,1715789460.7383583,-1.3455181,-3.9855769,-0.47395915,1.8338938,0.34972036,-7.290906
500,1715789460.7517262,-1.3455181,-3.9855769,-0.47395915,1.416062,-0.2648101,-5.3428564
501,1715789460.7538798,-3.888198,-3.887954,-0.96356845,1.416062,-0.2648101,-5.3428564
502,1715789460.7548835,-4.21255,-3.9999764,-0.99358755,1.0892491,-0.72784597,-3.732005
503,1715789460.7788084,-4.173257,-4.0863724,-0.8456889,0.4405102,-0.1328632,3.0180562
504,1715789460.781277,-3.78545,-3.400297,-0.65361583,0.4405102,-0.1328632,3.0180562
505,1715789460.7832808,-3.78545,-3.400297,-0.65361583,0.31283936,0.28863382,5.9428787
506,1715789460.7915483,-3.78545,-3.400297,-0.61285824,0.13141239,0.68203104,8.287379
507,1715789460.793867,-2.9541605,-3.2050514,-0.61285824,0.13141239,0.68203104,8.287379
508,1715789460.815832,-1.62475,-3.1008387,-0.5628265,0.13141239,0.68203104,8.287379
509,1715789460.8178382,-1.62475,-3.1008387,-0.5628265,-0.08972083,1.0784826,9.978254
510,1715789460.8421898,-0.75489956,-3.0525155,-0.5450104,-0.08972083,1.0784826,9.978254
511,1715789460.8452163,1.2903612,-2.7249908,-0.36974674,-1.1611785,1.1004738,11.73999
512,1715789460.8626008,1.9430008,-2.726699,-0.13764828,-1.3407729,0.9789116,12.473028
513,1715789460.8742056,1.9430008,-2.726699,-0.13764828,-1.3407729,1.094976,12.822443
514,1715789460.877441,2.5578115,-2.7796595,-0.09811102,-1.4647785,1.094976,12.822443
515,1715789460.883448,3.3153653,-2.7525692,-0.18450728,-1.7036268,1.1884383,12.74914
516,1715789460.8940825,3.989726,-2.5319414,-0.32044718,-2.160554,1.3545936,12.05764
517,1715789460.909365,4.177406,-2.3544812,-0.32728076,-2.5258515,1.4413365,11.427838
518,1715789460.9170706,4.177406,-2.3544812,-0.32728076,-3.048752,1.5262468,10.800479
519,1715789460.9190722,4.0583057,-2.1858377,-0.22916976,-3.048752,1.5262468,10.800479
520,1715789460.9200594,3.9201694,-2.1648488,-0.1867038,-3.048752,1.5262468,10.800479
521,1715789460.9223397,3.9201694,-2.1648488,-0.1867038,-3.5698202,1.7058412,10.812696
522,1715789460.9351475,3.815957,-2.1736348,-0.16644704,-3.8941896,1.7327193,11.056432
523,1715789460.9496324,3.815957,-2.2226903,-0.07004443,-4.20512,1.1114693,11.804131
524,1715789460.9516354,3.8867338,-2.2226903,-0.07004443,-4.20512,1.1114693,11.804131
525,1715789460.958773,3.8867338,-2.1936476,0.153512,-4.20512,1.1114693,11.804131
526,1715789460.9609098,4.314566,-2.1936476,0.153512,-4.1922917,0.23732115,12.313593
527,1715789460.967744,4.8864226,-2.0696664,0.3773125,-3.8495965,-0.4914411,12.228071
528,1715789460.975029,5.228347,-1.6950387,0.7815018,-2.7701976,-1.389413,11.323991
529,1715789460.987366,5.3625784,-0.9128046,1.234472,-1.186224,-2.0234911,9.956264
530,1715789460.9952068,5.02041,-0.31556603,1.442897,0.54680073,-2.5879307,8.603807
531,1715789461.0064838,4.4529467,0.2818861,1.7118785,3.0635655,-3.343571,7.3044977
532,1715789461.021596,3.8676972,0.8286049,0.33777523,6.107507,-4.829195,5.030857
533,1715789461.033554,3.3117042,1.0140883,-0.9364782,5.3402605,-4.74795,3.5733325
534,1715789461.0447488,3.3117042,1.2669317,-1.2120188,3.7477345,-3.6801577,2.769434
535,1715789461.0467713,3.1496503,1.2669317,-1.2120188,3.7477345,-3.6801577,2.769434
536,1715789461.0558999,3.1496503,1.2669317,-1.063876,1.8235091,-2.0803015,2.0101285
537,1715789461.0589237,3.281197,1.3374642,-1.063876,1.8235091,-2.0803015,2.0101285
538,1715789461.0666897,3.512594,1.2491155,-0.81566983,1.8235091,-2.0803015,2.0101285
539,1715789461.0844278,3.512594,1.2491155,-0.81566983,1.8235091,-0.95142263,1.4328607
540,1715789461.0864298,3.5362673,1.1236701,-0.10836142,-1.1581241,0.7473936,-0.5726098
541,1715789461.114283,3.5362673,1.1236701,0.27505252,-1.3743705,0.6979135,-1.6061938
542,1715789461.116285,3.2404397,1.0643642,0.27505252,-1.3743705,0.49632803,-2.4546857
543,1715789461.122499,3.2404397,1.0643642,0.27505252,-1.3743705,0.41508293,-2.8584676
544,1715789461.124689,3.2523983,1.0314164,0.3018988,-1.3395511,0.41508293,-2.8584676
545,1715789461.1375427,3.2523983,1.0314164,0.3018988,-1.3273338,0.4352415,-3.5982254
546,1715789461.1392524,3.3673494,0.6719201,-0.08615221,-1.7940348,0.79076505,-4.7136655
547,1715789461.1477258,3.5374875,0.522313,-0.099087246,-1.7940348,0.79076505,-4.7136655
548,1715789461.1499834,3.5374875,0.522313,-0.099087246,-2.137341,1.0772609,-5.204801
549,1715789461.1631057,3.5374875,0.522313,-0.099087246,-2.137341,1.0772609,-5.789399
550,1715789461.1650891,3.9040618,0.40952805,0.122516744,-2.2760077,1.2660183,-5.789399
551,1715789461.167185,4.1154156,0.36974674,0.23844394,-2.1733823,1.25319,-6.360558
552,1715789461.1794446,4.349954,0.27456442,0.22965786,-2.1733823,1.25319,-6.360558
553,1715789461.181642,4.526194,0.119099945,0.11275445,-2.0304396,1.1383474,-6.931717
554,1715789461.183887,4.526194,0.119099945,0.11275445,-1.9852357,0.95569867,-7.9145994
555,1715789461.1950536,4.526194,0.119099945,0.034900185,-2.1190152,0.98868537,-8.45888
556,1715789461.1960635,4.495687,-0.016839951,0.034900185,-2.1190152,0.98868537,-8.45888
557,1715789461.2070847,4.495687,-0.016839951,-0.014887493,-2.1190152,0.98868537,-8.45888
558,1715789461.2091029,4.411945,-0.20769271,-0.014887493,-2.3768003,1.2311989,-8.93169
559,1715789461.2323742,4.046347,-0.57112443,0.15277983,-2.5307384,1.5653422,-9.254227
560,1715789461.2347643,3.5167427,-0.78198993,0.42246306,-2.0408244,2.5347853,-9.551718
561,1715789461.247822,3.1923604,-0.93891877,0.57795805,-2.0408244,2.5347853,-9.551718
562,1715789461.2500565,3.1923604,-0.93891877,0.57795805,-1.3255012,2.7510316,-9.526062
563,1715789461.2646353,3.1923604,-1.2408175,0.5464747,0.60544384,2.4846945,-9.500405
564,1715789461.2672832,2.6891143,-1.2408175,0.5464747,0.60544384,2.4846945,-9.500405
565,1715789461.2903323,2.1663132,-1.6179165,0.059305906,2.281047,1.6007724,-9.2126875
566,1715789461.3033974,2.1663132,-1.6179165,0.059305906,2.281047,1.1078042,-9.0275955
567,1715789461.3056202,2.2314765,-1.7555648,0.051740136,2.744694,1.1078042,-9.0275955
568,1715789461.307511,2.2314765,-1.7555648,0.051740136,3.020194,0.73884153,-8.8779335
569,1715789461.321509,2.3461833,-1.9798535,0.03294773,3.2437708,0.35277468,-8.725828
570,1715789461.3240156,2.4789505,-2.349112,0.07858644,3.4172566,0.043066,-8.709946
571,1715789461.3348503,2.4789505,-2.7501285,0.019768637,3.5705838,-0.27275133,-8.962234
572,1715789461.3369188,2.4567413,-2.7501285,0.019768637,3.5705838,-0.27275133,-8.962234
573,1715789461.3431451,2.4567413,-2.7501285,0.019768637,3.4936147,-0.23243423,-9.373957
574,1715789461.3455122,2.2868774,-3.2345822,-0.13398743,3.4936147,-0.23243423,-9.373957
575,1715789461.3649955,2.2868774,-3.7712948,-0.45589894,3.1441998,-0.13591751,-9.907242
576,1715789461.368336,1.6572098,-3.7712948,-0.45589894,3.1441998,-0.13591751,-9.907242
577,1715789461.3699424,0.87863666,-4.0216975,-0.7771088,2.621299,-0.23060162,-10.095999
578,1715789461.3856702,-2.1087155,-4.3379955,-1.2520442,-0.06772968,-1.031446,-8.105189
579,1715789461.3965504,-3.1237803,-4.4409876,-0.97552735,-0.8838456,-0.91965765,-6.207842
580,1715789461.4139054,-3.1237803,-4.4409876,-0.97552735,-0.8838456,-1.0662653,-3.3605988
581,1715789461.4159954,-4.079783,-4.275517,-0.21403822,-1.185613,-1.0662653,-3.3605988
582,1715789461.4241035,-3.8008254,-4.054401,0.119099945,-0.9895253,-1.3368785,-0.8151233
583,1715789461.4265203,-3.8008254,-4.054401,0.119099945,-0.19967657,-1.2305881,2.8018098
584,1715789461.4465888,-2.5788004,-3.3546581,0.12690976,1.0544298,0.21288654,8.45048
585,1715789461.4645915,-2.5788004,-3.3546581,-0.14863087,1.5443437,1.1646146,11.542681
586,1715789461.4672468,-0.4424758,-3.059837,-0.14863087,1.5443437,1.1646146,11.542681
587,1715789461.4726956,1.0455717,-2.887533,-0.4795725,1.5180765,1.1652255,11.849946
588,1715789461.4897256,1.0455717,-2.887533,-0.4795725,1.2523501,0.88117313,11.336208
589,1715789461.4927483,2.0411117,-2.6161413,-0.76344156,1.2523501,0.88117313,11.336208
590,1715789461.4952793,2.5868542,-2.1074953,-0.9652769,0.740445,0.4633413,10.45534
591,1715789461.5064263,2.556591,-1.8714919,-0.9811407,0.2224313,0.2660318,10.02407
592,1715789461.5166836,2.3557017,-1.8104776,-0.99309945,-0.3169627,0.4700608,10.101039
593,1715789461.5411355,2.1340976,-1.8390324,-1.0082309,-0.3169627,0.4700608,10.101039
594,1715789461.5431442,2.7249908,-2.2673528,-0.7170707,-2.3267093,1.3411547,12.179202
595,1715789461.5451615,2.7249908,-2.2673528,-0.7170707,-3.1464906,1.7198911,13.234777
596,1715789461.556287,2.7249908,-2.2673528,-0.7170707,-3.1464906,1.7198911,13.783335
597,1715789461.5572681,4.0697765,-2.429651,-0.3824377,-3.7842338,1.9575176,13.783335
598,1715789461.5826838,5.445558,-2.36644,0.18645974,-3.1251101,1.1682798,11.9275255
599,1715789461.5845933,5.3164515,-1.2908492,1.2151915,-1.231428,0.0015271631,10.260474
600,1715789461.6031716,4.09223,-1.2996353,0.641901,-0.20517437,-0.66798115,10.244592
601,1715789461.606407,4.09223,-1.2996353,0.641901,-0.03901902,-0.95569867,10.795592
602,1715789461.6073892,3.5335827,-1.3716323,0.09664667,-0.03901902,-0.95569867,10.795592
603,1715789461.631019,3.8603754,-1.4333787,-0.13593988,-0.56558484,-0.6759224,11.328267
604,1715789461.639588,3.9165087,-0.63555557,1.4197116,1.8516089,-1.7608191,9.400987
605,1715789461.655119,3.9165087,-0.63555557,1.4197116,1.8516089,-1.7608191,8.366181
606,1715789461.6569762,3.896252,-0.2848148,1.5549498,4.1057014,-2.4883597,8.366181
607,1715789461.6799526,3.896252,0.024405725,1.1924943,6.107507,-3.0607402,7.1615553
608,1715789461.6828003,2.6598275,0.6109058,-1.2754737,7.540597,-3.9110646,5.221447
609,1715789461.6853607,2.6598275,0.6109058,-1.2754737,6.9034643,-3.8304305,3.8824303
610,1715789461.7061975,2.6598275,0.6109058,-1.8368357,3.2480469,-1.5586227,2.7798188
611,1715789461.7094414,2.314944,0.8981612,-1.8368357,3.2480469,-1.5586227,2.7798188
612,1715789461.7155042,2.4313593,0.86618966,-1.7118785,1.9627864,-0.7370089,2.4505622
613,1715789461.7496018,2.8287148,0.63677585,-1.2452105,0.5406921,0.124311075,1.917277
614,1715789461.7515574,2.8350606,0.60041136,-1.0804719,-1.8948276,0.79626286,0.22762366
615,1715789461.7638066,2.8350606,0.60041136,-1.0804719,-1.8948276,0.79626286,-0.58910316
616,1715789461.765476,3.1286614,0.52377737,-0.5916253,-3.2411747,0.7504479,-1.1895837
617,1715789461.7817554,3.1286614,0.4825012,-0.39708114,-4.1519747,1.3662001,-3.445509
618,1715789461.783382,3.5057602,0.23917611,-0.38121742,-4.1519747,1.3662001,-3.445509
619,1715789461.797656,3.5057602,0.009518232,-0.36315718,-4.6614366,2.0638082,-4.3776894
620,1715789461.7991827,3.6714752,0.009518232,-0.36315718,-4.6614366,2.0638082,-4.3776894
621,1715789461.8143497,3.8645246,-0.18206671,-0.22013964,-4.9638147,2.7827966,-5.209077
622,1715789461.8175666,4.0192566,-0.30751213,0.0019524579,-4.9638147,2.7827966,-5.209077
623,1715789461.818601,4.0192566,-0.30751213,0.0019524579,-4.9772534,3.1908545,-5.956776
624,1715789461.8266761,4.212794,-0.4139211,0.27920148,-4.684038,3.2623258,-6.73624
625,1715789461.833145,4.5276585,-0.68534327,0.5025444,-3.7353647,2.8915308,-7.9671335
626,1715789461.8453817,4.597947,-0.8840059,0.44491637,-2.9119182,2.341141,-8.91764
627,1715789461.8530102,4.597947,-0.8840059,0.44491637,-2.3181572,1.8829921,-9.577374
628,1715789461.8642824,4.5259504,-1.0541137,0.30336314,-2.3181572,1.8829921,-9.577374
629,1715789461.8665774,4.3929086,-1.153445,0.1483868,-2.3181572,1.8829921,-9.577374
630,1715789461.8736618,4.3929086,-1.153445,0.1483868,-1.8942168,1.5439619,-10.122877
631,1715789461.8756766,4.2447653,-1.212995,-0.039781332,-1.8942168,1.5439619,-10.122877
632,1715789461.8841689,4.2447653,-1.212995,-0.039781332,-2.0536525,1.7461584,-10.07584
633,1715789461.8856647,4.1046767,-1.2332518,-0.14545812,-2.0536525,1.7461584,-10.07584
634,1715789461.8939612,4.1037006,-1.2947541,-0.13569583,-2.0536525,1.7461584,-10.07584
635,1715789461.8952017,4.1037006,-1.2947541,-0.13569583,-2.1904864,2.0845776,-10.01903
636,1715789461.9117212,4.067092,-1.4533914,-0.11592719,-2.191708,2.6887233,-10.106383
637,1715789461.9182966,3.857447,-1.5966836,-0.058573738,-2.056096,3.2268956,-10.187017
638,1715789461.9315758,3.6126573,-1.6742936,0.019036464,-1.8496236,3.6697729,-10.212064
639,1715789461.9335506,3.0576408,-1.8851591,0.18645974,-0.77144647,4.4755044,-10.066067
640,1715789461.945559,3.0576408,-1.8851591,0.18645974,0.055665094,4.525595,-9.863871
641,1715789461.947374,2.6432314,-1.9703352,0.2438132,0.055665094,4.525595,-9.863871
642,1715789461.9838367,2.4457586,-1.9717995,0.29116032,0.055665094,4.525595,-9.863871
643,1715789461.985764,2.5924675,-2.1985288,0.020256752,3.2944727,2.8420506,-8.742932
644,1715789462.0037527,2.684477,-2.3464274,-0.013911263,3.5620315,2.468812,-8.786915
645,1715789462.0305686,2.684477,-2.3464274,-0.013911263,3.5620315,2.468812,-8.994609
646,1715789462.0324855,2.076744,-3.114018,0.12056428,5.459379,0.043676864,-9.9047985
647,1715789462.0491116,1.4177591,-3.2843697,0.07468152,5.459379,0.043676864,-9.9047985
648,1715789462.050796,0.9054829,-3.4059105,-0.05759751,5.691508,-0.5177083,-10.079506
649,1715789462.0644972,-0.8696065,-4.010471,-1.1431947,5.0763664,-1.3307699,-10.007423
650,1715789462.079875,-2.0667377,-4.2347593,-1.7338436,3.9126682,-1.3063353,-9.273774
651,1715789462.0812876,-3.7510378,-4.241349,-2.025004,3.9126682,-1.3063353,-9.273774
652,1715789462.0833726,-3.7510378,-4.241349,-2.025004,1.3830752,-1.0045679,-6.560311
653,1715789462.0965865,-4.6050243,-4.1898527,-1.8385442,-0.22777638,-0.9251554,-3.91221
654,1715789462.1101851,-5.1153483,-3.9172409,-1.323797,-1.4898239,-0.6441574,-0.26106852
655,1715789462.12444,-4.9440203,-3.6534152,-0.79053193,-2.0188332,-0.21410827,2.8317423
656,1715789462.1277544,-4.228414,-3.4491084,-0.29604146,-2.083585,0.40225476,5.7217455
657,1715789462.1476483,-2.59442,-3.2995014,0.12593354,-1.6352099,1.1108584,9.189016
658,1715789462.148897,-1.3281901,-3.2480054,0.23112221,-1.0237337,1.3185526,10.949531
659,1715789462.1640816,-1.3281901,-3.2480054,0.23112221,-1.0237337,1.3185526,12.322756
660,1715789462.1665592,0.51694375,-3.1433048,0.05296042,-0.1202641,0.8017606,12.322756
661,1715789462.1815264,2.5414598,-2.6398146,-0.25308737,0.4441754,-0.7797695,11.519467
662,1715789462.192391,2.5414598,-2.6398146,-0.25308737,0.5602398,-1.385137,10.604392
663,1715789462.1940794,2.786493,-2.2971277,-0.35193056,0.5602398,-1.385137,10.604392
664,1715789462.207761,2.6339574,-2.0921197,-0.4053791,0.48143816,-1.4743233,10.115088
665,1715789462.2165534,2.3779106,-2.054779,-0.46834585,0.21449006,-1.0363328,10.17251
666,1715789462.2232578,2.3779106,-2.054779,-0.46834585,0.21449006,-1.0363328,10.61722
667,1715789462.2242749,2.1628964,-2.0689342,-0.53524804,-0.26137397,-0.2660318,10.61722
668,1715789462.2367337,2.4311152,-2.328367,-0.509378,-1.4012485,1.0088439,11.601934
669,1715789462.2484891,2.9373205,-2.3993878,-0.44735694,-2.128789,1.325883,11.933023
670,1715789462.2558675,2.9373205,-2.3993878,-0.44735694,-2.128789,1.3771957,11.9275255
671,1715789462.2582078,3.4205537,-2.3552134,-0.3990336,-2.8392253,1.3771957,11.9275255
672,1715789462.2693264,3.5006351,-2.2053623,-0.4131889,-3.2521703,1.6258179,11.896982
673,1715789462.281478,4.0785627,-2.0518503,-0.53402776,-5.2093825,2.000889,11.731438
674,1715789462.296177,4.386563,-1.999866,0.11177822,-5.7249527,1.5268577,11.18227
675,1715789462.31861,4.338484,-1.2661995,2.1458125,-2.9919417,-1.711339,9.554315
676,1715789462.3253767,4.338484,-1.2661995,2.1458125,-1.2045499,-3.0094275,9.104717
677,1715789462.3281531,4.310417,-0.99139106,2.5573235,-1.2045499,-3.0094275,9.104717
678,1715789462.3463285,4.2232885,-0.06199054,1.2569253,3.7257435,-4.935486,7.3869643
679,1715789462.3487556,4.2232885,-0.06199054,1.2569253,5.984723,-4.96664,5.8310905
680,1715789462.3563802,4.2232885,-0.06199054,1.2569253,6.4770803,-4.8047605,5.0113096
681,1715789462.3580906,3.883805,0.1295944,0.3807293,6.4770803,-4.8047605,5.0113096
682,1715789462.3719437,3.883805,0.6052925,-0.80493134,6.2339563,-3.769344,4.120057
683,1715789462.3729768,3.4456918,0.6052925,-0.80493134,5.4013467,-2.6667323,3.5562284
684,1715789462.382277,3.4456918,0.6052925,-0.80493134,5.4013467,-1.4016303,2.8378508
685,1715789462.383282,3.4957235,0.75221497,-1.1204973,3.5766923,-1.4016303,2.8378508
686,1715789462.3942962,3.4957235,0.75221497,-1.1978635,1.7715856,-0.50671273,1.9374355
687,1715789462.3960779,3.784474,0.66313404,-1.1978635,1.7715856,-0.50671273,1.9374355
688,1715789462.4080584,3.7876465,0.7463576,-1.1688206,0.5083162,0.07360926,1.0174724
689,1715789462.4164677,3.7876465,0.7463576,-1.1688206,0.5083162,0.42852196,0.14821118
690,1715789462.418496,3.7429838,0.841784,-1.0792516,-0.48678324,0.42852196,0.14821118
691,1715789462.4305358,3.7429838,0.841784,-1.0792516,-0.48678324,0.6398814,-0.76381063
692,1715789462.4325993,3.7783723,0.84007555,-0.9394069,-2.7653105,1.2195925,-2.3819926
693,1715789462.4336224,3.7129648,0.60846525,-0.87082684,-2.7653105,1.2195925,-2.3819926
694,1715789462.4740942,3.430316,0.38390204,-0.85081404,-2.7653105,1.2195925,-2.3819926
695,1715789462.4764855,3.1552637,-0.1398448,-0.4737151,-4.8233156,2.8163943,-4.302553
696,1715789462.4780846,3.2314095,-0.3184947,-0.14716652,-4.879515,3.007595,-4.75948
697,1715789462.4977674,3.3339133,-0.2779812,1.0624117,-2.6571875,1.842675,-6.167525
698,1715789462.5140402,3.3285441,-0.21135357,0.9276921,-0.53565246,0.38453966,-6.899341
699,1715789462.5345316,3.576781,-0.25699228,0.34656128,0.29695687,0.020463986,-7.6421533
700,1715789462.545938,3.6050918,-0.3321619,0.15961345,0.22059871,0.48349985,-8.187656
701,1715789462.5624895,3.3988328,-0.4127008,0.08908089,0.111253835,1.0332786,-8.546234
702,1715789462.5714512,3.3988328,-0.4127008,0.08908089,0.022678372,1.50731,-8.712389
703,1715789462.57395,3.0983982,-0.46444094,0.037584815,0.022678372,1.50731,-8.712389
704,1715789462.5766556,2.9231653,-0.5369564,0.031239327,-0.02069306,1.9355265,-8.789969
705,1715789462.58992,2.9231653,-0.5369564,0.031239327,0.21082486,2.1658227,-8.9994955
706,1715789462.5922174,2.697168,-0.6577648,0.13227904,0.21082486,2.1658227,-8.9994955
707,1715789462.5935993,2.4835875,-0.7785731,0.14082102,0.48876855,2.0436497,-9.130832
708,1715789462.6056092,2.4835875,-0.9879743,0.09274176,0.48876855,2.0436497,-9.130832
709,1715789462.6078799,2.2060945,-0.9879743,0.09274176,0.78625995,1.8286251,-9.232236
710,1715789462.6156542,1.999622,-1.0736383,0.07614586,1.0110583,1.6184875,-9.183367
711,1715789462.6303866,1.9459295,-1.1817558,0.10152781,1.3042736,1.4236214,-9.026374
712,1715789462.632675,1.9800974,-1.3738288,0.11031388,1.6170367,1.1823297,-8.86816
713,1715789462.6477027,1.956668,-1.526151,0.06833603,1.6170367,1.1823297,-8.86816
714,1715789462.6502686,1.956668,-1.526151,0.06833603,1.7984636,1.0277808,-8.733769
715,1715789462.6641831,1.956668,-1.526151,0.06833603,1.9047542,0.94897914,-8.519356
716,1715789462.6668925,1.914202,-1.8314666,-0.02391761,1.9053651,0.9935723,-8.339762
717,1715789462.6766114,1.9317741,-2.0059676,0.03172744,1.9377409,1.0919216,-8.228584
718,1715789462.6842396,1.8766171,-2.306158,0.2489384,2.2963188,1.1859949,-8.323268
719,1715789462.6941657,1.8766171,-2.5805087,0.48835856,3.007366,0.95447695,-8.568836
720,1715789462.696475,1.5652002,-2.5805087,0.48835856,3.007366,0.95447695,-8.568836
721,1715789462.7251105,1.0804719,-2.8357928,0.5284144,3.007366,0.95447695,-8.568836
722,1715789462.727394,0.45248213,-3.0141985,0.3909797,4.4563384,0.04184427,-8.827843
723,1715789462.7295537,-0.45321432,-3.1669784,0.039781332,4.934035,-0.50854534,-8.625647
724,1715789462.7313292,-0.45321432,-3.1669784,0.039781332,4.7599382,-1.1273518,-7.8364086
725,1715789462.7375624,-1.7130988,-3.272167,-0.71267766,4.7599382,-1.1273518,-7.8364086
726,1715789462.743799,-2.9607499,-3.4322684,-1.4372836,3.4642932,-1.6545285,-5.8730874
727,1715789462.7638066,-3.6890473,-3.3978565,-1.6952827,1.95118,-1.7754798,-3.554854
728,1715789462.7838135,-3.9550698,-3.3380625,-1.6659958,1.95118,-1.7754798,-3.554854
729,1715789462.7858107,-3.823279,-3.3002336,-1.4882916,-1.0157925,-0.9660834,1.4798974
730,1715789462.7888093,-3.373939,-3.297061,-1.178827,-2.586327,-0.1255328,4.4022765
731,1715789462.7918115,-2.9153554,-3.221159,-0.794925,-2.586327,-0.1255328,4.4022765
732,1715789462.8158226,-2.9153554,-3.221159,-0.794925,-3.5276704,0.5696318,6.569627
733,1715789462.8188257,-2.181933,-3.21701,-0.34192422,-4.1128793,1.0424415,8.674668
734,1715789462.8198242,-1.5146803,-3.2472732,-0.061746486,-4.253989,1.1407908,9.818208
735,1715789462.8323452,-0.7478219,-3.288519,0.17742962,-4.253989,1.1407908,9.818208
736,1715789462.8347387,-0.7478219,-3.288519,0.17742962,-4.1812963,1.0167851,10.997788
737,1715789462.856947,-0.7478219,-3.288519,0.17742962,-3.6773324,0.4279111,12.108342
738,1715789462.8604045,1.4936609,-3.216766,0.5930896,-2.4562128,-0.75716746,12.8383255
739,1715789462.880026,1.4936609,-3.216766,0.5930896,-1.6541467,-1.2928963,13.059459
740,1715789462.882339,3.1435487,-2.9151113,0.4195344,-1.0567205,-1.5140295,13.052129
741,1715789462.8834991,3.1435487,-2.9151113,0.4195344,-0.28275424,-1.4022411,12.675836
742,1715789462.918169,3.499415,-2.721818,0.353883,-0.28275424,-1.4022411,12.675836
743,1715789462.9205806,3.6004546,-2.3517966,0.25650415,0.63843054,0.14813483,10.821249
744,1715789462.9223564,3.5494466,-2.29786,0.10665302,0.7019605,0.65148777,10.459005
745,1715789462.94366,3.4376378,-2.1548424,-0.27358818,0.43623415,1.2385293,10.303235
746,1715789462.9449608,3.186015,-2.093584,-0.5401292,-0.16180293,1.4975362,10.818194
747,1715789462.9600089,3.199194,-1.9122496,-0.7146301,-1.0029644,1.7614299,11.716777
748,1715789462.9664137,3.75055,-1.978389,-0.72243994,-1.7793741,1.7803668,12.358796
749,1715789462.9792788,3.75055,-1.978389,-0.72243994,-2.3810763,1.1841623,12.237234
750,1715789462.9807105,4.734131,-2.0581958,-0.44857723,-2.3810763,1.1841623,12.237234
751,1715789462.9824345,4.734131,-2.0581958,-0.44857723,-2.1495585,-0.25503623,10.272692
752,1715789462.9834385,5.442873,-1.5144362,0.4253918,-2.1495585,-0.25503623,10.272692
753,1715789462.9969354,5.476797,-0.90841156,1.2056733,-0.63949955,-1.4676038,8.316091
754,1715789463.0046968,5.476797,-0.47859627,1.5947311,1.8277851,-3.066849,6.206773
755,1715789463.006842,5.1329203,-0.47859627,1.5947311,1.8277851,-3.066849,6.206773
756,1715789463.0150168,5.1329203,-0.47859627,1.5947311,3.6842046,-4.0387354,4.8451543
757,1715789463.017022,4.546939,-0.27529657,1.3655308,3.6842046,-4.0387354,4.8451543
758,1715789463.024355,3.879412,-0.16522676,0.77198356,3.6842046,-4.0387354,4.8451543
759,1715789463.0265372,3.879412,-0.16522676,0.77198356,4.970687,-4.4522915,3.8903716
760,1715789463.0321996,3.2187185,-0.018304294,-0.35510328,5.273676,-4.2922444,3.1695507
761,1715789463.044981,3.2018785,0.16595893,-1.0931629,3.9426007,-3.5763106,2.9300916
762,1715789463.0610297,3.5172307,0.5013241,-1.3601615,2.1307743,-2.46759,2.4352906
763,1715789463.0677557,3.9758146,0.79736555,-1.3491789,0.47838384,-1.1743884,1.6662114
764,1715789463.076513,3.9758146,0.79736555,-1.3491789,-1.0353402,0.0571159,0.45791987
765,1715789463.0785122,4.5154557,0.9191501,-1.1309918,-1.0353402,0.0571159,0.45791987
766,1715789463.085533,4.5154557,0.88376176,-0.57576156,-2.7011697,1.6019942,-2.184683
767,1715789463.087535,4.930109,0.88376176,-0.57576156,-2.7011697,1.6019942,-2.184683
768,1715789463.094505,4.930109,0.88376176,-0.57576156,-3.4317646,2.43216,-4.2512403
769,1715789463.0965056,4.621133,0.5879644,-0.277005,-3.4317646,2.43216,-4.2512403
770,1715789463.1122437,4.129327,0.16913168,-0.08981306,-3.7408624,2.73576,-5.539555
771,1715789463.118529,3.748109,-0.15082738,0.09737884,-3.7720165,2.6196957,-6.2493806
772,1715789463.1385665,3.748109,-0.15082738,0.09737884,-3.5905895,2.2611177,-6.6568274
773,1715789463.1416578,3.2194507,-0.37487194,0.76270944,-2.881986,1.2684617,-6.7173033
774,1715789463.1490557,3.5391963,-0.25137895,1.0214101,-2.2167537,0.61850107,-6.8468065
775,1715789463.1556256,3.9484801,-0.15497635,1.1065861,-1.5997797,0.2996294,-7.176674
776,1715789463.1651938,3.9484801,-0.15497635,1.0563103,-1.013349,0.2134974,-7.797313
777,1715789463.1667316,4.2064486,-0.15204766,1.0563103,-1.013349,0.2134974,-7.797313
778,1715789463.1748886,4.247206,-0.19500175,0.87180305,-1.013349,0.2134974,-7.797313
779,1715789463.1769516,4.247206,-0.19500175,0.87180305,-0.5949064,0.40775254,-8.53585
780,1715789463.1830652,3.935789,-0.38487828,0.49128726,-0.5949064,0.40775254,-8.53585
781,1715789463.1852543,3.935789,-0.38487828,0.49128726,-0.40737075,0.93859446,-9.270109
782,1715789463.1951234,3.935789,-0.38487828,0.24698594,-0.42997277,1.3197744,-9.621967
783,1715789463.1965876,3.5838585,-0.5547726,0.24698594,-0.42997277,1.3197744,-9.621967
784,1715789463.2049098,3.1425726,-0.66923547,0.19280522,-0.41347942,1.6453656,-9.768576
785,1715789463.2228823,2.8238337,-0.7446492,0.23819989,-0.41347942,1.6453656,-9.768576
786,1715789463.2247896,2.8238337,-0.7446492,0.23819989,0.026343564,1.6771306,-9.518731
787,1715789463.2321439,2.607111,-0.8010264,0.29189247,0.026343564,1.6771306,-9.518731
788,1715789463.2339373,2.5573235,-0.9962722,0.34753752,0.61705023,1.5586227,-9.5437765
789,1715789463.2457805,2.5573235,-0.9962722,0.34387666,1.2334133,1.3246613,-9.620135
790,1715789463.2480237,2.3330042,-1.1068301,0.34387666,1.2334133,1.3246613,-9.620135
791,1715789463.260021,2.2556381,-1.2803549,0.27651685,1.7825811,1.0375546,-9.669615
792,1715789463.2677565,2.1333654,-1.4145863,0.16644704,2.1784217,0.7370089,-9.700158
793,1715789463.281703,2.1333654,-1.4145863,0.16644704,2.1784217,0.7370089,-9.447871
794,1715789463.284081,2.097245,-1.6913778,-0.032459613,2.5742626,0.070554934,-9.447871
795,1715789463.2984564,2.2317204,-1.8910165,0.021721095,2.6597836,-0.2837469,-9.384952
796,1715789463.3312356,2.2361133,-2.2163448,0.102259986,2.8509846,-0.16584991,-9.246897
797,1715789463.3451555,2.2361133,-2.2163448,0.102259986,2.8509846,-0.16584991,-9.077076
798,1715789463.3466349,1.1163484,-2.9019322,0.09030118,3.3543375,0.30634892,-9.077076
799,1715789463.3539133,1.1163484,-2.9019322,-0.09176553,3.3983197,0.30634892,-8.877323
800,1715789463.3552663,0.2860351,-3.0639863,-0.09176553,3.3983197,0.30634892,-8.877323
801,1715789463.3720324,-0.5630706,-3.147698,-0.36584184,3.3115768,0.183565,-8.59327
802,1715789463.373948,-1.5893619,-3.3424554,-0.79077595,2.8143325,-0.24404067,-7.697742
803,1715789463.3940592,-1.5893619,-3.3424554,-0.79077595,0.6488153,-1.2208142,-3.3318882
804,1715789463.3953884,-3.5855672,-3.4791274,-1.3582091,0.6488153,-1.2208142,-3.3318882
805,1715789463.4069586,-3.7490854,-3.437882,-1.2735213,0.6488153,-1.2208142,-3.3318882
806,1715789463.4091258,-3.7490854,-3.437882,-1.2735213,-0.44646615,-1.2177598,-0.9861656
807,1715789463.4156015,-3.7322457,-3.353438,-1.0775433,-1.2656364,-0.8249735,1.1292608
808,1715789463.432461,-3.7322457,-3.353438,-1.0775433,-1.9198731,-0.35338554,3.2898912
809,1715789463.4353216,-2.5783124,-3.037384,-0.21037734,-2.5325708,0.29046643,6.9630237
810,1715789463.4429624,-1.8402526,-3.0322587,0.022697324,-2.5521185,0.46273044,8.504848
811,1715789463.4643323,-1.8402526,-3.0322587,0.022697324,-2.5521185,0.52564955,9.807823
812,1715789463.4670963,-0.31776255,-3.063498,0.294089,-2.1422281,0.48655418,10.622718
813,1715789463.4767926,0.49201941,-3.033479,0.34656128,-2.1422281,0.48655418,10.622718
814,1715789463.4779027,0.49201941,-3.033479,0.34656128,-1.7415005,0.20677789,11.300778
815,1715789463.4856257,1.3333153,-2.9238973,0.34729347,-1.2185998,-0.32834008,11.65508
816,1715789463.4943478,1.910053,-2.794791,0.3219115,-0.7903833,-0.71929383,11.6880665
817,1715789463.50497,1.910053,-2.794791,0.3219115,-0.7903833,-0.9111055,11.579944
818,1715789463.50598,2.3596065,-2.6281,0.25796852,-0.36338845,-0.9111055,11.579944
819,1715789463.51497,2.4401455,-2.5297449,0.18694785,-0.17096591,-0.75533485,11.553677
820,1715789463.541957,2.4401455,-2.5297449,0.18694785,-0.12270755,-0.21471913,11.751596
821,1715789463.5429635,3.156484,-2.4438062,0.022941383,-0.5063309,0.8194757,11.218922
822,1715789463.545207,3.551887,-2.2346492,-0.05759751,-0.5063309,0.8194757,11.218922
823,1715789463.5646913,3.551887,-2.2346492,-0.05759751,-0.7983245,1.3600914,10.678307
824,1715789463.5660827,3.1974854,-2.0403795,-0.3065359,-1.2008847,1.7076738,10.730229
825,1715789463.5753748,2.9236534,-1.9466617,-0.37291947,-1.2008847,1.7076738,10.730229
826,1715789463.5775073,2.9236534,-1.9466617,-0.37291947,-1.8154151,1.7033978,11.460825
827,1715789463.6040382,2.9236534,-1.9466617,-0.37291947,-2.501417,1.1175779,12.494409
828,1715789463.605767,4.4556313,-1.3921331,0.41196862,-2.2570708,-0.19394971,12.181645
829,1715789463.6308172,4.7778172,-1.1380695,0.7863829,-2.2570708,-0.19394971,12.181645
830,1715789463.632788,4.951342,-0.1513155,1.238133,1.320767,-1.4285084,7.505472
831,1715789463.6443827,4.641389,0.055645052,0.9052388,2.0898464,-1.1994339,6.051002
832,1715789463.668845,3.6097288,0.4097721,0.24747404,2.5608234,-0.74067414,4.5837035
833,1715789463.6712186,3.6097288,0.4097721,0.24747404,2.6591728,-0.36254853,3.5550067
834,1715789463.6732652,3.6097288,0.4097721,0.24747404,2.4838545,-0.052839845,2.5513551
835,1715789463.6742692,3.2001703,0.375116,-0.029530926,2.4838545,-0.052839845,2.5513551
836,1715789463.688288,3.2001703,0.375116,-0.029530926,1.9847776,0.11575896,1.8054886
837,1715789463.689337,2.9878404,0.29994637,-0.33777523,1.9847776,0.11575896,1.8054886
838,1715789463.6920972,2.9878404,0.29994637,-0.33777523,1.2975541,0.05100725,1.3375658
839,1715789463.6933422,3.0320148,0.24747404,-0.53280747,1.2975541,0.05100725,1.3375658
840,1715789463.7013967,3.0320148,0.3392396,-0.63750803,0.37636936,-0.018020526,0.6558402
841,1715789463.7034397,3.1489182,0.3392396,-0.63750803,0.37636936,-0.018020526,0.6558402
842,1715789463.7163684,3.1489182,0.3392396,-0.63750803,-0.4892267,0.079107046,-0.07903069
843,1715789463.7194936,3.3278122,0.41758195,-0.60968554,-0.4892267,0.079107046,-0.07903069
844,1715789463.7266896,3.3278122,0.38439015,-0.44564855,-1.1379656,0.26419923,-0.8420014
845,1715789463.7278676,3.560429,0.38439015,-0.44564855,-1.1379656,0.26419923,-0.8420014
846,1715789463.7303634,3.560429,0.38439015,-0.44564855,-1.7714329,0.6356053,-2.1016054
847,1715789463.7315946,3.7913072,0.31239328,-0.20403185,-1.7714329,0.6356053,-2.1016054
848,1715789463.7460825,3.8769715,0.17572121,-0.031239327,-2.0493765,0.9477574,-3.1773393
849,1715789463.75923,3.8769715,0.17572121,-0.031239327,-2.0493765,0.9477574,-4.249408
850,1715789463.76057,3.845244,0.0017084008,-0.0021965152,-2.2705097,1.3045027,-4.249408
851,1715789463.7786388,3.819862,-0.19500175,0.015375607,-2.4586563,1.5769486,-4.937242
852,1715789463.7807822,3.7571392,-0.5210927,0.4795725,-2.54601,1.779145,-5.662339
853,1715789463.781951,3.7571392,-0.5210927,0.4795725,-2.2472968,1.8445076,-6.398432
854,1715789463.7961314,3.7139413,-0.5120626,0.60724497,-1.8117499,1.6771306,-6.8914
855,1715789463.8047986,3.7139413,-0.48445365,0.6933971,-1.4140767,1.3643675,-7.2603626
856,1715789463.8060858,3.6773326,-0.48445365,0.6933971,-1.4140767,1.3643675,-7.2603626
857,1715789463.8319912,3.7427402,-0.45931572,0.7146301,-1.4140767,1.3643675,-7.2603626
858,1715789463.8334975,3.888442,-0.5601419,0.5413495,-0.53381985,1.0888673,-8.551121
859,1715789463.8459868,3.888442,-0.5601419,0.5413495,-0.53381985,1.4657712,-8.983613
860,1715789463.8473454,3.789599,-0.65922916,0.513771,-0.4556291,1.4657712,-8.983613
861,1715789463.8487175,3.789599,-0.65922916,0.513771,-0.27236953,1.9446895,-9.317145
862,1715789463.849731,3.6390157,-0.82299155,0.5808867,-0.27236953,1.9446895,-9.317145
863,1715789463.867154,3.6390157,-0.82299155,0.5808867,0.05627596,2.2751677,-9.548664
864,1715789463.869995,3.494259,-0.9547824,0.6924209,0.05627596,2.2751677,-9.548664
865,1715789463.88245,3.494259,-0.9547824,0.79858583,1.8442786,2.440712,-9.609139
866,1715789463.884833,2.8868005,-1.1822438,0.79858583,1.8442786,2.440712,-9.609139
867,1715789463.9016562,2.8868005,-1.4282535,0.38829508,2.4936283,2.3075435,-9.582261
868,1715789463.9029942,2.5587878,-1.4282535,0.38829508,3.056235,2.110234,-9.579207
869,1715789463.9175563,2.437461,-1.6323159,0.24137263,3.442302,1.743104,-9.60242
870,1715789463.9305847,2.1553304,-1.9803414,0.065407336,3.6860373,1.2024882,-9.600587
871,1715789463.9519844,2.1094477,-2.1238472,0.020988923,3.8876228,-0.024740042,-9.303707
872,1715789463.9543133,2.088459,-2.3371532,0.03441207,3.8039343,-0.34422258,-9.0892935
873,1715789463.9675708,2.072839,-2.4765098,0.05662128,3.7251327,-0.4083634,-8.998885
874,1715789463.9814203,2.072839,-2.4765098,0.05662128,3.7251327,-0.22143865,-8.990944
875,1715789463.9834409,1.9874192,-2.6403027,0.07492557,3.51133,-0.22143865,-8.990944
876,1715789463.9940813,1.102437,-3.0652065,-0.011714748,3.4160347,0.0143553335,-9.019654
877,1715789464.0127294,0.5132829,-3.262649,-0.15717287,3.29264,0.1469131,-9.130221
878,1715789464.0299754,-1.4719398,-3.7886226,-0.9147571,2.5052347,-0.13713925,-8.863884
879,1715789464.0483732,-1.4719398,-3.7886226,-0.9147571,1.2193633,-0.3839288,-7.236539
880,1715789464.049625,-4.1076055,-4.0951586,-1.5639799,-0.0048105638,-0.3662137,-4.9971066
881,1715789464.0509493,-4.1076055,-4.0951586,-1.5639799,-1.276632,-0.20922135,-1.7625753
882,1715789464.0522764,-4.865922,-3.9550698,-1.3857876,-1.276632,-0.20922135,-1.7625753
883,1715789464.0667875,-5.076055,-3.635599,-0.9330614,-1.997453,-0.0106901415,1.5550338
884,1715789464.0793784,-4.6011195,-3.460335,-0.51669973,-2.2900574,0.048563786,4.49635
885,1715789464.0808368,-3.1364713,-3.3722303,-0.0370967,-2.2900574,0.048563786,4.49635
886,1715789464.082664,-3.1364713,-3.3722303,-0.0370967,-2.25646,0.1908954,7.9226933
887,1715789464.1023648,-0.9215907,-3.3126807,0.34070393,-1.5796212,0.2751948,10.463893
888,1715789464.1184092,-0.9215907,-3.3126807,0.34070393,-1.5796212,0.121256754,11.121183
889,1715789464.1204748,0.08908089,-3.1877232,0.32093528,-0.9602038,0.121256754,11.121183
890,1715789464.1427274,1.7458025,-2.88436,-0.03904916,-0.30902144,-0.79809546,11.363086
891,1715789464.1557753,1.9156665,-2.837013,-0.049543623,-0.30902144,-0.79809546,11.363086
892,1715789464.1576762,1.9156665,-2.837013,-0.049543623,-0.41836634,-0.7089091,11.503585
893,1715789464.1707323,2.2373338,-2.854341,0.0019524579,-0.62728226,-0.3680463,11.8096285
894,1715789464.1853569,2.2373338,-2.854341,0.0019524579,-0.62728226,-0.3680463,11.983726
895,1715789464.186825,2.730116,-2.9075456,0.07150877,-1.0066296,0.5665775,12.210967
896,1715789464.1949968,2.730116,-2.9075456,0.07150877,-1.0066296,1.1322387,11.984947
897,1715789464.1970694,3.3732069,-2.8389654,0.077122085,-1.358488,1.1322387,11.984947
898,1715789464.2040596,3.3912668,-2.5812411,-0.065163285,-1.6859118,1.5781704,11.6880665
899,1715789464.2221882,3.3912668,-2.5812411,-0.065163285,-2.3596961,2.0186043,11.7497635
900,1715789464.2242224,3.5806859,-2.628344,-0.2706595,-2.3596961,2.0186043,11.7497635
901,1715789464.226351,3.5806859,-2.628344,-0.2706595,-3.0414217,2.154827,11.923861
902,1715789464.2337646,3.5806859,-2.628344,-0.2706595,-3.0414217,2.154827,12.462644
903,1715789464.2352781,3.5675068,-2.288586,-0.038316987,-3.724369,2.2030854,12.462644
904,1715789464.2450125,3.9379857,-2.2927349,0.15107143,-4.0951643,1.7632625,12.779683
905,1715789464.254899,4.92474,-2.3373973,0.8527665,-4.0951643,1.7632625,12.779683
906,1715789464.2571814,4.92474,-2.3373973,0.8527665,-3.9229002,0.47616947,12.2286825
907,1715789464.270431,5.542723,-1.8241448,1.7157835,-2.4989734,-0.7974846,10.877448
908,1715789464.285126,5.4746003,-0.5530642,1.9915682,1.6677384,-2.59465,7.563504
909,1715789464.2971663,4.781234,-0.06662763,0.944288,3.8479166,-3.4895678,4.5971427
910,1715789464.305515,4.046591,0.14716652,0.21818718,3.8479166,-3.4895678,4.5971427
911,1715789464.3075328,4.046591,0.14716652,0.21818718,4.091652,-3.2458324,3.2660675
912,1715789464.3273842,3.3431878,0.26675457,-0.44930938,2.8424323,-1.6936239,2.2447007
913,1715789464.3340604,3.3431878,0.22843759,-0.5481831,1.8699349,-0.8567385,1.908114
914,1715789464.3360586,3.3966362,0.22843759,-0.5481831,1.8699349,-0.8567385,1.908114
915,1715789464.3550603,3.5550597,0.33118567,-0.5840595,1.8699349,-0.8567385,1.908114
916,1715789464.3572302,3.6912441,0.51425916,-0.47884035,0.05933029,0.020463986,0.69188124
917,1715789464.36723,3.9016213,0.6655746,-0.26968327,0.05933029,0.020463986,0.69188124
918,1715789464.3755064,3.9016213,0.6655746,-0.26968327,-0.48800498,0.23915374,-0.22747095
919,1715789464.377968,4.0226736,0.75392336,-0.20085911,-0.79588103,0.50426924,-1.1168908
920,1715789464.385222,3.9989998,0.82250345,-0.16571487,-1.208826,0.88789266,-2.4821746
921,1715789464.3930619,4.0041256,0.6743607,-0.090789296,-1.5044848,1.0283916,-3.5389714
922,1715789464.4034228,3.8550062,0.46224442,-0.028066583,-1.7048485,1.14018,-4.4772606
923,1715789464.4154851,3.733466,0.34216827,0.028798755,-1.8257998,1.2360858,-5.150434
924,1715789464.435943,3.733466,0.34216827,0.028798755,-1.8257998,1.217149,-6.482731
925,1715789464.4379945,3.679041,0.153512,0.3499781,-1.6779705,1.217149,-6.482731
926,1715789464.4442508,3.679041,0.153512,0.3499781,-1.2076043,0.98624194,-7.4100246
927,1715789464.4459872,3.8916147,0.071264714,0.52719414,-1.2076043,0.98624194,-7.4100246
928,1715789464.4741101,3.8916147,0.071264714,0.52719414,-1.2076043,0.98624194,-8.254851
929,1715789464.4762518,4.045127,-0.20403185,0.41538543,-0.28825203,0.30207285,-8.975061
930,1715789464.4782515,4.045127,-0.20403185,0.41538543,-0.09399689,0.0888809,-9.508958
931,1715789464.5020857,4.045127,-0.4253918,0.2362474,-0.09399689,0.0888809,-9.508958
932,1715789464.5033326,3.632426,-0.7656381,0.2438132,-0.1642464,0.69974613,-10.501614
933,1715789464.5167336,3.4705858,-0.88180935,0.37999713,0.01779145,0.90316427,-10.556591
934,1715789464.537432,3.4705858,-0.88180935,0.5845476,1.0495429,0.799928,-10.743516
935,1715789464.5395296,3.1721036,-1.1578381,0.5845476,1.0495429,0.799928,-10.743516
936,1715789464.5408769,2.6488447,-1.2076257,0.5115745,1.8308395,0.32528573,-10.646999
937,1715789464.5629158,2.6488447,-1.2076257,0.5115745,2.232178,-0.044898596,-10.311634
938,1715789464.563922,2.4281864,-1.379198,0.38341394,2.5156195,-0.3717115,-9.953056
939,1715789464.5657444,2.4269662,-1.5334727,0.24869433,2.5156195,-0.3717115,-9.953056
940,1715789464.5810697,2.4879806,-1.6869847,0.1552204,2.6243534,-0.63132924,-9.774684
941,1715789464.5880136,2.5409715,-1.8719802,0.14277348,2.6414578,-0.9673051,-9.686719
942,1715789464.5970526,2.5409715,-1.8719802,0.14277348,2.6414578,-1.4217888,-9.523619
943,1715789464.5982058,2.5033865,-2.0306172,0.102259986,2.527226,-1.4217888,-9.523619
944,1715789464.600218,2.4501517,-2.2222023,0.038316987,2.527226,-1.4217888,-9.523619
945,1715789464.6194632,2.4059772,-2.4098823,0.022453265,1.9267453,-1.566564,-9.188253
946,1715789464.6326706,2.4059772,-2.4098823,0.022453265,1.3928491,-1.2342533,-9.121058
947,1715789464.6344154,1.812186,-2.819197,0.28920785,0.96279997,-0.464563,-9.111284
948,1715789464.651446,0.53524804,-3.4964557,0.32679266,0.89316136,1.1652255,-9.524229
949,1715789464.6682782,-0.914513,-3.9614153,0.044418417,1.0049497,1.312444,-9.417328
950,1715789464.6809564,-1.5056502,-4.0954027,-0.110801995,0.99456495,1.0955868,-9.025152
951,1715789464.6820064,-3.7510378,-4.4063315,-0.6109058,0.99456495,1.0955868,-9.025152
952,1715789464.683212,-3.7510378,-4.4063315,-0.6109058,0.7960338,0.23854288,-7.389255
953,1715789464.6969259,-3.7510378,-4.4063315,-0.6109058,0.2945134,-1.2550226,-2.1388683
954,1715789464.7041588,-5.1773386,-4.113219,-0.7878473,-0.011530082,-1.4089607,1.513495
955,1715789464.7237186,-5.1773386,-4.113219,-0.7878473,-0.011530082,0.061391957,7.284339
956,1715789464.7262418,-3.3383064,-3.7310255,-0.6902244,-1.1874456,0.061391957,7.284339
957,1715789464.7466075,-3.3383064,-3.7310255,-0.6902244,-1.1874456,1.2165382,11.208537
958,1715789464.7477715,-0.7558758,-3.3717422,-0.117635585,-2.0481548,1.2165382,11.208537
959,1715789464.759822,0.31703037,-3.2477612,0.030507157,-2.0212767,0.84757555,11.750986
960,1715789464.7678885,0.31703037,-3.2477612,0.030507157,-1.8984928,0.46578476,11.837117
961,1715789464.7689147,0.83006924,-3.1325662,0.10421244,-1.8984928,0.46578476,11.837117
962,1715789464.780982,0.83006924,-2.8814313,0.2135501,-1.4684436,-0.3381139,11.601934
963,1715789464.782224,2.0650294,-2.674471,0.2672427,-1.4684436,-0.3381139,11.601934
964,1715789464.7836752,2.0650294,-2.674471,0.2672427,-1.0658835,-0.75716746,11.319715
965,1715789464.795749,2.3979235,-2.3652198,0.2294138,-0.5258786,-0.9746355,10.926317
966,1715789464.804083,2.6215105,-2.2236667,0.17401282,-0.26320657,-0.732122,10.771769
967,1715789464.8160617,2.862151,-2.064053,0.09274176,-0.19723311,-0.30757064,10.651428
968,1715789464.8313627,2.862151,-1.9307978,0.013179091,-0.27786732,0.18417588,10.487717
969,1715789464.832453,3.008341,-1.9307978,0.013179091,-0.27786732,0.18417588,10.487717
970,1715789464.839457,3.008341,-1.9307978,0.013179091,-0.48556152,0.7816021,10.34233
971,1715789464.8417346,3.5040522,-1.6476915,-0.020988923,-0.48556152,0.7816021,10.34233
972,1715789464.848112,3.5040522,-1.6476915,-0.020988923,-0.89423037,1.2843442,10.247035
973,1715789464.8640225,3.5040522,-1.6476915,-0.020988923,-0.89423037,1.2843442,9.548205
974,1715789464.865044,4.080515,-0.9994449,-0.038316987,-1.5600735,1.8249599,9.548205
975,1715789464.8793793,4.080515,-0.9994449,-0.038316987,-1.5600735,1.8249599,9.359448
976,1715789464.8812723,3.9238305,-0.74513733,-0.11861181,-2.1104631,0.98929626,9.504223
977,1715789464.894332,3.654879,-0.42319524,0.10665302,-2.1104631,0.98929626,9.504223
978,1715789464.8957386,3.9340808,-0.15448824,1.0243388,-1.3432163,0.105374254,9.467571
979,1715789464.918868,3.9340808,-0.15448824,1.0243388,0.10453431,-0.41874814,8.920847
980,1715789464.9211493,4.785383,0.39146784,1.8002273,3.401985,-0.9147707,6.5537443
981,1715789464.9310386,4.785383,0.39146784,1.8002273,5.2034264,-1.2904528,4.250782
982,1715789464.9321942,4.554993,0.9791882,1.0248269,5.2034264,-1.2904528,4.250782
983,1715789464.9555814,3.2763162,1.3904246,-0.6035841,5.1221814,-1.4480561,1.7419586
984,1715789464.9666655,3.0356755,1.490488,-0.96771747,4.2468114,-1.2366967,1.1213195
985,1715789464.9787788,2.986132,1.6022968,-1.033857,3.423976,-1.0027353,0.6643923
986,1715789464.9904425,3.3268359,1.7333556,-1.1724815,1.2218069,-0.6020077,-0.5616142
987,1715789465.0128484,3.3209784,1.7494634,-1.1890775,1.2218069,-0.6020077,-0.5616142
988,1715789465.0145211,3.3209784,1.7494634,-1.1890775,0.094149604,-0.2843578,-1.3337479
989,1715789465.0155654,3.2428803,1.6828357,-1.153201,-0.8862891,-0.10170906,-1.9861519
990,1715789465.0303178,3.1506267,1.5954633,-1.0231185,-1.6254361,-0.04917465,-2.5597544
991,1715789465.0535247,3.1506267,1.5954633,-1.0231185,-2.6443594,-0.38637227,-4.3593636
992,1715789465.0559876,3.1469657,1.1634514,-0.11153416,-2.6443594,-0.38637227,-4.3593636
993,1715789465.070316,3.3226867,1.1263547,0.06199054,-2.5453992,-0.3680463,-4.7545934
994,1715789465.0824194,3.3226867,1.1263547,0.06199054,-2.5453992,-0.3680463,-5.645846
995,1715789465.0836782,3.7542107,1.1209855,0.3014107,-1.9956204,-0.33383787,-5.645846
996,1715789465.0960166,3.9086988,1.080228,0.29921418,-1.6345991,-0.3894266,-6.2646523
997,1715789465.1020515,3.9086988,1.080228,0.29921418,-1.6345991,-0.42913285,-6.844363
998,1715789465.1040232,3.9377415,0.9394069,0.20988922,-1.4055246,-0.42913285,-6.844363
999,1715789465.1190498,3.8491488,0.7656381,0.13374338,-1.2809081,-0.4071417,-7.458894
1000,1715789465.1319754,3.8491488,0.7656381,0.11299851,-1.2021065,-0.23426682,-8.129623
