id,timestamp,acc_x,acc_y,acc_z,gyro_x,gyro_y,gyro_z
0,1715789521.880548,1.0172611,0.8356825,1.1229379,1.0000628,0.0852157,-1.5591571
1,1715789521.8993447,1.4790175,0.9467286,0.7929725,-0.07994699,-1.2202033,-2.5860217
2,1715789521.9059205,1.5119957,1.1261107,0.9191501,-0.07994699,-1.2202033,-2.5860217
3,1715789521.9146738,1.5119957,1.3042724,1.3589412,-0.9852493,-1.221425,-2.490116
4,1715789521.9158204,1.7484872,1.3042724,1.3589412,-0.9852493,-1.221425,-2.490116
5,1715789521.9299417,1.7484872,1.3042724,1.3589412,-1.5533539,-1.1548407,-2.2708151
6,1715789521.9323018,2.029885,1.3274579,1.7931497,-1.5533539,-1.1548407,-2.2708151
7,1715789521.9447436,2.8179765,1.434599,2.9795425,-1.7500526,-0.9062186,-2.21767
8,1715789521.9460905,2.8179765,1.434599,2.9795425,-1.4947109,-0.7761043,-2.484618
9,1715789521.9523048,3.4544778,1.2444785,3.636331,-0.72563154,-1.1878275,-3.4070246
10,1715789521.9645846,3.4544778,1.2444785,3.636331,-0.1324814,-1.5115861,-4.4088435
11,1715789521.9673944,3.9194372,1.0487446,4.314322,-0.1324814,-1.5115861,-4.4088435
12,1715789521.977667,3.9194372,0.756608,4.789288,0.37636936,-1.0601566,-5.580483
13,1715789521.978826,3.8769715,0.756608,4.789288,0.37636936,-1.0601566,-5.580483
14,1715789521.9879255,3.628277,0.43368974,5.0606794,0.7569384,-0.17867808,-6.300693
15,1715789522.0004478,3.628277,0.43368974,5.0606794,2.0360901,1.2220359,-6.4937267
16,1715789522.0017455,2.3757143,-0.27212384,5.1524453,2.0360901,1.2220359,-6.4937267
17,1715789522.014512,1.9212795,-0.50718147,4.938163,2.9536097,1.5482379,-6.3452864
18,1715789522.0366297,1.9212795,-0.50718147,4.938163,2.9536097,1.9098701,-6.188905
19,1715789522.0383449,1.4716958,-0.7983418,4.4702744,4.9548044,1.8848248,-6.0508494
20,1715789522.051713,1.6079102,-1.0526494,4.122981,6.3463554,1.9055941,-6.2780914
21,1715789522.053133,1.3618699,-1.2886528,3.695637,6.3463554,1.9055941,-6.2780914
22,1715789522.0653265,1.3618699,-1.2886528,3.2926676,7.159417,1.2867876,-6.4973917
23,1715789522.0676823,1.1910299,-1.8263415,3.2926676,7.159417,1.2867876,-6.4973917
24,1715789522.079482,1.1910299,-1.956424,3.0400686,7.788608,0.7302894,-6.62323
25,1715789522.081129,0.9860218,-1.956424,3.0400686,7.788608,0.7302894,-6.62323
26,1715789522.0878701,0.9860218,-1.956424,3.0400686,8.532642,-0.12858713,-6.8394766
27,1715789522.089166,0.85960007,-2.0569754,2.7645278,8.532642,-0.12858713,-6.8394766
28,1715789522.1125448,0.65019906,-2.1358058,2.3986557,8.532642,-0.12858713,-6.8394766
29,1715789522.114443,0.513527,-2.3988998,2.1177459,9.814238,-2.1664336,-6.4900613
30,1715789522.1282465,0.513527,-2.3988998,2.1177459,10.379899,-3.2293391,-6.4894505
31,1715789522.1300354,0.67850965,-2.3591185,2.0747917,10.379899,-3.2293391,-6.4894505
32,1715789522.1462305,1.0658286,-2.315432,1.4907322,10.671281,-4.5017715,-6.8895674
33,1715789522.1543682,1.2147034,-2.2053623,1.1595465,10.3994465,-4.831028,-7.1840043
34,1715789522.1627705,1.2147034,-2.2053623,0.5782021,9.196042,-5.0662107,-7.679416
35,1715789522.1650631,1.3325831,-2.0398915,0.5782021,9.196042,-5.0662107,-7.679416
36,1715789522.1843016,1.4516829,-1.8900403,0.51621157,9.196042,-5.0662107,-7.679416
37,1715789522.1860068,1.5781351,-1.7875364,0.6997427,7.1893497,-5.22076,-8.406345
38,1715789522.2134957,1.6137675,-1.8300022,0.7136539,5.672571,-4.644103,-8.695285
39,1715789522.2157283,1.2354482,-1.7753334,0.68827194,4.953583,-4.1218133,-8.448496
40,1715789522.245984,1.2354482,-1.7753334,0.68827194,4.3738713,-3.5622606,-8.128402
41,1715789522.2473497,0.90182203,-1.5044299,0.21989559,3.002479,-2.3209825,-7.4912696
42,1715789522.2662978,0.90182203,-1.5044299,0.21989559,2.4123833,-2.01555,-7.00441
43,1715789522.2694016,0.7234162,-1.6418341,0.3397277,2.2077434,-1.8640553,-6.7215796
44,1715789522.2707481,0.68070614,-1.8973621,0.43930307,2.1900282,-1.720502,-6.510831
45,1715789522.2879262,0.51645565,-2.2619836,0.3226437,2.1625392,-0.6282749,-6.4045405
46,1715789522.2965403,0.1889003,-2.571967,0.45077375,2.1625392,-0.6282749,-6.4045405
47,1715789522.3177826,-0.671432,-2.9102302,0.7783291,2.1625392,-0.6282749,-6.4045405
48,1715789522.3203084,-1.4028716,-3.264113,0.6648424,3.1240413,-0.10903945,-5.2438965
49,1715789522.3450441,-1.7397012,-3.5533514,0.5020563,3.3751068,-0.06261369,-4.0832524
50,1715789522.3469434,-1.9171307,-3.9924107,0.2277054,3.020194,0.78954333,-1.5341117
51,1715789522.3535018,-1.8209721,-4.3558116,0.29530928,2.5290585,1.9550742,0.35651624
52,1715789522.3826265,-1.8221923,-4.4907756,0.4166057,2.5290585,1.9550742,0.35651624
53,1715789522.384886,-1.4214199,-4.6133227,0.24137263,2.5473845,3.303254,4.5537715
54,1715789522.39312,-0.89864933,-4.538885,-0.14545812,2.308536,3.5897496,5.460906
55,1715789522.4206789,-0.89864933,-4.538885,-0.14545812,1.3543646,4.333173,6.6716413
56,1715789522.4226792,-0.07028849,-4.16984,-0.8020026,-1.1941652,5.490762,8.32281
57,1715789522.4366822,-0.07028849,-4.16984,-0.67777747,-2.5093582,5.623931,9.317299
58,1715789522.4386775,-0.05222825,-4.033168,-0.67777747,-2.5093582,5.623931,9.317299
59,1715789522.4406831,0.10714114,-3.883317,-0.4846977,-3.3651803,5.3374352,10.305678
60,1715789522.4677138,0.10714114,-3.883317,-0.4846977,-3.3651803,5.3374352,11.561007
61,1715789522.469714,1.0990202,-3.6971014,-0.22502078,-4.8459177,3.9263363,12.839547
62,1715789522.4761682,2.4980175,-3.6756244,0.035144243,-4.8459177,3.9263363,12.839547
63,1715789522.4781685,2.4980175,-3.6756244,0.035144243,-5.5441365,2.645352,14.171234
64,1715789522.4851701,2.4980175,-3.6756244,0.035144243,-5.5441365,1.8842138,14.697188
65,1715789522.487171,3.4910862,-3.598746,0.24942651,-5.869117,1.8842138,14.697188
66,1715789522.4941723,4.173257,-3.5579886,0.38878322,-5.869117,1.8842138,14.697188
67,1715789522.496173,4.173257,-3.5579886,0.38878322,-6.155613,1.4669929,14.995291
68,1715789522.5151768,5.9258933,-3.7032025,0.96722937,-6.6650743,1.1334605,14.172456
69,1715789522.52818,6.3390822,-3.554816,1.2439903,-6.559395,0.7846564,13.315412
70,1715789522.5461838,6.3390822,-3.554816,1.7157835,-5.9711313,-0.10354166,12.09246
71,1715789522.5481684,5.9627457,-3.2279925,1.7157835,-5.9711313,-0.10354166,12.09246
72,1715789522.555211,5.3879604,-2.8994915,2.131413,-4.5789695,-1.2293663,11.374693
73,1715789522.5632129,5.031881,-2.594176,2.0996854,-3.0017154,-1.9611828,10.977019
74,1715789522.599771,4.9428,-2.4074416,1.8700277,-2.2527947,-2.002111,10.667311
75,1715789522.6018429,4.508378,-1.5456756,1.1129316,-1.2705233,-1.0870347,8.680166
76,1715789522.6290903,4.508378,-1.5456756,1.1129316,-1.675527,-0.355829,8.021043
77,1715789522.6313338,3.9206579,-0.9508775,0.98626584,-2.133676,0.64965516,7.3405385
78,1715789522.633084,3.6070442,-0.6770453,1.0597271,-2.4360542,1.6618589,6.7498317
79,1715789522.645667,3.6070442,-0.6770453,1.0902342,-2.4360542,1.6618589,6.7498317
80,1715789522.6481748,3.3114605,-0.37926495,1.0902342,-2.5380688,2.4065037,6.2947373
81,1715789522.6742814,2.9148672,0.058085624,0.8007824,-2.5380688,2.4065037,6.2947373
82,1715789522.676623,2.4909093,0.2967736,0.18743597,-3.5533268,2.5103507,4.570265
83,1715789522.6929798,2.4909093,0.2967736,0.117391534,-5.430516,1.6007724,3.934965
84,1715789522.6940968,1.8624619,0.47103047,0.117391534,-5.430516,1.6007724,3.934965
85,1715789522.7163873,1.8624619,0.47103047,0.117391534,-6.24541,1.7437148,3.8732674
86,1715789522.7194839,1.8095014,0.57917833,0.65019906,-7.034037,1.7785342,3.8176787
87,1715789522.7267797,1.9517869,0.4515059,1.2618065,-7.034037,1.7785342,3.8176787
88,1715789522.728574,1.9517869,0.4515059,1.2618065,-7.351076,1.1230757,3.9306889
89,1715789522.744961,3.2555711,0.72927356,3.017127,-7.1366625,-0.17745635,4.120057
90,1715789522.746662,3.2555711,0.72927356,3.017127,-6.286338,-1.9098701,4.284991
91,1715789522.753886,4.982581,1.4992741,3.8559825,-6.286338,-1.9098701,4.284991
92,1715789522.7559512,4.982581,1.4992741,3.8559825,-4.370054,-3.5921931,4.1683154
93,1715789522.7693431,4.982581,1.4992741,3.8559825,-4.370054,-3.719864,3.626478
94,1715789522.7718458,7.7900634,2.759891,4.1239576,-2.582051,-3.1370986,2.4126887
95,1715789522.796719,7.9916544,2.854097,4.1600776,-2.582051,-3.1370986,2.4126887
96,1715789522.797877,7.9950714,2.4018283,4.216211,-1.9620228,0.22571471,-1.3184763
97,1715789522.818337,5.2312756,-0.20647243,3.965076,-0.16119206,3.2091806,-4.058207
98,1715789522.8273997,5.2312756,-0.20647243,3.965076,1.2731196,3.143818,-3.812639
99,1715789522.8446474,5.158303,-0.30360723,3.4754667,1.2731196,3.143818,-3.812639
100,1715789522.846027,5.158303,-0.30360723,3.4754667,2.4924066,2.7608054,-3.423518
101,1715789522.8480477,5.4089494,-0.18377511,3.007853,3.4471889,2.440712,-3.532863
102,1715789522.8703196,5.6867166,-0.055645052,2.1709502,3.4471889,2.440712,-3.532863
103,1715789522.8716052,5.4697194,-0.044662476,1.3447859,4.3378305,2.1762075,-5.55727
104,1715789522.8959174,5.4697194,-0.044662476,1.3447859,4.3378305,2.1762075,-6.3733864
105,1715789522.8984013,3.477175,-0.28335047,0.29067218,2.1393263,3.7980547,-6.458907
106,1715789522.9260905,3.2094443,-0.48567393,0.7180469,0.8797223,5.106528,-5.836436
107,1715789522.9285417,3.3192701,-0.5464747,0.9123165,1.1313988,5.1584516,-5.90302
108,1715789522.9516444,3.3192701,-0.5464747,0.9123165,1.6445256,4.9745812,-6.1693573
109,1715789522.952795,3.5736082,-0.9457524,1.2046971,2.675666,4.245819,-6.773503
110,1715789522.9545856,3.422506,-1.0197017,0.9611279,3.6622136,3.8860192,-7.3324447
111,1715789522.9703588,3.422506,-1.0197017,0.9611279,4.363487,3.691764,-7.760661
112,1715789522.972381,3.3334255,-1.5329845,0.5669755,5.0067277,3.2140675,-8.069759
113,1715789522.9951496,3.3334255,-1.7192001,0.19060871,5.723273,2.3258693,-8.4252825
114,1715789522.9968514,3.4049342,-1.7192001,0.19060871,5.723273,2.3258693,-8.4252825
115,1715789522.9983082,3.4049342,-1.7192001,0.19060871,5.8912606,2.0088303,-8.772254
116,1715789523.011207,3.4232385,-1.9083446,-0.32679266,5.7128882,1.8671097,-9.267055
117,1715789523.0240612,3.4232385,-1.9083446,-0.32679266,5.7128882,1.8506162,-9.3764
118,1715789523.0260615,3.324639,-1.9215238,-0.4458926,5.409288,1.8506162,-9.3764
119,1715789523.0518196,2.8907056,-1.7155395,-0.67948586,3.7404044,1.1566733,-9.519342
120,1715789523.0694287,2.7537894,-1.5966836,-0.6323828,3.020805,1.0228939,-9.267055
121,1715789523.0717862,2.7122998,-1.5171208,-0.61017364,3.020805,1.0228939,-9.267055
122,1715789523.073147,2.7122998,-1.5171208,-0.61017364,2.3598487,1.1530081,-9.056917
123,1715789523.0953116,2.481635,-1.2710807,-0.42417148,1.4356097,1.2867876,-8.639086
124,1715789523.101904,2.3906019,-1.2564372,-0.18231077,1.0153344,1.8231273,-8.40268
125,1715789523.1194909,2.3849885,-1.2283707,0.21013328,1.1527791,1.6551393,-8.1339
126,1715789523.1489718,2.281264,-1.247163,0.34509695,2.1026745,0.88056225,-7.896884
127,1715789523.151082,2.0652735,-1.2867004,0.31556603,2.4465916,0.6814202,-7.8583994
128,1715789523.1524248,2.0652735,-1.2867004,0.31556603,2.9334512,0.44318274,-7.843739
129,1715789523.1729734,2.0652735,-1.2867004,0.31556603,3.4435236,0.63621616,-7.76677
130,1715789523.1762683,1.6955267,-1.5754505,0.117147475,3.4435236,0.63621616,-7.76677
131,1715789523.1966197,1.4155625,-1.8570925,0.09615856,3.4435236,0.63621616,-7.76677
132,1715789523.1988726,1.2166559,-2.3032293,0.00097622897,3.6964219,0.77732605,-7.907269
133,1715789523.200918,0.6392164,-3.4125001,-0.19060871,3.7587302,0.40958515,-8.327544
134,1715789523.2140653,0.6392164,-3.4125001,-0.19060871,3.7587302,0.40958515,-8.640918
135,1715789523.2164977,-0.5745413,-4.1974187,-0.3824377,3.5351536,-0.3118467,-8.640918
136,1715789523.2301931,-1.9276252,-4.7895317,-0.375116,3.5351536,-0.3118467,-8.640918
137,1715789523.231447,-1.9276252,-4.7895317,-0.375116,2.7526352,-1.2843442,-8.232249
138,1715789523.2336369,-2.7330446,-5.51246,-0.12349297,1.9517908,-1.4871514,-6.804046
139,1715789523.2575948,-2.7330446,-5.9439535,0.04612682,1.9517908,-1.4871514,-6.804046
140,1715789523.2591558,-3.3095078,-6.232185,0.34387666,0.3983605,1.4401149,-0.90430963
141,1715789523.2662067,-3.3095078,-6.232185,0.4825012,0.06543894,2.468812,1.2508229
142,1715789523.268643,-3.0510511,-6.019123,0.4825012,0.06543894,2.468812,1.2508229
143,1715789523.2766159,-2.5175421,-5.798983,0.41587353,0.06543894,2.468812,1.2508229
144,1715789523.2788637,-2.5175421,-5.798983,0.41587353,-0.20883955,3.3411274,3.2507958
145,1715789523.2960997,-1.9254287,-5.5859213,0.33069757,-0.20883955,3.3411274,3.2507958
146,1715789523.298584,-0.7509947,-4.6235733,0.47493544,-0.41225767,3.706425,5.5867443
147,1715789523.3150284,-0.4385709,-4.172769,0.4651731,0.5052619,2.4065037,7.5995455
148,1715789523.3313975,-0.14911897,-3.8799,0.3162982,0.78748167,2.0570886,8.35824
149,1715789523.334076,-0.14911897,-3.8799,0.3162982,0.8534551,1.6380352,9.433973
150,1715789523.335686,0.5572132,-3.4408104,-0.041001618,0.8534551,1.6380352,9.433973
151,1715789523.3438804,0.5572132,-3.0603254,-0.35437113,0.509538,1.3277156,10.226877
152,1715789523.3461065,1.5200496,-3.0603254,-0.35437113,0.509538,1.3277156,10.226877
153,1715789523.353061,1.5200496,-3.0603254,-0.35437113,-0.27053696,1.2599095,10.572016
154,1715789523.355122,2.4518602,-2.5465848,-0.5816189,-0.27053696,1.2599095,10.572016
155,1715789523.3646185,2.4518602,-2.5465848,-0.5816189,-0.27053696,1.2599095,10.724121
156,1715789523.365657,2.8738656,-2.1724145,-0.55013555,-1.0212903,1.6007724,10.724121
157,1715789523.3898032,2.8738656,-2.1724145,-0.55013555,-1.761659,2.010663,10.847516
158,1715789523.3920052,3.4630198,-1.7489753,-0.088104665,-2.183156,1.9575176,10.936091
159,1715789523.39475,3.6299856,-1.6921101,0.021232981,-2.183156,1.9575176,10.936091
160,1715789523.3967986,3.6299856,-1.6921101,0.021232981,-2.4183393,1.720502,11.063151
161,1715789523.414772,4.0341444,-1.70114,0.17157225,-2.5527296,1.0687088,11.124238
162,1715789523.417924,4.0646515,-1.6552573,0.24503349,-2.4763713,0.67164636,11.159058
163,1715789523.4313471,4.1368923,-1.624018,0.3031191,-2.1495585,-0.089491755,11.364308
164,1715789523.4327238,4.2716117,-1.5820401,0.32728076,-2.1495585,-0.089491755,11.364308
165,1715789523.4478495,4.2716117,-1.5820401,0.32728076,-1.6761379,-0.7724391,11.204872
166,1715789523.4504921,4.6013637,-1.5144362,0.36218095,-1.6761379,-0.7724391,11.204872
167,1715789523.452602,4.654568,-1.4228842,0.3380193,-1.4061354,-0.9868528,10.995956
168,1715789523.4640117,4.699475,-1.3582091,0.24723,-1.0952051,-1.0467176,10.597061
169,1715789523.478766,4.533028,-1.2083579,0.15375607,-0.9919688,-0.9275989,10.149297
170,1715789523.5060127,3.6844103,-1.0675368,-0.05515694,-1.081766,-0.64965516,9.411983
171,1715789523.514203,3.576781,-1.0277556,-0.18011424,-1.3700944,-0.5549711,9.416259
172,1715789523.530874,3.5533514,-0.9474607,-0.27187976,-1.9082667,-0.19883664,9.336235
173,1715789523.5341115,3.5675068,-0.8571595,-0.30580372,-2.224695,0.058337633,9.2342205
174,1715789523.5457463,3.5675068,-0.8571595,-0.30580372,-2.224695,0.058337633,8.85915
175,1715789523.5479019,3.7112565,-0.72195184,-0.3372871,-2.8563294,0.5647449,8.85915
176,1715789523.5564976,3.7749555,-0.4991276,-0.16815543,-2.8563294,0.5647449,8.85915
177,1715789523.5596657,3.7749555,-0.4991276,-0.16815543,-3.3621259,0.80481493,8.275773
178,1715789523.5675242,3.6382835,-0.30043447,0.014887493,-3.665115,0.88239485,7.4401097
179,1715789523.5810275,3.4264112,-0.08664032,-0.003172744,-3.860592,0.8885035,6.790149
180,1715789523.5837157,3.1367152,0.08566409,0.0302631,-3.860592,0.8885035,6.790149
181,1715789523.5847228,3.1367152,0.08566409,0.0302631,-4.1165447,0.7779369,6.2709136
182,1715789523.6174135,2.815292,0.19744232,0.15570852,-4.1165447,0.7779369,6.2709136
183,1715789523.6195989,2.216589,0.21916342,0.75392336,-4.98886,0.2678644,5.2574883
184,1715789523.6216147,2.1084716,0.30897647,1.0514292,-4.8953977,0.16890424,5.4358606
185,1715789523.6349087,2.1084716,0.30897647,1.0514292,-4.2271113,-0.47616947,6.0265675
186,1715789523.6369438,2.3071342,0.3951287,1.4885356,-4.2271113,-0.47616947,6.0265675
187,1715789523.6430254,2.3071342,0.3951287,1.4885356,-3.566155,-1.162782,6.5433593
188,1715789523.6454387,2.760379,0.5918693,1.6137675,-3.566155,-1.162782,6.5433593
189,1715789523.6621716,4.4063315,1.2142153,1.730915,-3.566155,-1.162782,6.5433593
190,1715789523.664187,5.984955,2.0730834,1.658918,-1.0799334,-2.8573222,6.9428654
191,1715789523.6818886,7.5386844,3.5850787,1.4882916,-0.2448806,-3.1719177,5.8775163
192,1715789523.6896603,7.5386844,3.5850787,1.2234895,0.3244458,-2.6966646,3.8555524
193,1715789523.6926408,7.9950714,5.2083344,0.62798977,0.3244458,-2.6966646,3.8555524
194,1715789523.6946406,7.9950714,5.2083344,0.62798977,0.058719423,-1.920255,1.7694476
195,1715789523.70066,7.9950714,4.267951,-0.3939084,-2.1898756,-0.20677789,-1.2714397
196,1715789523.7194612,7.9950714,4.267951,-0.3939084,-5.737781,3.0161471,-3.880445
197,1715789523.7215967,6.2951517,1.8531877,1.0970678,-5.737781,3.0161471,-3.880445
198,1715789523.7385998,4.105165,0.85911196,2.8321319,-5.335221,4.2293253,-3.1260266
199,1715789523.7462814,4.105165,0.5040087,3.2999895,-5.335221,4.2293253,-3.1260266
200,1715789523.748453,3.9328606,0.5040087,3.2999895,-4.1580834,4.77605,-2.4461336
201,1715789523.7509568,4.408772,0.23478307,3.2780244,-2.4012349,5.0985866,-2.2457697
202,1715789523.7642035,4.5571895,0.18914436,2.8179765,-0.0023671028,5.141958,-2.8212047
203,1715789523.7764156,4.4585595,0.24259292,2.3142118,1.3653601,4.8157563,-3.41802
204,1715789523.7867057,4.3165183,0.23356278,1.6818595,1.3653601,4.8157563,-3.41802
205,1715789523.7893386,4.3165183,0.23356278,1.6818595,2.3476315,4.43702,-4.0948586
206,1715789523.7987428,4.3165183,0.23356278,1.6818595,2.7837894,4.154189,-4.6257005
207,1715789523.799904,4.1200523,0.22746135,1.3430775,2.943836,3.6001344,-5.30315
208,1715789523.8019373,3.581906,0.26919514,0.7046238,2.943836,3.6001344,-5.30315
209,1715789523.8110225,3.581906,0.26919514,0.7046238,2.943836,3.2953126,-5.6324067
210,1715789523.8120024,2.8814313,0.25674823,0.3048275,2.354351,3.2953126,-5.6324067
211,1715789523.8238926,2.7396343,0.26065314,0.24649782,2.1338286,3.3264668,-5.6281304
212,1715789523.8367922,2.7396343,0.26065314,0.24649782,1.2987759,3.8133264,-5.4754143
213,1715789523.8397737,2.607111,0.050763905,0.22794947,1.2987759,3.8133264,-5.4754143
214,1715789523.8484085,2.607111,0.050763905,0.22794947,1.2987759,3.8133264,-5.4827447
215,1715789523.8503695,2.607111,0.050763905,0.22794947,0.976239,4.1150937,-5.4827447
216,1715789523.8573165,2.607111,0.050763905,0.22794947,0.976239,4.1150937,-5.7545795
217,1715789523.8597453,2.815292,-0.1044565,0.47395915,0.83574003,4.64899,-5.7545795
218,1715789523.8618135,2.9463506,-0.25308737,0.5840595,1.0800861,4.6734247,-5.9738803
219,1715789523.87152,3.0613017,-0.4556549,0.56819576,1.5938238,4.558582,-6.303137
220,1715789523.8874996,3.1847947,-0.6775334,0.45223808,2.0568597,4.3887615,-6.5755825
221,1715789523.8962736,3.289251,-0.8613085,0.35510328,2.4484243,4.2421536,-6.8119874
222,1715789523.9152648,3.447156,-1.1102469,0.20622836,2.9725466,4.09127,-7.12414
223,1715789523.9180534,3.5157669,-1.2166559,0.1398448,3.3952653,3.96421,-7.3300014
224,1715789523.9287996,3.5157669,-1.3394166,-0.057109397,3.80088,3.8249328,-7.5639625
225,1715789523.931071,3.5953295,-1.3394166,-0.057109397,3.80088,3.8249328,-7.5639625
226,1715789523.9458513,3.674648,-1.4084848,-0.29579738,3.9914699,3.6282341,-7.7912045
227,1715789523.9477153,3.7246795,-1.4482661,-0.4927516,4.0018544,3.4816265,-8.061207
228,1715789523.9617162,3.7246795,-1.4482661,-0.4927516,4.0018544,2.6929994,-8.772254
229,1715789523.9635558,3.6756244,-1.425813,-0.6172513,3.8161516,2.6929994,-8.772254
230,1715789524.0006442,3.5340712,-1.3345355,-0.8571595,1.9340757,2.2739458,-9.481468
231,1715789524.001957,3.4786394,-1.2849919,-0.7756444,1.9340757,2.2739458,-9.481468
232,1715789524.018292,3.4527695,-1.2125069,-0.633115,1.9340757,2.2739458,-9.481468
233,1715789524.0196443,3.4527695,-1.2125069,-0.633115,1.565724,2.219579,-9.501627
234,1715789524.022052,3.4710739,-1.1602787,-0.45199403,1.3629167,2.1218405,-9.535835
235,1715789524.0491264,3.4339771,-1.1119553,-0.23990828,1.5211308,1.4773777,-9.791788
236,1715789524.050495,3.3304965,-1.1446589,-0.25333142,1.5211308,1.4773777,-9.791788
237,1715789524.053041,3.0571527,-1.2107985,-0.17767367,1.5895478,1.0082331,-9.764299
238,1715789524.0652618,3.0571527,-1.2107985,-0.17767367,1.6622407,0.82986045,-9.654344
239,1715789524.067637,2.9280465,-1.1995718,-0.12324891,1.6622407,0.82986045,-9.654344
240,1715789524.0985584,2.6302965,-1.2674198,0.031239327,2.1881957,0.5195409,-9.581039
241,1715789524.101383,2.460158,-2.6503093,0.0026846298,2.4924066,0.9605856,-9.921903
242,1715789524.1143334,2.460158,-2.6503093,0.0026846298,2.8607583,0.9233228,-10.367223
243,1715789524.116833,2.0647852,-4.0831995,-0.15448824,2.8607583,0.9233228,-10.367223
244,1715789524.1511066,-1.7314031,-7.2675056,-0.6477585,1.1002446,-1.357648,-9.266444
245,1715789524.1532242,-2.5951521,-7.8288684,0.026846299,-0.09155343,-0.8268061,-6.527935
246,1715789524.1787777,-2.5951521,-7.8288684,0.026846299,0.55535287,1.6960673,-0.6813438
247,1715789524.1802905,-3.6985655,-7.607997,1.4421648,0.55535287,1.6960673,-0.6813438
248,1715789524.1817887,-3.560429,-7.3021626,1.7099261,1.7208837,2.2000313,1.9557614
249,1715789524.2100112,-3.560429,-7.3021626,1.7099261,2.9701033,2.5579982,4.36929
250,1715789524.2110243,-1.3606497,-6.3254147,0.67802155,4.2064943,2.9422324,7.211646
251,1715789524.213228,-0.22892569,-5.7731133,0.030019043,4.5082617,3.143207,9.263542
252,1715789524.2282703,0.88156533,-5.066537,-0.61920375,4.14663,3.3496795,10.480386
253,1715789524.2523358,0.88156533,-5.066537,-0.61920375,2.7165942,3.4895678,11.61293
254,1715789524.2541149,2.9578214,-2.965387,-1.504918,1.5645022,3.1768048,12.204859
255,1715789524.2612605,2.9578214,-2.965387,-1.504918,0.7728209,2.7742445,12.704546
256,1715789524.2701495,3.6168065,-2.242703,-1.2908492,0.7728209,2.7742445,12.704546
257,1715789524.2719765,4.157637,-1.8597772,-1.0404466,0.3476587,2.228742,12.998372
258,1715789524.2856698,4.6389484,-1.5983919,-0.9564909,0.14240795,1.7595973,13.025862
259,1715789524.3058746,5.127307,-1.4326465,-1.0065227,-0.94676477,1.4639386,12.792511
260,1715789524.3148928,5.127307,-1.4326465,-1.0065227,-1.3474923,1.430341,12.765022
261,1715789524.3174334,5.0870376,-1.387252,-0.9433118,-1.3474923,1.430341,12.765022
262,1715789524.3433464,5.1975956,-1.3711442,-0.880345,-2.2662337,1.348485,12.542667
263,1715789524.3445334,4.929377,-1.3728526,-0.04075756,-2.8917596,0.72234815,11.788859
264,1715789524.369721,4.6467586,-1.3501551,0.556237,-2.2124774,-0.31490102,11.304443
265,1715789524.3711715,4.085152,-1.3992107,0.7707633,0.0397826,-1.4456125,11.013671
266,1715789524.3882046,4.085152,-1.3992107,0.7707633,1.0892491,-1.5170839,11.059486
267,1715789524.3900526,3.8935673,-1.4533914,0.5274382,1.0892491,-1.5170839,11.059486
268,1715789524.397226,3.9475038,-1.4592488,0.13569583,1.0892491,-1.5170839,11.059486
269,1715789524.39937,3.9475038,-1.4592488,0.13569583,1.5327373,-1.3521502,11.075369
270,1715789524.4114819,4.1127305,-1.3455181,-0.45980385,1.5327373,-1.3521502,11.075369
271,1715789524.4128807,4.089301,-1.1463674,-0.82665247,0.73189294,-0.090713486,10.410136
272,1715789524.4269085,4.089301,-1.1463674,-0.82665247,-0.3731623,0.8060367,9.856692
273,1715789524.4290395,3.9797194,-0.9799203,-0.9010899,-0.3731623,0.8060367,9.856692
274,1715789524.435389,3.71809,-0.81225306,-0.88180935,-0.3731623,0.8060367,9.856692
275,1715789524.4368153,3.71809,-0.81225306,-0.88180935,-1.1477394,1.4608842,9.488952
276,1715789524.462992,2.9927216,-0.21281794,-0.4983649,-3.2833242,2.8420506,8.66917
277,1715789524.505188,2.8287148,0.13618395,-0.81884265,-4.912502,1.8695531,7.722329
278,1715789524.5071902,2.7552538,0.1581491,-0.76466185,-5.8617864,1.1890492,7.148727
279,1715789524.5161884,2.7415867,-0.03294773,1.2361805,-6.481815,-0.6985244,6.653315
280,1715789524.5559812,6.1362705,1.6398817,2.4286747,1.6225344,-3.905567,5.3876023
281,1715789524.570086,6.8706694,2.429895,1.7189562,1.6225344,-3.905567,5.3876023
282,1715789524.573177,7.824719,3.1574602,0.39244407,3.414813,-4.789489,3.3112714
283,1715789524.5838044,7.824719,3.1574602,-0.6960818,1.946904,-3.487735,1.48173
284,1715789524.584786,7.994339,3.1455011,-0.6960818,1.946904,-3.487735,1.48173
285,1715789524.6102972,7.994339,3.1455011,-0.2591888,-0.18745928,-1.6484199,0.1249983
286,1715789524.6121356,6.282705,1.1285512,1.2208048,-4.47329,3.030808,-1.4699708
287,1715789524.6320407,5.7140517,0.61700726,2.4457586,-4.250935,4.5066586,-1.7973946
288,1715789524.6415126,5.7140517,0.61700726,2.4457586,-1.5020412,4.9684725,-2.3838253
289,1715789524.6429486,5.3879604,0.15668476,2.6996086,-1.5020412,4.9684725,-2.3838253
290,1715789524.6533234,5.3335357,-0.09615856,2.0689342,0.09231701,4.4700065,-3.1681762
291,1715789524.6713388,4.9086323,-0.11153416,1.4192234,0.91209817,4.019188,-4.071035
292,1715789524.686862,4.5547485,-0.08053889,1.0524054,0.91209817,4.019188,-4.071035
293,1715789524.689863,4.5547485,-0.08053889,1.0524054,1.1112403,3.8939605,-4.5120797
294,1715789524.6928644,4.003393,-0.105676785,0.50620526,0.80153155,4.1150937,-5.1724253
295,1715789524.7278762,3.61583,-0.23039004,0.39805737,0.80153155,4.1150937,-5.1724253
296,1715789524.7298725,3.0012634,-0.3065359,0.5472069,0.058719423,5.0643783,-5.7454166
297,1715789524.7517974,3.0012634,-0.3065359,0.5472069,0.2260965,5.2818465,-5.8376575
298,1715789524.7539427,3.0437295,-0.55867755,0.62823385,0.51747924,5.3722544,-5.960441
299,1715789524.7559013,3.3136566,-0.7971215,0.51865214,1.0519863,5.272683,-6.3361235
300,1715789524.7684104,3.3136566,-0.7971215,0.51865214,1.5828282,5.1132474,-6.7838874
301,1715789524.7704096,3.5784895,-0.9906589,0.42734426,1.5828282,5.1132474,-6.7838874
302,1715789524.7714097,3.7320013,-1.2066495,0.31654227,2.095955,4.93854,-7.208439
303,1715789524.8020706,3.7320013,-1.2066495,0.31654227,2.095955,4.6050076,-7.772268
304,1715789524.8040712,3.9919221,-1.9146901,-0.311173,3.6799285,4.0259075,-8.4497175
305,1715789524.8217292,3.9919221,-1.9146901,-0.311173,3.6799285,4.0259075,-8.712389
306,1715789524.823606,3.9223661,-2.050874,-0.7380596,4.0788236,3.4119878,-8.954292
307,1715789524.851544,3.9223661,-2.050874,-0.7380596,3.995135,3.0973923,-9.183977
308,1715789524.8527777,3.687583,-1.9754603,-1.1971313,3.3683872,2.716823,-9.385563
309,1715789524.8631303,3.6643977,-1.8915048,-1.2720569,2.722092,2.598926,-9.486966
310,1715789524.8709214,3.5789776,-1.7982749,-1.2686402,2.0531945,2.5372288,-9.574931
311,1715789524.8888972,3.5789776,-1.7982749,-1.2686402,1.6481907,2.468812,-9.582261
312,1715789524.8909194,3.490354,-1.6572098,-1.1231819,1.6481907,2.468812,-9.582261
313,1715789524.8931103,3.490354,-1.6572098,-1.1231819,1.3763558,2.4382687,-9.523619
314,1715789524.9045947,3.4405668,-1.6110829,-1.1422184,0.99334323,2.5256224,-9.386785
315,1715789524.9107165,3.4405668,-1.4961015,-1.1419744,0.7001279,2.7210991,-9.29149
316,1715789524.9120197,3.3402588,-1.4961015,-1.1419744,0.7001279,2.7210991,-9.29149
317,1715789524.926734,3.3402588,-1.4961015,-1.1419744,0.5932265,2.7015514,-9.293933
318,1715789524.9294007,3.3080435,-1.4460697,-1.1065861,0.5932265,2.7015514,-9.293933
319,1715789524.9448,3.3080435,-1.4460697,-1.1065861,0.5932265,2.363743,-9.361128
320,1715789524.9474623,3.0879037,-1.4407004,-0.89938146,0.5803983,2.363743,-9.361128
321,1715789524.9490013,3.0879037,-1.4407004,-0.89938146,0.6738607,1.8793269,-9.400224
322,1715789524.9507375,3.0879037,-1.4407004,-0.89938146,0.7728209,1.484708,-9.365404
323,1715789524.952195,2.8396976,-1.4128779,-0.81225306,0.7728209,1.484708,-9.365404
324,1715789524.9630463,2.6649528,-1.5254189,-0.64507383,0.89316136,1.3387111,-9.193751
325,1715789524.9776707,2.7772188,-1.9056599,-0.49885303,1.1423944,1.9642372,-9.286603
326,1715789524.984106,2.7328005,-2.5526862,-0.4412555,1.4698181,2.7351491,-9.864481
327,1715789524.9953473,2.7328005,-3.4107914,-0.22990192,2.0446424,3.4266486,-10.699533
328,1715789524.9972456,2.4667475,-3.4107914,-0.22990192,2.0446424,3.4266486,-10.699533
329,1715789525.0140493,-1.1251345,-5.9593287,-0.530855,4.581566,1.9538525,-11.590786
330,1715789525.0476863,-3.4615552,-6.836013,-0.93208516,3.2181144,-1.9037615,-7.4686675
331,1715789525.0490322,-3.4735143,-6.852121,-0.978456,1.7935767,-0.7699956,-5.0282607
332,1715789525.0510817,-3.4820564,-6.7413187,-0.60163164,1.7935767,-0.7699956,-5.0282607
333,1715789525.0528097,-3.4820564,-6.7413187,-0.60163164,-0.17218764,1.956296,-1.6581173
334,1715789525.0687253,-3.4940455,-6.520935,-0.11836776,-0.9033933,3.1236594,0.6118579
335,1715789525.0763822,-2.8409178,-6.1462765,0.43613032,-0.9033933,3.1236594,0.6118579
336,1715789525.0778973,-2.8409178,-6.1462765,0.43613032,-0.71891207,3.4028249,3.3076062
337,1715789525.0927846,-2.8409178,-6.1462765,0.43613032,0.3543782,2.7094927,4.823163
338,1715789525.095129,-1.2583896,-5.2361565,0.5113304,1.3910165,2.1084013,5.511608
339,1715789525.1095154,-0.7497744,-4.6765337,0.20403185,1.3910165,2.1084013,5.511608
340,1715789525.1117787,-0.28676724,-4.0822234,-0.25552794,3.0672307,1.1078042,7.2311935
341,1715789525.122993,0.11031388,-3.6041152,-0.62652546,3.1735213,1.135904,8.309981
342,1715789525.137267,0.59992325,-3.2172542,-0.95209783,2.9139035,1.1908818,9.118156
343,1715789525.1472476,1.1222057,-2.8565376,-1.2059174,2.3647356,1.0680978,9.865245
344,1715789525.160214,2.4970107,-1.9225,-1.4033597,0.16378824,0.79320854,11.096138
345,1715789525.1739876,3.02933,-1.594487,-0.9745511,-0.9938014,0.8323039,11.595826
346,1715789525.200193,3.5928886,-1.594243,-0.56746364,-1.9210949,0.81153446,11.844448
347,1715789525.201806,3.6802611,-1.726522,-0.087616555,-2.155667,0.52442783,11.919584
348,1715789525.2134786,3.791063,-1.880034,0.14130914,-1.933923,0.14935656,12.024042
349,1715789525.2217534,3.791063,-2.0052354,0.14765464,-1.6150514,-0.110872045,12.006328
350,1715789525.2242868,4.118832,-2.0052354,0.14765464,-1.6150514,-0.110872045,12.006328
351,1715789525.2350378,4.4795485,-1.9420246,0.03441207,-1.299234,-0.26542094,11.595215
352,1715789525.2485085,4.4439163,-1.8649024,-0.031483386,-1.0958159,-0.43463063,11.120573
353,1715789525.255574,4.0741696,-1.8087693,-0.16254212,-0.96509075,-0.7669413,10.810253
354,1715789525.26302,3.935301,-1.7523922,-0.25894472,-1.1300243,-1.0094548,10.850571
355,1715789525.2781732,3.935301,-1.7523922,-0.25894472,-1.1300243,-1.0253373,10.866453
356,1715789525.2805169,3.874287,-1.7726487,-0.33509058,-1.3126731,-1.0253373,10.866453
357,1715789525.2950916,3.75055,-1.8224366,-0.38316986,-1.7549394,-0.86284715,10.92815
358,1715789525.303196,3.606312,-1.8361037,-0.24088451,-2.6669612,-0.5879578,10.937924
359,1715789525.3173568,3.606312,-1.8361037,-0.24088451,-2.6669612,-0.5879578,10.788873
360,1715789525.3203316,3.7053993,-1.7311591,-0.25162303,-2.96262,-0.3680463,10.788873
361,1715789525.3264902,3.7053993,-1.7311591,-0.25162303,-3.321198,-0.2275473,10.23665
362,1715789525.3287668,3.9311523,-1.5356692,-0.15888128,-3.321198,-0.2275473,10.23665
363,1715789525.3404627,3.961903,-1.3037844,0.0019524579,-3.3523521,-0.30573806,9.818208
364,1715789525.3547804,3.5950851,-0.7856508,0.27187976,-2.9870546,-1.1841623,7.8671045
365,1715789525.361938,3.5950851,-0.7856508,0.4300289,-2.7384326,-1.4010195,7.4413314
366,1715789525.3641653,3.4107914,-0.5801546,0.4300289,-2.7384326,-1.4010195,7.4413314
367,1715789525.3854153,3.2233558,-0.33875147,0.47884035,-2.3395376,-1.4792101,6.9098787
368,1715789525.3874629,3.0744805,-0.15619664,0.38316986,-2.0713677,-1.2330315,6.5885634
369,1715789525.3946843,3.0820465,-0.09567044,0.15936938,-2.0829742,-0.9098838,6.382702
370,1715789525.401152,3.1938245,-0.07590181,-0.4217309,-3.0597477,-0.21594086,5.7419043
371,1715789525.428559,3.1938245,-0.07590181,-0.4217309,-3.0597477,-0.022296581,5.195791
372,1715789525.430563,3.1796694,-0.46883395,0.61871564,-4.209396,-0.31978795,4.749248
373,1715789525.4498172,3.4620438,-0.1637624,1.675514,-0.2363285,-2.4260514,5.452354
374,1715789525.4670415,4.094182,0.16595893,1.4289857,1.1228467,-3.5616498,5.847584
375,1715789525.4749837,4.094182,0.16595893,1.4289857,2.3879485,-5.0173416,6.281298
376,1715789525.47701,5.3215766,1.0719299,0.86521345,2.3879485,-5.0173416,6.281298
377,1715789525.4845147,5.3215766,1.0719299,0.86521345,2.3879485,-5.0173416,6.1627903
378,1715789525.4864266,6.5116606,1.88882,0.17791773,2.6158013,-5.3130007,6.1627903
379,1715789525.5123758,7.749794,2.555127,-0.667039,2.6158013,-5.3130007,6.1627903
380,1715789525.5135078,7.9428434,2.1033463,-0.7588045,-4.7891073,0.48655418,1.2929727
381,1715789525.5295086,7.9428434,2.1033463,-0.7588045,-6.7249393,2.5231788,0.33269247
382,1715789525.5316894,6.950476,1.2230014,0.9623482,-6.7249393,2.5231788,0.33269247
383,1715789525.5409255,6.0859947,0.6826586,2.2195175,-7.191029,3.8499782,-0.05093089
384,1715789525.543331,5.5283237,0.27895743,3.3038943,-6.6675177,4.7290134,-0.21219932
385,1715789525.5658875,5.5283237,0.27895743,4.204008,-0.8105418,5.8071904,-1.1370493
386,1715789525.5679538,4.985754,-0.21989559,4.204008,-0.8105418,5.8071904,-1.1370493
387,1715789525.5740645,4.85079,-0.21525851,3.3351338,1.348256,5.29834,-1.926898
388,1715789525.5845134,4.85079,-0.21525851,2.2139044,2.6970465,4.5054364,-2.7760007
389,1715789525.5855772,4.4663696,-0.17596528,2.2139044,2.6970465,4.5054364,-2.7760007
390,1715789525.5923684,4.0775867,-0.1044565,1.4487543,3.0079768,3.923893,-3.4308484
391,1715789525.603968,3.7861822,-0.061502427,0.9540503,2.8332694,3.8676932,-3.6672533
392,1715789525.6244938,3.7861822,-0.061502427,0.9540503,1.8797088,4.4248023,-4.009338
393,1715789525.627221,3.2343383,-0.029042812,0.30555966,1.2725086,4.937929,-4.1089087
394,1715789525.6565187,2.9919891,-0.43149322,0.8083481,-0.10010554,7.0338078,-4.5365143
395,1715789525.664445,3.0478785,-0.5699042,0.978212,0.24503332,7.1254377,-4.6544113
396,1715789525.681443,3.0478785,-0.5699042,0.978212,1.0776427,6.9305716,-4.883486
397,1715789525.6834903,3.5421247,-1.0812042,1.1810235,2.0629683,6.530455,-5.228625
398,1715789525.697544,3.768854,-1.340881,1.1161042,3.029968,6.040541,-5.623244
399,1715789525.703975,3.768854,-1.6359768,0.93159705,4.0018544,5.4492235,-6.069786
400,1715789525.705363,4.0395136,-1.6359768,0.93159705,4.0018544,5.4492235,-6.069786
401,1715789525.7276876,4.1181,-2.208291,0.08639627,5.8735456,4.056451,-7.276245
402,1715789525.7513819,4.011447,-2.387429,-0.38194957,6.1362176,3.6318994,-7.8779473
403,1715789525.7533567,3.9760587,-2.4164717,-0.5974827,5.8875957,3.4565809,-8.176049
404,1715789525.7626867,3.955802,-2.3805954,-0.7151182,5.4764833,3.4309247,-8.394129
405,1715789525.8057785,3.8796563,-2.2756507,-0.7422086,4.726341,3.3447926,-8.691009
406,1715789525.8080194,3.6805053,-2.0660055,-0.8896192,3.9248855,3.2623258,-8.6665745
407,1715789525.8258116,3.6805053,-2.0660055,-0.8896192,3.4117587,3.1383202,-8.752707
408,1715789525.8273385,3.7434719,-2.0169501,-0.8146936,3.0153072,2.944676,-8.961011
409,1715789525.8390348,3.5970378,-1.9366553,-0.697058,2.8234956,2.835331,-9.033705
410,1715789525.8410354,3.5545716,-1.8951657,-0.5686839,2.7190375,2.6685648,-9.098456
411,1715789525.8801796,2.9558687,-1.7235934,-0.35559142,2.8381562,2.5341744,-9.129
412,1715789525.8825774,2.854829,-1.6816155,-0.3145898,2.8815277,2.6349673,-9.184588
413,1715789525.8986166,2.9160874,-1.8580688,-0.29091623,2.9701033,2.8548787,-9.372734
414,1715789525.899681,2.8870447,-2.6110158,-0.20305562,3.4087045,3.4003813,-10.107605
415,1715789525.9192023,2.8870447,-2.6110158,0.017328065,5.635919,3.8023307,-12.154614
416,1715789525.9212313,1.5991242,-4.8378553,0.017328065,5.635919,3.8023307,-12.154614
417,1715789525.955403,1.5991242,-4.8378553,0.017328065,7.1160455,2.6123652,-12.497921
418,1715789525.9565103,-2.0071878,-6.954381,-0.87229115,7.638335,0.17256944,-12.070315
419,1715789525.9589841,-3.844756,-7.593109,-1.1219617,5.1997614,-3.3209689,-6.724023
420,1715789525.9610064,-4.319447,-7.5128145,-1.370412,5.1997614,-3.3209689,-6.724023
421,1715789525.973014,-4.319447,-7.5128145,-1.1551535,2.9865966,-1.2275337,-3.917708
422,1715789525.9745185,-4.5991673,-7.150603,-1.1551535,2.9865966,-1.2275337,-3.917708
423,1715789525.9942203,-4.8044195,-6.981715,-0.8571595,2.9865966,-1.2275337,-3.917708
424,1715789525.995573,-4.691421,-6.4655037,0.12593354,0.2859613,2.4791965,2.3235023
425,1715789526.0033975,-4.691421,-6.4655037,0.12593354,0.43195808,2.7821858,6.1572924
426,1715789526.005186,-3.3102403,-6.027421,0.50913393,0.43195808,2.7821858,6.1572924
427,1715789526.0131671,-3.3102403,-6.027421,0.50913393,0.83329654,2.6746736,7.981947
428,1715789526.0145118,-1.8202399,-5.4897323,0.37096703,0.83329654,2.6746736,7.981947
429,1715789526.0401647,-1.8202399,-5.4897323,0.37096703,1.1210141,2.4700336,9.063179
430,1715789526.0424864,0.90279824,-4.1122427,-0.34680536,1.1649964,2.1181753,9.280646
431,1715789526.0492525,1.6230417,-3.5645783,-0.5364683,1.1558334,1.6734654,9.109604
432,1715789526.0509567,2.1736348,-2.7581825,-0.5833273,1.0910817,0.8530733,8.68322
433,1715789526.0682075,2.280532,-2.4108584,-0.48567393,1.0605384,0.5329799,8.652066
434,1715789526.0760229,2.4577177,-2.0452607,-0.340948,1.0354929,0.38026363,8.851819
435,1715789526.0853426,2.5829494,-1.901023,-0.25943285,1.025719,0.5317582,9.206121
436,1715789526.0991232,2.8023567,-1.7621545,-0.19207305,1.025719,0.5317582,9.206121
437,1715789526.1015525,3.203831,-1.5705694,-0.105676785,1.0092257,0.7266242,9.546373
438,1715789526.1025505,3.203831,-1.5705694,-0.105676785,1.0141127,0.7357872,9.787054
439,1715789526.117734,3.6219316,-1.4294739,-0.09030118,1.1637746,0.6282749,9.857914
440,1715789526.1199937,3.8247433,-1.3381964,-0.21086545,1.1637746,0.6282749,9.857914
441,1715789526.1220126,3.8247433,-1.3381964,-0.21086545,1.2053134,0.63071835,9.854249
442,1715789526.1358323,3.9069905,-1.2122629,-0.3824377,1.039769,0.7174612,9.727189
443,1715789526.1463466,3.8779476,-1.1578381,-0.4497975,0.83696175,0.7687739,9.609292
444,1715789526.153067,3.6395037,-1.0992644,-0.41562948,0.42523858,0.77671516,9.519495
445,1715789526.1693444,3.4779072,-1.1295274,-0.42075467,0.18883371,0.7119634,9.600129
446,1715789526.182034,3.2787566,-1.2374008,-0.4497975,-0.13309227,0.59712076,9.822484
447,1715789526.2008073,3.2787566,-1.2374008,-0.4497975,-0.13309227,0.59712076,10.149297
448,1715789526.2028253,3.5794656,-1.54714,-0.667039,-2.0597613,0.66798115,10.919598
449,1715789526.212832,3.5794656,-1.54714,-0.667039,-2.0597613,0.7302894,10.669144
450,1715789526.2150521,3.8113198,-1.6198689,-0.53305155,-2.7072785,0.7302894,10.669144
451,1715789526.222389,3.6936846,-1.551533,-0.10323621,-3.1782556,0.7443393,10.27147
452,1715789526.245581,3.5352914,-1.5163887,0.20183535,-3.1782556,0.7443393,10.27147
453,1715789526.246793,3.4129882,-1.5344489,0.4834774,-3.017598,0.39187005,9.858525
454,1715789526.2616458,3.381749,-1.3884722,0.4927516,-3.017598,0.39187005,9.858525
455,1715789526.2629085,3.4617996,-1.2261741,0.27456442,-2.3096051,0.22937989,9.903118
456,1715789526.3114684,3.9677606,-0.7639297,-0.14277348,-2.586327,0.63255095,9.738185
457,1715789526.3124695,3.6885593,0.34045988,0.8598442,-2.4971406,0.15851954,5.802991
458,1715789526.3459635,3.6885593,0.49568027,0.46322066,-2.4971406,0.15851954,5.802991
459,1715789526.3472078,2.4677238,0.439059,-0.09274176,-4.44519,1.0296134,5.164026
460,1715789526.3485434,2.2051184,0.17791773,-0.08175918,-4.44519,1.0296134,5.164026
461,1715789526.3549552,2.2051184,0.17791773,-0.08175918,-6.9350767,2.4291058,6.054056
462,1715789526.373716,2.669834,-0.17547716,0.9777239,-6.9350767,2.4291058,6.054056
463,1715789526.3752084,3.3802843,0.15009521,2.105543,-8.656495,1.7705929,7.3173256
464,1715789526.3852959,5.116569,0.33948365,3.1164587,-7.7243147,-0.29229903,6.9556932
465,1715789526.3953183,6.426698,1.1060979,4.002173,-7.7243147,-0.29229903,6.9556932
466,1715789526.3973913,6.426698,1.1060979,4.002173,-6.2032604,-2.115121,5.9117246
467,1715789526.3998091,7.7314897,2.2204938,4.6716523,-3.6528978,-3.706425,3.780416
468,1715789526.4257367,7.231874,2.8777707,4.7604895,-1.403692,-1.0961977,-0.037491854
469,1715789526.4419096,6.0864825,1.5166328,4.3929086,-0.48556152,2.712547,-1.6874388
470,1715789526.45332,5.0660486,0.6902244,4.0419545,0.4967098,3.4535267,-1.8132771
471,1715789526.464602,4.9230313,0.51547945,3.8552504,0.8803332,3.415653,-1.7204256
472,1715789526.4860513,5.1207175,0.469078,2.6554344,1.946904,4.1712933,-2.2188916
473,1715789526.5000033,5.1207175,0.48201308,2.4665036,2.24073,4.667927,-2.793105
474,1715789526.50103,4.161054,0.26943922,2.0027947,2.7336984,4.821254,-3.577456
475,1715789526.515734,3.4493525,0.08444381,1.5263951,3.02447,4.404033,-4.1583886
476,1715789526.5295103,3.4493525,0.08444381,1.1556416,2.9505556,4.1358633,-4.3654723
477,1715789526.5310457,2.994674,-0.04148973,1.1556416,2.9505556,4.1358633,-4.3654723
478,1715789526.5475285,2.589295,-0.025381953,0.88937515,2.3525183,4.086383,-4.2139773
479,1715789526.5648088,2.7022934,-0.061014313,0.8947444,2.3525183,4.086383,-4.2139773
480,1715789526.5676346,2.9031525,-0.13691612,0.91695356,1.915139,4.756502,-4.4118977
481,1715789526.5790904,2.9836915,-0.26675457,0.9130486,1.9756145,5.019785,-4.657466
482,1715789526.585827,2.9771018,-0.41026023,0.9045067,2.1448243,5.260466,-4.877377
483,1715789526.594214,3.003216,-0.586256,0.87155896,2.3537402,5.4070735,-5.0136003
484,1715789526.603438,3.254839,-0.91060805,0.8432483,2.8809168,5.5805593,-5.2848244
485,1715789526.6126192,3.254839,-0.91060805,0.8432483,3.279201,5.55979,-5.4467034
486,1715789526.6149645,3.3556347,-1.05509,0.8510581,3.279201,5.55979,-5.4467034
487,1715789526.6403584,3.4420307,-1.2264183,0.8222594,3.279201,5.55979,-5.4467034
488,1715789526.641793,3.6785529,-1.460225,0.62042403,5.2260284,4.690529,-6.046573
489,1715789526.6487195,3.6785529,-1.5571462,0.41514137,5.2260284,4.690529,-6.046573
490,1715789526.6507447,3.926515,-1.5571462,0.41514137,5.917528,4.2598686,-6.3623905
491,1715789526.6624928,4.1249332,-1.6257263,0.15619664,6.3378034,3.9617665,-6.7710595
492,1715789526.6779008,4.1249332,-1.6257263,0.15619664,6.3378034,3.9617665,-7.2206564
493,1715789526.6789174,4.1879005,-1.6740497,-0.06760386,6.5308366,3.7308595,-7.2206564
494,1715789526.697721,4.04293,-1.7204206,-0.3482697,6.4239354,3.0448577,-8.113741
495,1715789526.704205,3.8784356,-1.7018722,-0.4932397,6.4239354,3.0448577,-8.113741
496,1715789526.706222,3.8784356,-1.7018722,-0.4932397,6.058638,2.3839016,-8.683679
497,1715789526.7084272,3.747377,-1.6659958,-0.6138345,5.550398,2.0350976,-8.9658985
498,1715789526.7215965,3.6807494,-1.6635551,-0.65117526,4.9089894,1.8787161,-9.162597
499,1715789526.7455778,3.6807494,-1.6635551,-0.65117526,4.9089894,1.9886718,-9.320811
500,1715789526.7466512,3.3993208,-1.603273,-0.5972386,3.760563,1.9886718,-9.320811
501,1715789526.75351,3.2785125,-1.5871652,-0.46736962,3.3115768,2.0448713,-9.2921
502,1715789526.7629337,3.1001067,-1.5725219,-0.19573392,3.138091,1.9709567,-9.237733
503,1715789526.7782,2.9231653,-1.5835044,0.020500809,3.2767575,1.7082846,-9.168706
504,1715789526.8121328,2.751349,-1.7023603,0.26943922,3.990859,0.9459248,-9.19253
505,1715789526.8138711,2.0952926,-2.6171174,0.40391475,5.6799016,0.41447207,-9.979323
506,1715789526.8385823,2.0952926,-2.6171174,0.40391475,6.431266,0.21655174,-10.246882
507,1715789526.8398514,0.7429407,-3.875019,-0.14423785,6.952334,-0.27214047,-10.183964
508,1715789526.8479202,0.7429407,-4.379485,-0.59943515,6.760522,-0.84513205,-9.9664955
509,1715789526.8501074,0.011714748,-4.379485,-0.59943515,5.186933,-1.6447546,-9.139384
510,1715789526.8562918,-1.888576,-4.896429,-1.4546117,5.186933,-1.6447546,-9.139384
511,1715789526.8790092,-2.8645914,-5.7450466,-1.1802914,0.4631122,-2.0888536,-5.4228797
512,1715789526.8852713,-2.8645914,-5.7450466,-1.1802914,0.4631122,-2.0888536,-3.0716596
513,1715789526.8865728,-3.0320148,-6.1865463,-0.58479166,-1.4464525,-0.999681,-3.0716596
514,1715789526.8936234,-3.3905346,-6.1457887,0.07516963,-2.1984277,0.101098195,-1.1291081
515,1715789526.9123778,-2.9890606,-5.5876293,1.0184815,-1.616884,1.4682146,3.6215909
516,1715789526.929021,-2.0193906,-5.245187,0.9694259,-0.46906814,1.6722436,5.363168
517,1715789526.9373834,-2.0193906,-5.245187,0.9694259,0.28535044,1.5189165,6.182949
518,1715789526.939309,-1.4233724,-4.8776364,0.7365953,0.28535044,1.5189165,6.182949
519,1715789526.960878,-1.4233724,-4.8776364,0.7365953,0.85528773,1.2281445,6.903159
520,1715789526.9630198,0.23771177,-3.3541703,-0.32386398,1.1601094,0.6337727,8.490798
521,1715789526.9861226,0.23771177,-3.0315266,-0.4834774,0.9554696,0.37659842,8.975214
522,1715789526.988089,0.68876004,-3.0315266,-0.4834774,0.9554696,0.37659842,8.975214
523,1715789526.9898484,1.4651061,-2.5622046,-0.6414129,0.9554696,0.37659842,8.975214
524,1715789527.0019143,1.4651061,-2.5622046,-0.6414129,0.9554696,-0.025350908,10.069884
525,1715789527.003853,2.5334058,-1.8666108,-0.5457425,-0.44157922,-0.025350908,10.069884
526,1715789527.0283017,3.4925508,-1.4231284,-0.33533466,-1.820913,1.0002918,10.264139
527,1715789527.050558,3.6453612,-1.4072646,0.3392396,-2.1324542,0.799928,10.259253
528,1715789527.0681736,3.6714752,-1.4465579,0.41465324,-1.8496236,0.28802297,10.284909
529,1715789527.0761595,3.6714752,-1.4465579,0.41465324,-1.8496236,0.28802297,10.247035
530,1715789527.077671,3.700518,-1.4460697,0.47127452,-1.4501177,-0.29718593,10.247035
531,1715789527.0952122,3.6231518,-1.400675,0.46370876,-1.4501177,-0.29718593,10.247035
532,1715789527.096904,3.5721438,-1.4375277,0.40781966,-0.5631414,-1.0852021,10.245203
533,1715789527.1035023,3.4996283,-1.4785293,0.32288775,-0.22655465,-1.1792754,10.327059
534,1715789527.1199055,3.3910232,-1.6088864,-0.06858008,0.0129045285,-1.108415,10.489549
535,1715789527.1281075,3.3910232,-1.6088864,-0.06858008,-0.12576188,-0.9764681,10.58179
536,1715789527.1447358,3.3910232,-1.6088864,-0.06858008,-0.42875105,-0.70157874,10.639822
537,1715789527.1460457,3.3844335,-1.7062652,-0.3048275,-0.8429177,-0.40591997,10.696632
538,1715789527.1566923,3.3844335,-1.7062652,-0.4229512,-1.498987,0.0125227375,10.738171
539,1715789527.1591613,3.4044461,-1.7060212,-0.4229512,-1.498987,0.0125227375,10.738171
540,1715789527.1612122,3.5340712,-1.5947311,-0.46248847,-2.622979,0.6441574,10.545749
541,1715789527.1712346,3.5738525,-1.4214199,-0.34949,-2.622979,0.6441574,10.545749
542,1715789527.1729455,3.5738525,-1.4214199,-0.34949,-3.3993888,0.9569204,10.169456
543,1715789527.1970456,3.543589,-1.2588778,-0.061258372,-3.9070177,1.0858129,9.724746
544,1715789527.1983685,3.493527,-1.1434387,0.13569583,-4.0664535,1.0595458,9.39549
545,1715789527.199669,3.5072248,-0.9206144,0.30751213,-4.0664535,1.0595458,9.39549
546,1715789527.206429,3.5072248,-0.9206144,0.30751213,-4.0530148,0.7431176,8.889082
547,1715789527.2152417,3.619735,-0.7976096,0.38683072,-3.9754345,0.25686884,8.096789
548,1715789527.2302854,3.619735,-0.51669973,0.51767594,-3.8728094,-0.31856623,6.9379783
549,1715789527.2322834,3.6265688,-0.51669973,0.51767594,-3.8728094,-0.31856623,6.9379783
550,1715789527.245286,3.4359295,-0.3338703,0.5635587,-3.9070177,-0.5946773,6.0986495
551,1715789527.261297,2.5109525,-0.1044565,0.74513733,-4.3883796,-0.6881397,5.2605424
552,1715789527.2788196,2.6363978,-0.09176553,1.1751661,-5.0743814,-0.37293324,5.779778
553,1715789527.2948208,3.8186417,0.2545517,2.0008423,-4.4696245,-1.9385809,6.2214336
554,1715789527.314383,3.8186417,0.2545517,3.032503,-1.7268397,-5.309335,6.1304145
555,1715789527.316385,6.7132525,2.0669818,3.032503,-1.7268397,-5.309335,6.1304145
556,1715789527.3288617,7.9836,2.905837,2.931463,-1.7268397,-5.309335,6.1304145
557,1715789527.3314064,7.9836,2.905837,2.931463,-0.26992607,-5.6941805,4.6661706
558,1715789527.3378181,7.9836,2.905837,2.931463,0.22853996,-4.5329256,2.7223973
559,1715789527.3388517,7.9950714,3.6121693,2.4054892,0.22853996,-4.5329256,2.7223973
560,1715789527.3451834,7.9950714,3.8772154,1.9505666,-0.026801713,-3.0955596,1.269149
561,1715789527.3515775,7.9950714,3.0176153,1.3572329,-1.1923326,-0.22510384,-1.0124328
562,1715789527.3738058,6.2226667,0.6467822,1.8753968,-2.5612817,3.4816265,-3.8016436
563,1715789527.3759706,6.2226667,0.6467822,1.8753968,-2.817845,4.6312747,-4.25796
564,1715789527.4139078,6.2226667,0.6467822,1.8753968,-2.5704446,5.5475726,-3.8327975
565,1715789527.415908,4.123225,-0.23917611,2.110668,-1.2980123,6.465703,-3.132746
566,1715789527.4168918,3.999244,-0.20012695,2.1275082,-0.5790239,6.5139613,-3.2610278
567,1715789527.426791,3.8855135,-0.17523311,2.139711,-0.5790239,6.5139613,-3.2610278
568,1715789527.428215,3.8855135,-0.17523311,2.139711,0.5217553,6.0521474,-3.6434293
569,1715789527.4553437,3.8855135,-0.18841219,1.8846711,2.4600308,4.2623124,-5.019098
570,1715789527.4573445,3.1074283,-0.32337585,1.2142153,2.870532,3.4840698,-5.562768
571,1715789527.475936,2.7010732,-0.46785772,0.74123234,2.4331527,3.6337318,-6.038021
572,1715789527.4969263,2.7010732,-0.46785772,0.74123234,2.4331527,4.7369547,-5.984265
573,1715789527.4992566,2.7552538,-0.56038594,0.7868711,1.950569,4.7369547,-5.984265
574,1715789527.501098,3.0066328,-0.74025613,0.98455745,2.1057289,5.264742,-6.0624557
575,1715789527.513929,3.161853,-0.8603323,1.0841328,2.5339453,5.4803777,-6.2206697
576,1715789527.5281963,3.2775364,-1.0355655,1.1710172,3.2846987,5.382639,-6.495559
577,1715789527.5358493,3.3807724,-1.272301,1.1676003,4.0934844,4.9819117,-6.7753353
578,1715789527.5449889,3.535047,-1.44729,1.0824244,4.7868166,4.43702,-7.086266
579,1715789527.5596032,3.6370633,-1.6501321,0.9372103,4.7868166,4.43702,-7.086266
580,1715789527.5608387,3.6370633,-1.6501321,0.9372103,5.408677,3.7711766,-7.4454546
581,1715789527.5620859,3.713697,-1.8614857,0.73098195,6.2590017,2.5402832,-8.129013
582,1715789527.5761366,3.713697,-1.9864428,0.51011014,6.5797057,1.9220876,-8.532184
583,1715789527.5785124,3.7683659,-1.9864428,0.51011014,6.5797057,1.9220876,-8.532184
584,1715789527.591443,3.7996051,-2.0403795,0.31751847,6.650566,1.6862935,-8.7282715
585,1715789527.593752,3.7795925,-2.0303733,0.107629254,6.597421,1.4584408,-9.012324
586,1715789527.6025488,3.7754436,-1.9561797,-0.22160399,6.2315125,1.3130548,-9.273164
587,1715789527.6120842,3.7754436,-1.8878438,-0.31556603,5.5528417,1.1756102,-9.544998
588,1715789527.6130648,3.7957003,-1.8878438,-0.31556603,5.5528417,1.1756102,-9.544998
589,1715789527.6367035,3.7957003,-1.8878438,-0.4283205,4.6982408,1.1688906,-9.858373
590,1715789527.6381302,3.6392596,-1.7868041,-0.4283205,4.6982408,1.1688906,-9.858373
591,1715789527.6517434,3.5418808,-1.7797265,-0.48176903,4.2058835,1.2092078,-9.91335
592,1715789527.6527672,3.42031,-1.782411,-0.4053791,3.5937965,1.2831224,-9.943283
593,1715789527.6681,3.42031,-1.782411,-0.4053791,3.0739503,1.3784174,-9.597533
594,1715789527.669905,3.1218278,-1.730915,-0.2630937,3.0739503,1.3784174,-9.597533
595,1715789527.6813467,2.8084583,-1.6667279,-0.1147069,3.0739503,1.3784174,-9.597533
596,1715789527.6825793,2.6080873,-1.6267025,-0.007565775,3.0336332,1.2947289,-9.316535
597,1715789527.6950114,2.539263,-1.620357,0.17523311,3.0336332,1.2947289,-9.316535
598,1715789527.6970701,2.539263,-1.620357,0.17523311,3.1533628,1.1322387,-9.155877
599,1715789527.7217631,2.539263,-2.3042057,0.31898284,4.2278748,0.16646078,-8.994609
600,1715789527.7232022,2.1240911,-2.3042057,0.31898284,4.675028,-0.18906279,-9.2108555
601,1715789527.7520819,1.8480625,-2.6986325,0.20256752,4.675028,-0.18906279,-9.2108555
602,1715789527.7537012,0.61822754,-3.887954,-0.44369608,4.8778353,0.15057829,-9.88464
603,1715789527.7644317,0.61822754,-3.887954,-0.8742436,3.8619664,-0.25381452,-9.297598
604,1715789527.766756,-0.9948079,-4.4863825,-0.8742436,3.8619664,-0.25381452,-9.297598
605,1715789527.7682343,-2.1489851,-4.913269,-1.0211661,3.8619664,-0.25381452,-9.297598
606,1715789527.7694209,-2.1489851,-4.913269,-1.0211661,2.4325418,-1.2544118,-8.049601
607,1715789527.7859256,-2.4953022,-5.5829926,-0.74367297,0.8339074,-1.738828,-6.1681356
608,1715789527.7998526,-2.6300523,-5.947614,-0.35827604,-0.07811439,-1.3564262,-4.571334
609,1715789527.802849,-2.6300523,-5.947614,-0.35827604,-0.6706537,-0.030848695,-1.8077793
610,1715789527.804268,-3.1069403,-5.978853,0.43954712,-0.6706537,-0.030848695,-1.8077793
611,1715789527.8132803,-3.3807724,-5.7860484,0.77222764,-0.447077,0.88606006,0.20563251
612,1715789527.8341684,-3.066671,-5.44507,0.94916916,1.121625,1.897042,4.1628175
613,1715789527.8363917,-2.3222656,-5.2529964,0.8283608,1.121625,1.897042,4.1628175
614,1715789527.849678,-1.7377487,-5.074103,0.5794224,2.2016346,1.7626517,5.737017
615,1715789527.8511884,-1.1517366,-4.6084414,0.1803583,2.2016346,1.7626517,5.737017
616,1715789527.8634772,-0.71096927,-3.918217,-0.35925224,2.3806183,1.2782356,6.6600347
617,1715789527.8781445,-0.71096927,-3.918217,-0.6770453,1.8772652,0.9184359,7.592215
618,1715789527.881357,-0.26968327,-3.4415426,-0.6770453,1.8772652,0.9184359,7.592215
619,1715789527.8983724,0.4080637,-2.8904614,-0.87546384,0.72639513,0.95447695,8.715596
620,1715789527.9110627,1.7233493,-2.2036538,-0.6079771,-1.4110223,1.0601566,10.294072
621,1715789527.933462,2.0791848,-2.076256,-0.4502856,-1.9644662,1.0112875,10.64532
622,1715789527.9361646,2.7044897,-2.0406237,-0.26699865,-2.536847,0.8555168,10.925707
623,1715789527.950739,2.7044897,-2.0406237,-0.26699865,-2.536847,0.8555168,10.850571
624,1715789527.951787,3.4962115,-2.3386176,-0.114462845,-3.1739795,0.7021896,10.850571
625,1715789527.9637938,3.79448,-2.7525692,-0.011714748,-3.515453,0.38820487,10.761994
626,1715789527.9710581,4.044395,-3.1306138,0.2613853,-3.515453,0.38820487,10.761994
627,1715789527.973134,4.044395,-3.1306138,0.2613853,-3.4824665,-0.098043874,10.907991
628,1715789527.9957044,4.0824676,-3.3690577,0.45394647,-2.5808294,-1.0919216,11.827954
629,1715789527.996982,4.0697765,-3.4476442,0.5279263,-2.5808294,-1.0919216,11.827954
630,1715789527.9987414,4.271368,-3.4081068,0.4339338,-2.5808294,-1.0919216,11.827954
631,1715789528.0120368,4.271368,-3.4081068,0.4339338,-1.7005725,-1.1859949,13.240275
632,1715789528.0132217,4.523266,-3.4054224,0.3141017,-1.7005725,-1.1859949,13.240275
633,1715789528.0301554,4.523266,-3.4054224,0.3141017,-1.7317266,-0.93370754,13.431476
634,1715789528.0315974,5.0355415,-3.2387311,0.08590815,-1.7317266,-0.93370754,13.431476
635,1715789528.0490637,5.0355415,-3.2387311,0.08590815,-1.7317266,-0.93370754,13.126655
636,1715789528.0514321,5.334268,-2.2785795,-0.035876416,-2.3358724,-0.3191771,11.907367
637,1715789528.0800452,5.334268,-2.2785795,-0.035876416,-3.3560174,-0.38331795,10.416245
638,1715789528.0810988,4.6260138,-1.5183411,0.50669336,-3.3560174,-0.38331795,10.416245
639,1715789528.0886266,4.6260138,-1.5183411,0.50669336,-3.5221727,-0.4914411,9.978254
640,1715789528.096594,4.6260138,-1.5183411,0.81981885,-3.3431892,-0.48472157,9.561645
641,1715789528.0982573,4.5020323,-1.2827954,0.81981885,-3.3431892,-0.48472157,9.561645
642,1715789528.105326,4.4309816,-0.92695993,0.9120724,-3.0597477,-0.35460728,9.017975
643,1715789528.1202164,4.2701473,-0.78955567,0.7178029,-2.89909,-0.04184427,7.678347
644,1715789528.1277575,3.6785529,-0.61822754,0.65166336,-2.89909,-0.04184427,7.678347
645,1715789528.128895,3.6785529,-0.61822754,0.65166336,-3.0249283,-0.03634648,7.0180016
646,1715789528.1367354,3.258744,-0.3270367,0.67802155,-3.279659,-0.31795537,6.644763
647,1715789528.1513178,2.892902,-0.024893839,0.8100565,-3.398778,-0.7272351,6.5012097
648,1715789528.1580696,2.892902,-0.024893839,1.046792,-3.298596,-1.2867876,6.4987664
649,1715789528.159124,2.7188892,0.20598431,1.046792,-3.298596,-1.2867876,6.4987664
650,1715789528.1714964,2.7188892,0.20598431,1.046792,-2.6089292,-2.3979516,6.554355
651,1715789528.1727612,3.738103,0.8681421,1.6347563,-1.7518852,-3.2213979,6.399806
652,1715789528.202472,5.0196776,1.6208452,1.6281669,0.14607315,-3.873191,5.644777
653,1715789528.204334,5.517341,2.512905,1.6376853,0.14607315,-3.873191,5.644777
654,1715789528.2145286,6.451104,3.6251044,1.6955267,0.80092067,-3.5347717,4.9746575
655,1715789528.2227337,6.451104,3.6251044,1.6955267,1.2401328,-2.81334,3.6918404
656,1715789528.225085,7.3741593,4.190829,1.7167597,1.2401328,-2.81334,3.6918404
657,1715789528.2349708,7.3741593,4.190829,1.7167597,1.6988926,-2.0967948,2.3375523
658,1715789528.2371705,7.7392993,4.7456017,1.7992511,1.6988926,-2.0967948,2.3375523
659,1715789528.2455401,7.7392993,4.7456017,1.7992511,1.8839848,-1.4315627,0.97898793
660,1715789528.247274,7.98897,4.602584,1.3975023,1.8839848,-1.4315627,0.97898793
661,1715789528.261462,7.9950714,2.8287148,0.47542354,1.8839848,-1.4315627,0.97898793
662,1715789528.262957,6.818197,1.7155395,0.4724948,0.8455139,1.4608842,-4.8291187
663,1715789528.271967,5.3081536,1.0743705,0.44955346,0.8455139,1.4608842,-4.8291187
664,1715789528.273451,5.3081536,1.0743705,0.44955346,0.44906232,1.7058412,-5.3190327
665,1715789528.2901673,4.271368,0.2523552,0.21403822,-0.07322747,2.01555,-5.003826
666,1715789528.3090732,3.9989998,-0.24186075,0.23575929,-1.1257483,2.1927009,-3.6764162
667,1715789528.3157246,4.298214,-0.24259292,0.5979708,-1.5423584,2.3252585,-3.260417
668,1715789528.3281662,4.298214,-0.24259292,0.5979708,-1.4916565,2.6032023,-3.3880877
669,1715789528.3292813,4.2987022,-0.23136626,0.7563639,-1.4916565,2.6032023,-3.3880877
670,1715789528.3452744,3.9889936,-0.12422514,0.8527665,-1.3071753,3.0705142,-3.6550357
671,1715789528.3465044,3.6592724,-0.042954076,0.8456889,-1.1575133,3.3533447,-3.8108065
672,1715789528.3695338,2.965631,-0.03734076,0.5130389,-1.0267881,3.6569448,-3.9586358
673,1715789528.3714278,2.6420112,-0.14863087,0.38951537,-1.3590988,4.381431,-4.094248
674,1715789528.4138386,2.208779,-0.25772443,0.58576787,-1.6657531,4.6911397,-3.8706713
675,1715789528.4152203,2.4772422,0.1313028,1.3660189,-0.73051846,4.4956627,-3.2897384
676,1715789528.4300816,3.0381162,0.15473229,1.3374642,-0.73051846,4.4956627,-3.2897384
677,1715789528.4312043,3.0381162,0.15473229,1.3374642,0.014126259,4.626999,-3.4632242
678,1715789528.4482844,3.8955197,-0.20793676,1.0326368,1.3549755,5.378363,-4.8853183
679,1715789528.454325,3.79448,-0.75514364,0.82958114,2.4869087,5.7173934,-6.0545144
680,1715789528.4613645,3.65732,-1.1202533,0.69412935,3.17963,5.690515,-6.496781
681,1715789528.4792247,3.4854732,-1.5754505,0.4991276,3.9554288,5.4064627,-6.8150415
682,1715789528.4942267,3.3507533,-1.8046203,0.36706212,4.7874274,4.8560734,-7.0380077
683,1715789528.5105226,3.2616725,-1.9859549,0.22013964,4.7874274,4.8560734,-7.0380077
684,1715789528.512528,3.1669784,-2.1777837,0.026602242,6.321921,2.7418687,-7.439346
685,1715789528.5211492,3.238243,-2.1936476,-0.11275445,6.574819,1.9819523,-7.6867466
686,1715789528.540857,3.238243,-2.1936476,-0.11275445,6.58948,1.5922203,-7.9640794
687,1715789528.541867,3.2733872,-2.1638725,-0.20866893,6.58948,1.5922203,-7.9640794
688,1715789528.554576,3.2733872,-2.1204302,-0.29555333,6.492352,1.317331,-8.23286
689,1715789528.555675,3.140376,-2.0477014,-0.47932845,6.0317597,1.0118983,-8.596935
690,1715789528.5643382,3.0778975,-1.982538,-0.5445222,5.725716,0.9282097,-8.706281
691,1715789528.5719783,2.9392729,-1.8732004,-0.6035841,5.725716,0.9282097,-8.706281
692,1715789528.5730815,2.9392729,-1.8732004,-0.6035841,5.186322,0.8567385,-8.733159
693,1715789528.5891564,2.8570259,-1.757029,-0.6040722,4.6823583,0.8695667,-8.676348
694,1715789528.591825,2.8365247,-1.6874728,-0.5664874,4.6823583,0.8695667,-8.676348
695,1715789528.5930526,2.8365247,-1.6874728,-0.5664874,4.276744,0.88056225,-8.631755
696,1715789528.6028626,2.8365247,-1.6874728,-0.5664874,3.80088,0.7302894,-8.614039
697,1715789528.6049361,2.7511048,-1.581796,-0.46078008,3.80088,0.7302894,-8.614039
698,1715789528.6113951,2.7113235,-1.5588547,-0.41465324,3.6078465,0.51343226,-8.637864
699,1715789528.6203444,2.7113235,-1.5588547,-0.41465324,3.551647,0.30573806,-8.714832
700,1715789528.6227927,2.65397,-1.6357325,-0.29482117,3.551647,0.30573806,-8.714832
701,1715789528.6425717,2.65397,-1.6357325,-0.29482117,3.7489564,0.27030787,-8.9060335
702,1715789528.644329,2.2732103,-1.8717359,-0.1552204,3.9792526,0.29352075,-9.111284
703,1715789528.6531184,1.9146901,-2.3625352,-0.35656762,4.198553,0.20799962,-9.39045
704,1715789528.6707487,-0.03441207,-4.131035,-0.9359901,3.2498794,-0.5580254,-10.205344
705,1715789528.6873267,-1.6284109,-4.560118,-0.87448764,2.3201425,-1.2617421,-9.799729
706,1715789528.702078,-3.0866835,-6.1279726,-0.2604091,0.34338263,-2.3026567,-6.6794295
707,1715789528.7282898,-3.0866835,-6.1279726,-0.2604091,0.34338263,-0.17073683,-2.0435734
708,1715789528.730129,-3.7715385,-6.9277782,0.78296614,0.0129045285,-0.17073683,-2.0435734
709,1715789528.737707,-3.9484801,-6.500678,1.1571059,0.0129045285,-0.17073683,-2.0435734
710,1715789528.739456,-3.9484801,-6.500678,1.1571059,0.8235227,1.289842,1.7230217
711,1715789528.7467601,-3.314389,-6.267329,1.0323926,1.4600443,1.8762726,3.7315466
712,1715789528.7661612,-1.165892,-5.3969903,0.04148973,2.6432903,2.3215933,6.5421376
713,1715789528.7734463,-1.165892,-4.7370596,-0.40830776,2.7844002,1.5952746,7.7992983
714,1715789528.7749546,-0.6975461,-4.7370596,-0.40830776,2.7844002,1.5952746,7.7992983
715,1715789528.790389,-0.6975461,-4.7370596,-0.40830776,2.7844002,1.1792754,8.608695
716,1715789528.7929778,0.18279888,-3.969713,-0.89254785,2.2358432,0.8426886,9.562866
717,1715789528.811384,0.18279888,-3.969713,-0.89254785,0.13019066,0.75655663,11.9275255
718,1715789528.812821,2.2712579,-3.0268893,-1.2029886,0.13019066,0.75655663,11.9275255
719,1715789528.8294196,2.8806992,-2.7703853,-1.1268429,-0.74884444,0.8170323,12.400947
720,1715789528.837814,3.6814818,-2.4955769,-0.78906757,-1.5741234,0.8762862,12.72837
721,1715789528.8462968,4.110046,-2.3903577,-0.5423257,-1.9082667,0.84574294,12.815113
722,1715789528.8526661,4.6057568,-2.3266587,-0.2362474,-2.1403954,0.7504479,12.759524
723,1715789528.8630054,5.1673326,-2.3849885,-0.043198135,-2.1403954,0.7504479,12.759524
724,1715789528.865113,5.1673326,-2.3849885,-0.043198135,-2.0615938,0.5897904,12.636741
725,1715789528.8902345,5.454588,-2.3293433,-0.051007964,-2.0615938,0.5897904,12.636741
726,1715789528.891659,5.5878735,-2.191939,-0.10689708,-1.9412534,0.2678644,12.427824
727,1715789528.893781,5.545652,-2.025736,-0.15766099,-2.024942,-0.5891795,11.797411
728,1715789528.9037974,5.545652,-1.8666108,-0.136428,-2.2075906,-0.61300325,11.531685
729,1715789528.904783,5.454588,-1.8666108,-0.136428,-2.2075906,-0.61300325,11.531685
730,1715789528.911723,5.301564,-1.6127913,0.33509058,-2.337094,-0.58001655,10.8988285
731,1715789528.9298396,5.0145526,-1.3652867,0.73147005,-1.7415005,-0.7528914,10.201832
732,1715789528.9484568,4.740965,-1.0995084,0.8896192,-0.37132972,-1.2024882,9.051572
733,1715789528.9644506,3.6495101,-0.58259517,0.5418376,0.5480225,-1.317331,7.6398625
734,1715789528.9731224,3.3502653,-0.44662476,0.4036707,0.4453971,-0.8542951,7.415675
735,1715789528.9931998,3.3502653,-0.44662476,0.4036707,0.26702446,-0.025350908,7.3264885
736,1715789528.9951994,3.101083,-0.272856,0.35705575,0.26702446,-0.025350908,7.3264885
737,1715789528.9961996,3.0922968,-0.19158493,0.2860351,0.11614075,0.6740898,7.2825065
738,1715789529.004201,3.0922968,-0.19158493,0.2860351,-0.102549,1.1511755,7.1041336
739,1715789529.005201,3.2614286,-0.102504045,0.013179091,-0.102549,1.1511755,7.1041336
740,1715789529.0182078,2.8933902,0.12983845,-0.41733786,-0.81665045,1.5335772,6.3374977
741,1715789529.0212083,2.8933902,0.12983845,-0.41733786,-1.5105934,1.4840971,5.7993255
742,1715789529.034208,2.8933902,0.12983845,-0.41733786,-1.5105934,1.4840971,5.524436
743,1715789529.037213,2.3998759,0.18792409,-0.30629185,-2.2790618,1.2257011,5.524436
744,1715789529.0516317,2.1309247,0.24576566,-0.09030118,-2.2790618,1.2257011,5.524436
745,1715789529.053704,2.1309247,0.24576566,-0.09030118,-2.9113073,0.86345804,5.6576047
746,1715789529.0557053,1.9210355,0.3968371,0.23868799,-2.9113073,0.86345804,5.6576047
747,1715789529.0782773,1.9210355,0.3968371,0.23868799,-2.8306732,0.7119634,6.088876
748,1715789529.0802777,2.4289188,0.7170707,0.33484653,-2.7225502,0.5030475,6.3405523
749,1715789529.0852787,2.8953426,0.78345424,0.122272685,-2.8154016,0.17928895,6.210438
750,1715789529.1072876,2.8953426,0.84666514,0.15546446,-2.8154016,0.17928895,6.210438
751,1715789529.109288,4.5020323,2.0052354,1.255949,-2.9198594,-1.4395039,6.0302324
752,1715789529.1112883,4.5020323,2.0052354,1.255949,-2.2350795,-2.3906212,6.1267495
753,1715789529.1392944,6.7681646,3.2514222,1.7272543,-0.868574,-3.1694744,5.9178333
754,1715789529.1412952,6.7681646,3.2514222,1.7272543,0.62193716,-3.1352658,4.899521
755,1715789529.1683254,6.605867,1.2710807,0.042465962,-0.6321692,-0.55680364,-1.6404023
756,1715789529.180882,6.605867,1.2710807,0.042465962,-2.305329,1.344209,-3.535917
757,1715789529.1878834,5.281307,0.5879644,0.6997427,-3.3682346,3.3044755,-4.050266
758,1715789529.1978855,4.6130786,0.1683995,1.3098857,-3.3938909,4.511545,-3.5963929
759,1715789529.2048872,4.6130786,0.1683995,1.3098857,-2.627866,5.845675,-2.8120418
760,1715789529.206888,4.454167,-0.021721095,1.8383002,-2.627866,5.845675,-2.8120418
761,1715789529.2128887,4.8996015,-0.061014313,1.9876633,-0.6388887,6.0790253,-2.7259097
762,1715789529.2288926,4.998933,-0.17718557,1.7724047,1.0562624,5.1266866,-3.3990834
763,1715789529.243896,4.2240205,-0.18475133,1.2188524,3.6927567,1.9000963,-4.8150687
764,1715789529.2629242,3.543345,0.031483386,0.038561042,3.5290449,0.4260785,-5.3733997
765,1715789529.2764783,3.499415,0.10201593,-0.22428861,2.7611873,0.86467975,-5.559103
766,1715789529.2864804,3.3480687,0.15595257,-0.33533466,1.7715856,1.6807957,-5.7344213
767,1715789529.3124864,3.3480687,0.15595257,-0.33533466,1.7715856,1.6807957,-6.2487698
768,1715789529.3144867,2.9021761,0.047347106,0.07199689,-0.08788824,4.0442333,-6.2487698
769,1715789529.32849,2.9380527,-0.10201593,0.27993366,-0.044516806,4.150524,-6.537098
770,1715789529.3394923,3.0808263,-0.29311275,0.41123646,0.25358543,4.0295725,-6.8571916
771,1715789529.3424928,3.1989498,-0.4510178,0.42319524,0.25358543,4.0295725,-6.8571916
772,1715789529.3444939,3.1989498,-0.4510178,0.42319524,0.6323219,3.8573086,-7.1601806
773,1715789529.3574963,3.1989498,-0.4510178,0.42319524,1.0189996,3.6722164,-7.497989
774,1715789529.359497,3.6175387,-1.0877936,0.19256116,1.0189996,3.6722164,-7.497989
775,1715789529.3604975,3.6175387,-1.0877936,0.19256116,1.6585755,3.3954945,-8.121072
776,1715789529.372524,3.6175387,-1.2747415,0.11251039,1.9817232,3.4034357,-8.298223
777,1715789529.3755248,3.6590283,-1.2747415,0.11251039,1.9817232,3.4034357,-8.298223
778,1715789529.3847027,3.6590283,-1.2747415,0.11251039,1.9817232,3.638619,-8.350757
779,1715789529.3857028,3.6851425,-1.4802377,-0.04368625,2.3109796,3.638619,-8.350757
780,1715789529.4027066,3.65732,-1.692842,-0.17035197,2.867478,3.9782598,-8.523632
781,1715789529.41771,3.594841,-1.778506,-0.22868164,3.1258738,3.8365393,-8.588384
782,1715789529.4307132,3.618759,-1.8104776,-0.2884757,3.329292,3.4541376,-8.678181
783,1715789529.4467168,3.6590283,-1.8387884,-0.35144243,3.4313064,3.0143147,-8.859608
784,1715789529.4477167,3.6763563,-1.8514794,-0.3699908,3.4685693,2.6025913,-9.085628
785,1715789529.4637444,3.6763563,-1.8514794,-0.3699908,3.451465,2.1401663,-9.35563
786,1715789529.4657452,3.3546581,-1.8329308,-0.37877685,3.3042464,1.6545285,-9.53217
787,1715789529.4820163,3.076189,-1.7772858,-0.43417785,2.7196484,1.3326025,-9.400834
788,1715789529.5040212,3.076189,-1.7772858,-0.43417785,2.7196484,1.3326025,-9.103343
789,1715789529.507022,2.9634347,-1.6855204,-0.2865232,2.1845305,1.679574,-9.103343
790,1715789529.5180242,2.8724012,-1.5800875,0.11690342,2.3152556,1.6111571,-9.039813
791,1715789529.525026,2.726211,-1.5539736,0.19158493,2.6481771,1.2483032,-8.874269
792,1715789529.5420296,2.726211,-1.5539736,0.19158493,2.9701033,0.82863873,-8.692842
793,1715789529.5430298,2.6564107,-1.547628,0.16425052,2.9701033,0.82863873,-8.692842
794,1715789529.5500317,2.576848,-1.5500686,0.15570852,2.9701033,0.82863873,-8.692842
795,1715789529.552032,2.4272103,-1.670877,0.10933765,3.1179326,0.55863625,-8.616484
796,1715789529.5776138,2.4272103,-1.670877,0.10933765,3.1179326,0.55863625,-8.989111
797,1715789529.578614,2.0486777,-2.3871849,0.06272271,3.1851277,0.7309003,-8.989111
798,1715789529.5856156,1.5822842,-3.0303063,0.08395569,3.387935,0.8194757,-9.399612
799,1715789529.609621,1.5822842,-3.0303063,0.08395569,3.5039995,0.72173727,-9.408165
800,1715789529.6106157,-0.07468152,-4.6379724,-0.48567393,2.391003,-0.34238997,-9.112506
801,1715789529.6126218,-1.306957,-5.3044925,-0.7841864,2.391003,-0.34238997,-9.112506
802,1715789529.6276248,-2.3830361,-6.2233987,-0.65288365,1.1503357,-1.1896601,-7.543804
803,1715789529.6376274,-2.8560495,-6.606599,-0.42368335,0.43256894,-0.9837985,-5.896911
804,1715789529.662657,-3.2314095,-6.7444916,-0.12324891,0.43256894,-0.9837985,-5.896911
805,1715789529.6646576,-3.3151212,-6.190207,0.6680152,0.20349449,1.9892827,1.5837445
806,1715789529.6726592,-3.3151212,-6.190207,0.641657,0.9927324,2.5702155,4.074242
807,1715789529.6746597,-2.429895,-5.891725,0.641657,0.9927324,2.5702155,4.074242
808,1715789529.6942143,-1.6784426,-5.4997687,0.43881494,1.6371952,2.7156014,5.5164948
809,1715789529.6952143,-1.1578381,-5.083377,0.23502712,2.1032853,2.6105325,6.4731097
810,1715789529.7122183,-0.051252022,-3.9960713,-0.41221267,2.5009587,2.2928827,7.5500655
811,1715789529.7142189,-0.051252022,-3.9960713,-0.41221267,2.5479953,1.8438967,8.667337
812,1715789529.7212205,0.65312773,-3.5291898,-0.72292805,2.2578342,1.5537357,9.5054455
813,1715789529.764254,0.65312773,-3.5291898,-0.72292805,1.5748869,1.3955216,10.295294
814,1715789529.7662547,1.7079737,-2.8780146,-0.906215,0.9860129,1.353372,10.70885
815,1715789529.7878115,2.8821635,-1.9654541,-0.7346428,0.9860129,1.353372,10.70885
816,1715789529.7888117,3.5455415,-1.5878975,-0.31678632,-2.455602,0.8384125,11.752208
817,1715789529.8008146,3.5455415,-1.5878975,-0.31678632,-2.84961,0.43768495,11.583609
818,1715789529.802815,4.0617228,-1.477065,-0.052472305,-3.1183908,-0.10598512,11.204261
819,1715789529.8238196,3.8777037,-1.4792615,0.110557936,-3.3059263,-0.97097033,10.600726
820,1715789529.8458247,3.5719,-1.6955267,0.31727442,-3.2149074,-1.3869696,11.081477
821,1715789529.874857,4.2140145,-1.9054159,0.45736328,-2.4397194,-1.9685133,11.665464
822,1715789529.8784049,4.4444046,-1.935679,0.22624107,-2.1214585,-1.9385809,11.483427
823,1715789529.89541,4.4444046,-1.935679,0.0012202862,-2.1458933,-1.7345519,11.284285
824,1715789529.8974109,4.6289425,-1.9412924,0.0012202862,-2.1458933,-1.7345519,11.284285
825,1715789529.9034116,4.6289425,-1.8614857,-0.20549619,-2.4391086,-1.2831224,10.859734
826,1715789529.905412,4.6758013,-1.8614857,-0.20549619,-2.4391086,-1.2831224,10.859734
827,1715789529.9074118,4.351907,-1.6799071,-0.31947094,-3.0927343,-0.58368176,10.237872
828,1715789529.9424233,3.7822773,-1.0436193,1.165892,-2.1037436,-1.2873985,8.44987
829,1715789529.945422,3.567995,-0.7514828,1.1729697,-1.0316751,-1.6380352,8.103509
830,1715789529.954422,3.6861184,-0.2545517,0.7431848,-1.0316751,-1.6380352,8.103509
831,1715789529.9554257,3.6861184,-0.2545517,0.7431848,0.35559994,-2.0265455,7.3466473
832,1715789529.97445,3.4315362,0.0976229,-0.08346757,0.7447211,-1.4792101,5.515273
833,1715789529.9896026,3.0193238,0.21257387,-0.23966423,0.7447211,-1.4792101,5.515273
834,1715789529.9916034,3.0193238,0.21257387,-0.23966423,-0.28764117,-0.27947086,4.7901764
835,1715789529.992601,2.6154091,0.36730617,-0.23649146,-0.28764117,-0.27947086,4.7901764
836,1715789530.0026023,2.319337,0.5018122,-0.21159762,-0.8496372,0.56169057,4.9245667
837,1715789530.0226068,2.4269662,0.4617563,-0.15497635,-1.3279446,1.3301591,5.1835732
838,1715789530.0246074,2.692775,0.47859627,-0.18157859,-1.5796212,1.1872166,5.238551
839,1715789530.0376103,2.8638594,0.4842096,-0.17230442,-1.5973363,0.7504479,5.1731887
840,1715789530.0500176,2.8638594,0.4842096,-0.17230442,-1.3731487,-0.45540005,5.2403836
841,1715789530.0520937,3.0017514,0.5130389,-0.004148973,-0.75373137,-2.2922719,5.719913
842,1715789530.0541239,3.2829053,0.9752833,0.31190515,-0.75373137,-2.2922719,5.719913
843,1715789530.0601254,4.070265,1.6637992,0.51572347,0.39652792,-3.7895026,6.1444645
844,1715789530.0817082,4.070265,1.6637992,0.51572347,1.4655421,-4.169461,6.196388
845,1715789530.083708,5.2080903,2.3942626,0.35583547,1.4655421,-4.169461,6.196388
846,1715789530.0847044,5.2080903,2.3942626,0.35583547,1.8723783,-3.6172385,5.896453
847,1715789530.085705,6.0464573,2.9666073,0.14179726,1.8723783,-3.6172385,5.896453
848,1715789530.0957115,6.72155,3.3585632,-0.16717921,1.8754326,-2.7302623,5.325294
849,1715789530.1037087,6.72155,3.255083,-0.74074423,0.85467684,-0.7968737,3.2929454
850,1715789530.1047103,7.95651,3.255083,-0.74074423,0.85467684,-0.7968737,3.2929454
851,1715789530.1177125,7.95651,3.255083,-0.74074423,-0.60284764,0.7107417,1.0614548
852,1715789530.1197128,7.4830084,2.3208015,-0.72829735,-0.60284764,0.7107417,1.0614548
853,1715789530.1207125,7.4830084,2.3208015,-0.72829735,-2.1458933,2.2342396,-0.8322275
854,1715789530.1367166,7.4830084,2.3208015,-0.72829735,-3.1733687,3.2091806,-1.7754035
855,1715789530.137718,6.6222186,1.9034635,-0.19036464,-3.1733687,3.2091806,-1.7754035
856,1715789530.164743,6.6222186,0.56209433,1.594243,-2.5557837,4.8902817,-3.2127695
857,1715789530.1657438,4.7492623,0.56209433,1.594243,-2.5557837,4.8902817,-3.2127695
858,1715789530.1832924,4.7492623,0.38316986,1.7340878,-0.44463354,4.082718,-4.4039564
859,1715789530.1842933,4.4021826,0.38316986,1.7340878,-0.44463354,4.082718,-4.4039564
860,1715789530.204302,3.131834,0.25528386,1.6098627,-0.44463354,4.082718,-4.4039564
861,1715789530.2062812,2.6056468,0.30165476,1.3501551,1.0776427,2.5176811,-4.6415834
862,1715789530.2132998,2.5661094,0.3414361,0.9372103,1.3378712,1.7687603,-4.438165
863,1715789530.2213016,2.5661094,0.3414361,0.9372103,1.3378712,1.829236,-4.54751
864,1715789530.2223022,2.7674565,0.37658033,0.75465554,1.2193633,1.829236,-4.54751
865,1715789530.238305,2.905349,0.37609223,0.6648424,1.1100185,2.065641,-4.7680326
866,1715789530.240306,2.905349,0.37609223,0.6648424,0.9695195,2.44621,-5.101565
867,1715789530.261298,2.905349,-0.019036464,0.3448529,0.72944945,2.990491,-5.527949
868,1715789530.264323,2.8750858,-0.019036464,0.3448529,0.43989933,3.6685512,-6.011754
869,1715789530.271324,2.85849,-0.19451363,0.3441207,0.36048687,3.9336667,-6.239607
870,1715789530.2858777,2.9043727,-0.4566311,0.40781966,0.39713877,4.1706824,-6.559089
871,1715789530.3018816,2.9043727,-0.4566311,0.40781966,0.39713877,4.0344596,-7.085655
872,1715789530.303882,3.1411083,-0.906215,0.5686839,1.0147235,4.0344596,-7.085655
873,1715789530.313884,3.2936442,-1.2078698,0.6048044,1.5498415,3.8163805,-7.3183947
874,1715789530.3408902,3.3768675,-1.4424088,0.63897234,2.2932644,3.6300666,-7.6183295
875,1715789530.3438907,3.4888897,-1.7538564,0.56551117,3.6267834,3.1994066,-8.109466
876,1715789530.353893,3.4403224,-1.8656346,0.43832684,4.20344,2.9226847,-8.3018875
877,1715789530.370921,3.3961482,-1.9571561,0.23575929,4.680526,2.5237896,-8.432613
878,1715789530.3729093,3.4449596,-2.0115807,0.073949344,4.906546,2.1474967,-8.555397
879,1715789530.383476,3.4781513,-2.0140214,-0.010738519,4.9230394,1.9953914,-8.676348
880,1715789530.3964787,3.4781513,-2.0140214,-0.010738519,4.9230394,1.8530598,-8.826621
881,1715789530.3974795,3.479616,-1.9893718,-0.117635585,4.833242,1.8530598,-8.826621
882,1715789530.413483,3.479616,-1.9893718,-0.117635585,4.1612906,1.7058412,-9.229181
883,1715789530.4154835,3.3690577,-1.9449532,-0.29530928,4.1612906,1.7058412,-9.229181
884,1715789530.4314866,3.3690577,-1.9449532,-0.29530928,4.1612906,1.7058412,-9.309204
885,1715789530.432487,2.926094,-1.8651465,-0.32972133,3.3164637,1.7876972,-9.197416
886,1715789530.4534917,2.926094,-1.8651465,-0.0353883,2.9322295,1.5439619,-8.928636
887,1715789530.4554925,2.7457356,-1.790953,-0.0353883,2.9322295,1.5439619,-8.928636
888,1715789530.4830732,2.2951753,-1.9730198,0.14814276,3.3030248,0.91538155,-8.774697
889,1715789530.5020773,1.692354,-2.6332252,0.1683995,3.5656967,0.97158116,-8.959179
890,1715789530.5040781,1.692354,-2.6332252,0.1683995,3.9096138,1.2318097,-9.254838
891,1715789530.5300841,1.692354,-2.6332252,0.1683995,4.3928084,1.5470163,-9.577374
892,1715789530.5310845,-1.6781986,-4.460024,-0.8886429,4.0757694,0.36377025,-8.598157
893,1715789530.5816722,-4.450506,-5.9163747,0.06760386,0.18455766,-0.20555615,-2.176131
894,1715789530.5876734,-4.450506,-5.9163747,0.06760386,0.20715968,0.41630468,0.12744176
895,1715789530.6046772,-4.450506,-5.5629797,0.39146784,0.58711785,0.9825767,2.9355893
896,1715789530.607678,-2.9919891,-5.1485405,0.24112856,1.4007903,1.3949108,6.3399415
897,1715789530.6096785,-1.9932766,-4.7831864,-0.08395569,1.4007903,1.3949108,6.3399415
898,1715789530.6106787,-1.9932766,-4.7831864,-0.08395569,1.6298648,1.5305228,7.6313105
899,1715789530.6356843,-1.08096,-4.2708797,-0.3904916,1.560837,1.6087136,8.631907
900,1715789530.6366842,-0.18841219,-3.709304,-0.6177394,1.2065352,1.5561792,9.42481
901,1715789530.6516876,1.3709,-2.785517,-0.8344623,0.26580274,1.0839803,10.064386
902,1715789530.6724007,1.3709,-2.050874,-0.5833273,-0.9540951,0.54702985,10.411969
903,1715789530.674401,2.3825479,-2.050874,-0.5833273,-0.9540951,0.54702985,10.411969
904,1715789530.6919594,2.3825479,-2.050874,-0.5833273,-1.2021065,0.5213735,10.573237
905,1715789530.6929576,3.0827787,-1.7460465,-0.22624107,-1.3713161,0.5183192,10.682582
906,1715789530.7189636,3.0827787,-1.7460465,-0.22624107,-1.3713161,0.6001751,10.459617
907,1715789530.7209647,3.8730667,-1.6320719,-0.0056133163,-2.0890827,0.5164866,10.117532
908,1715789530.7319667,3.9579983,-1.5771589,0.10055158,-2.191708,0.464563,9.736963
909,1715789530.74597,3.7869143,-1.4353312,0.28725538,-2.1727712,0.364992,9.210397
910,1715789530.7559724,3.4820564,-1.3435657,0.44735694,-2.0261636,0.10476339,8.8976345
911,1715789530.763998,3.144037,-1.3450301,0.49446,-1.784261,-0.043066,8.876254
912,1715789530.777527,2.9670956,-1.3787099,0.4915313,-1.5472453,-0.15363261,8.95811
913,1715789530.7845528,2.827983,-1.3779777,0.41196862,-1.3487141,-0.21105394,9.076007
914,1715789530.7945554,2.827983,-1.3779777,0.32972133,-1.2754103,-0.22388211,9.215284
915,1715789530.7965558,2.7703853,-1.3757812,0.32972133,-1.2754103,-0.22388211,9.215284
916,1715789530.8145595,2.7703853,-1.3757812,0.32972133,-1.2754103,-0.24098633,9.405263
917,1715789530.8165414,2.8824077,-1.379198,0.19402552,-1.4232397,-0.24098633,9.405263
918,1715789530.8235614,2.8824077,-1.379198,0.19402552,-1.4232397,-0.2910773,9.228112
919,1715789530.8255625,3.1108453,-1.2862122,0.22575295,-1.5918385,-0.2910773,9.228112
920,1715789530.846567,3.5260172,-0.9057269,0.35315084,-1.4611133,-0.13652839,7.9068108
921,1715789530.8585696,3.3810165,-0.71072525,0.38878322,-1.3059535,0.04795292,7.20065
922,1715789530.8775978,3.3810165,-0.71072525,0.38878322,-1.177061,0.27763826,6.5115943
923,1715789530.8791506,2.6722744,-0.37926495,0.2328306,-1.294347,0.55741453,6.23304
924,1715789530.8941543,2.6722744,-0.37926495,0.2328306,-1.5808429,1.0009027,6.088265
925,1715789530.8961546,2.421109,-0.20451997,0.070532545,-1.5808429,1.0009027,6.088265
926,1715789530.8971548,2.3212895,-0.117879644,-0.07028849,-2.191708,1.5561792,5.8817925
927,1715789530.92116,2.3212895,-0.117879644,-0.07028849,-3.3059263,2.0693061,5.673487
928,1715789530.9231603,2.4008522,-0.4502856,-0.20183535,-5.026123,2.282498,5.561088
929,1715789530.939164,2.48554,-0.5403732,0.108117364,-5.026123,2.282498,5.561088
930,1715789530.9411643,2.48554,-0.5403732,0.108117364,-5.4671674,2.0179935,5.52688
931,1715789530.9431653,2.6273677,-0.58869654,0.594554,-5.528865,1.3729197,5.503667
932,1715789530.9837484,4.117856,0.81689006,2.0765,0.21632266,-4.6098948,6.5531335
933,1715789530.9957514,4.117856,0.81689006,2.0765,1.3397038,-4.894558,6.6160526
934,1715789530.996751,5.0997286,1.3477145,1.7951021,1.3397038,-4.894558,6.6160526
935,1715789531.0107543,5.0997286,2.0511181,1.3777337,1.3397038,-4.894558,6.6160526
936,1715789531.0117545,7.8552265,2.6075993,0.7431848,2.988429,-3.8933496,3.7767508
937,1715789531.0327592,7.8552265,2.6075993,0.7431848,2.988429,-3.6129625,2.15246
938,1715789531.03476,7.993851,2.5949082,0.36974674,2.612747,-3.6129625,2.15246
939,1715789531.0457623,7.993851,2.5949082,0.36974674,2.612747,-3.6129625,-1.1804208
940,1715789531.0467625,7.302894,2.204874,0.38975942,0.17722727,-1.1615603,-1.1804208
941,1715789531.070792,7.302894,2.204874,0.38975942,-0.8600219,0.3472769,-1.7998381
942,1715789531.0727925,6.5233755,0.8617967,1.3567448,-1.9498055,4.661207,-3.6733618
943,1715789531.0800407,6.5233755,0.8617967,1.3567448,-1.1129202,5.882938,-4.779639
944,1715789531.0810409,5.436772,0.41074833,1.8199959,-1.1129202,5.882938,-4.779639
945,1715789531.109047,4.6675034,0.0776102,1.8375679,-0.12331842,5.822462,-5.26772
946,1715789531.1110477,3.2309213,-0.16034561,1.1226939,2.041588,4.213443,-5.263444
947,1715789531.1230502,3.194557,-0.153512,0.957223,2.041588,4.213443,-5.263444
948,1715789531.125051,3.194557,-0.153512,0.957223,2.2156847,3.983147,-5.205412
949,1715789531.1380537,3.2646015,-0.14399378,0.7273211,2.3348033,3.7442985,-5.228625
950,1715789531.1460555,3.2646015,-0.14399378,0.7273211,2.309147,3.4486396,-5.7967296
951,1715789531.148056,3.3749151,-0.14936304,0.46736962,2.309147,3.4486396,-5.7967296
952,1715789531.1560576,3.3243954,-0.19060871,0.4166057,2.246228,3.2861495,-6.1546965
953,1715789531.1640837,3.2336059,-0.26236153,0.36706212,2.246228,3.2861495,-6.1546965
954,1715789531.1660843,3.2336059,-0.26236153,0.36706212,2.0898464,3.071125,-6.6849275
955,1715789531.179198,3.110357,-0.42075467,0.36340126,2.0898464,3.071125,-6.6849275
956,1715789531.1811986,3.110357,-0.42075467,0.36340126,1.9273562,3.1468723,-7.155905
957,1715789531.192201,3.110357,-0.42075467,0.36340126,1.7715856,3.5188892,-7.5896187
958,1715789531.1942017,2.8924139,-0.78931165,0.379509,1.7715856,3.5188892,-7.5896187
959,1715789531.2162063,2.8924139,-0.78931165,0.379509,1.7715856,3.5188892,-7.6415424
960,1715789531.2182066,2.8216374,-1.0392263,0.42929673,1.8436676,3.8072176,-7.6415424
961,1715789531.2192042,3.0969338,-1.370412,0.48665017,2.2395084,3.88663,-7.686136
962,1715789531.2352104,3.2628927,-1.5159005,0.5633146,2.6964355,3.6569448,-7.874282
963,1715789531.2472134,3.2628927,-1.5159005,0.5633146,3.2553773,3.2769866,-8.07037
964,1715789531.2482135,3.357099,-1.6047374,0.61114985,3.2553773,3.2769866,-8.07037
965,1715789531.2552152,3.400053,-1.6779546,0.53427184,3.9212203,2.653904,-8.294558
966,1715789531.267242,3.3695462,-1.768988,0.33362624,4.5950046,1.8664987,-8.526075
967,1715789531.2805607,3.3344014,-1.8114538,0.08615221,4.5950046,1.8664987,-8.526075
968,1715789531.281561,3.3344014,-1.8114538,0.08615221,4.887609,1.4022411,-8.683679
969,1715789531.2875621,3.228237,-1.8263415,-0.16351835,4.887609,1.4022411,-8.683679
970,1715789531.2895632,3.228237,-1.8263415,-0.16351835,4.8546224,1.1835514,-8.767367
971,1715789531.2975647,3.228237,-1.8263415,-0.16351835,4.5290313,1.1695015,-8.816847
972,1715789531.299548,3.1132858,-1.7655711,-0.38487828,4.5290313,1.1695015,-8.816847
973,1715789531.3005655,3.0110257,-1.7138311,-0.513771,4.1050906,1.2592987,-8.857164
974,1715789531.317569,3.0110257,-1.7138311,-0.62921005,3.274925,1.5366315,-8.84678
975,1715789531.3195698,2.8096786,-1.6401258,-0.6311625,3.274925,1.5366315,-8.84678
976,1715789531.3205702,2.8096786,-1.6401258,-0.6311625,2.8882473,1.7418822,-8.789358
977,1715789531.352577,2.8096786,-1.6401258,-0.6311625,2.095955,2.1206186,-8.671461
978,1715789531.3535771,2.4147635,-1.468279,-0.328257,1.5571718,2.1682663,-8.605488
979,1715789531.3781326,2.4147635,-1.3501551,0.0622346,1.6188693,1.8603901,-7.962247
980,1715789531.3801577,2.0540469,-1.3501551,0.0622346,1.6188693,1.8603901,-7.962247
981,1715789531.3811579,1.9776568,-1.3074452,0.14814276,1.8986455,1.6490307,-7.7417245
982,1715789531.412165,1.880522,-1.3225768,0.20403185,1.8986455,1.6490307,-7.7417245
983,1715789531.413165,1.880522,-1.3225768,0.20403185,2.282269,1.3301591,-7.553578
984,1715789531.4141655,1.7255458,-1.6281669,0.35925224,3.4099262,0.6582073,-7.5059304
985,1715789531.423167,1.7255458,-1.6281669,0.35925224,4.1429644,0.61544675,-8.003175
986,1715789531.426168,1.5364014,-2.1114001,0.33753118,4.1429644,0.61544675,-8.003175
987,1715789531.439171,1.5364014,-2.1114001,0.33753118,4.889442,0.60139686,-8.714222
988,1715789531.4411712,1.1544212,-2.7489083,0.26943922,4.889442,0.60139686,-8.714222
989,1715789531.4431717,0.15253578,-3.575805,-0.10665302,4.889442,0.60139686,-8.714222
990,1715789531.4541743,0.15253578,-3.575805,-0.10665302,5.5455112,0.2556471,-9.36968
991,1715789531.4551742,-0.92427534,-4.155685,-0.5755175,5.58705,-0.24587326,-9.48269
992,1715789531.4692013,-3.204075,-4.6833673,-0.88278556,4.589507,-1.6209309,-7.8864994
993,1715789531.4857585,-3.7732472,-5.0304165,-0.68583137,3.6163986,-2.2611177,-5.476636
994,1715789531.5037596,-3.5113735,-5.3774657,-0.5301228,2.3824508,-1.5464053,-2.4314728
995,1715789531.5177624,-3.365641,-5.387472,-0.25259924,1.6188693,-0.12675454,-0.55794907
996,1715789531.5197632,-3.2006583,-4.7067966,0.5310991,1.4197272,2.2678373,3.707723
997,1715789531.5347693,-3.2006583,-4.7067966,0.5310991,1.8308395,2.137723,5.098052
998,1715789531.5367706,-2.7681887,-4.480037,0.50010383,1.8308395,2.137723,5.098052
999,1715789531.5377676,-1.6781986,-4.117856,0.24747404,2.309758,1.6288722,6.2348723
1000,1715789531.550773,-1.0377619,-3.8933234,0.05198419,2.4508677,1.3454307,6.5256443
