id,timestamp,acc_x,acc_y,acc_z,gyro_x,gyro_y,gyro_z
0,1715374776240,0.26,-0.08,1.03,17.46,3.78,-2.87
1,1715374776250,0.25625000000000003,-0.0825,1.03125,15.62875,3.3,-2.13
2,1715374776260,0.23,-0.1,1.04,2.81,-0.06,3.05
3,1715374776270,0.23,-0.1,1.04,2.81,-0.06,3.05
4,1715374776280,0.23,-0.1,1.04,2.81,-0.06,3.05
5,1715374776290,0.22,-0.10250000000000001,1.0350000000000001,-0.08999999999999986,0.855,4.6525
6,1715374776300,0.19,-0.11,1.02,-8.79,3.6,9.46
7,1715374776310,0.19,-0.11,1.02,-8.79,3.6,9.459999999999999
8,1715374776320,0.19,-0.11,1.02,-8.79,3.6,9.46
9,1715374776330,0.17875,-0.12125,1.0350000000000001,-6.0675,-0.9075,15.295
10,1715374776340,0.16,-0.14,1.06,-1.53,-8.42,25.02
11,1715374776350,0.16,-0.14,1.06,-1.53,-8.42,25.02
12,1715374776360,0.16,-0.14,1.06,-1.53,-8.42,25.02
13,1715374776370,0.14750000000000002,-0.065,0.9725,-2.93625,-3.7325,38.87
14,1715374776380,0.14,-0.02,0.92,-3.78,-0.92,47.18
15,1715374776390,0.14,-0.02,0.92,-3.78,-0.92,47.18
16,1715374776400,0.14,-0.02,0.92,-3.78,-0.92,47.18
17,1715374776410,0.10875,0.02375,0.81375,-22.0,8.850000000000001,60.64
18,1715374776420,0.09,0.05,0.75,-40.21999999999999,18.62,74.1
19,1715374776430,0.09,0.05,0.75,-40.22,18.62,74.1
20,1715374776440,0.09,0.05,0.75,-40.21999999999999,18.62,74.1
21,1715374776450,-0.06,-0.0775,0.5325,-60.21,18.525,73.335
22,1715374776460,-0.11,-0.12,0.46,-80.2,18.43,72.57
23,1715374776470,-0.11,-0.12,0.46,-80.2,18.43,72.57
24,1715374776480,-0.11,-0.12,0.46,-80.2,18.43,72.57
25,1715374776490,-0.07,0.12,0.26,-73.18,-25.82,52.06
26,1715374776500,-0.07,0.12,0.26,-73.18,-25.82,52.06
27,1715374776510,-0.07,0.12,0.26,-73.18,-25.82,52.06
28,1715374776520,-0.07,0.12,0.26,-73.17999999999999,-25.82,52.06
29,1715374776530,-0.12,0.13,-0.04,-135.5,-5.19,65.37
30,1715374776540,-0.12,0.13,-0.04,-135.5,-5.19,65.37
31,1715374776550,-0.12,0.13,-0.04,-135.5,-5.19,65.37
32,1715374776560,-0.1175,0.0925,-0.085,-154.74,-4.532500000000001,56.337500000000006
33,1715374776570,-0.11,-0.02,-0.22,-212.46,-2.56,29.24
34,1715374776580,-0.11,-0.02,-0.22,-212.46,-2.56,29.24
35,1715374776590,-0.11,-0.02,-0.22,-212.46,-2.56,29.24
36,1715374776600,0.08285714285714287,-0.15285714285714286,-0.27999999999999997,-235.23714285714286,-6.311428571428571,32.551428571428566
37,1715374776610,0.34,-0.33,-0.36,-292.18,-15.69,40.83
38,1715374776620,0.34,-0.33,-0.36,-292.18,-15.69,40.83
39,1715374776630,0.34,-0.33,-0.36,-292.18,-15.69,40.83
40,1715374776640,0.55,-0.61,-0.55,-313.32625,21.869999999999997,47.332499999999996
41,1715374776650,0.76,-0.89,-0.74,-348.57,84.47,58.17
42,1715374776660,0.76,-0.89,-0.74,-348.57,84.47,58.17
43,1715374776670,0.76,-0.89,-0.74,-348.57,84.47,58.17
44,1715374776680,1.1385714285714286,-1.8614285714285717,-1.1042857142857143,-383.5157142857143,60.769999999999996,20.554285714285715
45,1715374776690,1.29,-2.25,-1.25,-430.11,29.17,-29.6
46,1715374776700,1.29,-2.25,-1.25,-430.11,29.17,-29.6
47,1715374776710,1.29,-2.25,-1.25,-430.11,29.17,-29.6
48,1715374776720,1.725,-3.555,-1.2425,-417.02250000000004,157.39,-31.572499999999998
49,1715374776730,1.8699999999999999,-3.9899999999999998,-1.24,-412.66,200.12999999999997,-32.23
50,1715374776740,1.87,-3.99,-1.24,-412.66,200.13,-32.23
51,1715374776750,1.87,-3.99,-1.24,-412.66,200.13,-32.23
52,1715374776760,1.9224999999999999,-4.83,-0.6625,-274.27750000000003,356.685,35.427499999999995
53,1715374776770,1.94,-5.11,-0.47000000000000003,-228.15,408.87,57.98
54,1715374776780,1.94,-5.11,-0.47,-228.15,408.87,57.98
55,1715374776790,1.94,-5.11,-0.47,-228.15,408.87,57.98
56,1715374776800,1.837142857142857,-4.612857142857143,0.07857142857142858,30.81,369.7928571428571,-81.02285714285713
57,1715374776810,1.82,-4.53,0.17,73.97,363.28,-104.19
58,1715374776820,1.82,-4.53,0.17,73.97,363.28,-104.19
59,1715374776830,1.82,-4.53,0.17,73.97,363.28000000000003,-104.18999999999998
60,1715374776840,0.95,-4.03,-0.06,94.67,172.12,-312.87
61,1715374776850,0.95,-4.03,-0.06,94.67,172.12,-312.87
62,1715374776860,0.95,-4.03,-0.06,94.67,172.12000000000003,-312.87
63,1715374776870,0.7725,-3.8925,0.0675,94.67,172.12,-312.87
64,1715374776880,0.24,-3.48,0.45,128.3,191.41,-308.41
65,1715374776890,0.24,-3.48,0.45,128.3,191.41,-308.41
66,1715374776900,0.24,-3.48,0.45,128.3,191.41,-308.41
67,1715374776910,0.07499999999999998,-3.285,0.42375,155.03,156.64,-312.28000000000003
68,1715374776920,-0.2,-2.96,0.38,199.58,98.68999999999998,-318.73
69,1715374776930,-0.2,-2.96,0.38,199.58,98.69,-318.73
70,1715374776940,-0.2,-2.96,0.38,199.58,98.69,-318.73
71,1715374776950,-0.355,-2.745,0.28,205.34875,84.095,-326.52625
72,1715374776960,-0.51,-2.53,0.18,245.73,-18.07,-381.1
73,1715374776970,-0.51,-2.53,0.18,245.73,-18.07,-381.1
74,1715374776980,-0.51,-2.53,0.18,245.73,-18.07,-381.1
75,1715374776990,-0.5057142857142857,-2.4699999999999998,0.10714285714285714,229.06714285714287,-51.60142857142858,-400.4328571428572
76,1715374777000,-0.5,-2.39,0.01,206.85,-96.31,-426.21
77,1715374777010,-0.5,-2.39,0.01,206.85,-96.31000000000002,-426.21
78,1715374777020,-0.5,-2.39,0.01,206.85,-96.31,-426.21
79,1715374777030,-0.4925,-2.37,-0.010000000000000002,200.715,-98.355,-433.58
80,1715374777040,-0.47,-2.31,-0.07,182.31,-104.49,-455.69
81,1715374777050,-0.47000000000000003,-2.31,-0.07,182.31,-104.49,-455.69
82,1715374777060,-0.47,-2.31,-0.07,182.31,-104.49,-455.69
83,1715374777070,-0.47,-2.31,-0.07,182.31,-104.49,-455.69
84,1715374777080,-0.47,-2.31,-0.07,182.31,-104.49,-455.69
85,1715374777090,-0.47,-2.31,-0.07,182.31,-104.49,-455.69
86,1715374777100,-0.38571428571428573,-2.13,-0.13428571428571429,149.70285714285714,-81.38285714285713,-450.8471428571429
87,1715374777110,-0.28,-1.95,-0.12,74.54375,-67.9225,-458.045
88,1715374777120,-0.28,-1.95,-0.12,65.67,-67.32,-459.35
89,1715374777130,-0.28,-1.95,-0.12,65.67,-67.32,-459.35
90,1715374777140,-0.19714285714285715,-1.9385714285714286,-0.13428571428571429,39.215714285714284,-76.72,-466.2728571428571
91,1715374777150,0.01,-1.91,-0.17,-26.92,-100.22,-483.58
92,1715374777160,0.01,-1.91,-0.17,-26.919999999999998,-100.22,-483.58
93,1715374777170,0.01,-1.91,-0.17,-26.92,-100.22,-483.58
94,1715374777180,-0.046250000000000006,-1.86125,-0.2675,-57.955000000000005,-101.77625,-487.5175
95,1715374777190,-0.14,-1.78,-0.43,-109.67999999999999,-104.37,-494.08
96,1715374777200,-0.14,-1.78,-0.43,-109.68,-104.37,-494.08000000000004
97,1715374777210,-0.14,-1.78,-0.43,-109.67999999999999,-104.37,-494.08
98,1715374777220,-0.8300000000000001,-1.405,-0.235,-172.21,-133.3,-484.92499999999995
99,1715374777230,-1.52,-1.03,-0.04,-234.74,-162.23,-475.77
100,1715374777240,-1.52,-1.03,-0.04,-234.74,-162.23,-475.77
101,1715374777250,-1.52,-1.03,-0.04,-234.74,-162.23,-475.77
102,1715374777260,-3.927142857142857,-0.5371428571428571,1.5314285714285716,-238.27142857142857,-141.53857142857143,-379.2214285714286
103,1715374777270,-4.89,-0.34,2.16,-242.98,-113.95,-250.49
104,1715374777280,-4.89,-0.34,2.16,-242.98,-113.95,-250.49
105,1715374777290,-4.89,-0.34,2.16,-242.98,-113.95,-250.49
106,1715374777300,-5.368571428571428,-0.4971428571428572,2.6885714285714286,-67.02285714285713,-79.42142857142858,-93.80428571428571
107,1715374777310,-5.56,-0.56,2.9,3.36,-65.61,-31.13
108,1715374777320,-5.56,-0.56,2.9,3.36,-65.61,-31.13
109,1715374777330,-5.56,-0.56,2.9,3.36,-65.61,-31.13
110,1715374777340,-4.85,-0.84,1.94,237.3,-203.92,125.18
111,1715374777350,-4.85,-0.84,1.94,237.3,-203.92,125.18
112,1715374777360,-4.85,-0.84,1.94,237.3,-203.92,125.18
113,1715374777370,-4.529999999999999,-0.9928571428571428,1.6057142857142856,237.3,-203.92,125.17999999999999
114,1715374777380,-2.61,-1.91,-0.4,392.02500000000003,-183.9625,297.71000000000004
115,1715374777390,-2.61,-1.91,-0.4,443.6,-177.31,355.22
116,1715374777400,-2.61,-1.91,-0.4,443.6,-177.31,355.21999999999997
117,1715374777410,-2.0175,-2.2275,-0.9424999999999999,431.59250000000003,-167.8325,418.82000000000005
118,1715374777420,-0.24,-3.18,-2.57,395.57,-139.4,609.62
119,1715374777430,-0.24,-3.18,-2.57,395.57,-139.4,609.62
120,1715374777440,-0.24,-3.18,-2.57,395.57,-139.4,609.62
121,1715374777450,0.10500000000000002,-3.375,-2.405,352.6925,-145.1375,594.53
122,1715374777460,0.68,-3.7,-2.13,224.06,-162.35,549.26
123,1715374777470,0.68,-3.7,-2.13,224.06,-162.35,549.26
124,1715374777480,0.68,-3.7,-2.13,224.06,-162.35,549.26
125,1715374777490,0.88,-3.9400000000000004,-1.6385714285714283,226.22,-98.3157142857143,572.6942857142857
126,1715374777500,1.03,-4.12,-1.27,227.84,-50.29,590.27
127,1715374777510,1.03,-4.12,-1.27,227.84,-50.29,590.27
128,1715374777520,1.03,-4.12,-1.27,227.84,-50.29,590.27
129,1715374777530,0.9157142857142857,-3.741428571428571,-0.6771428571428572,218.7757142857143,66.85285714285713,586.6985714285713
130,1715374777540,0.87,-3.59,-0.44,215.15,113.71,585.2699999999999
131,1715374777550,0.87,-3.59,-0.44,215.15,113.71,585.27
132,1715374777560,0.87,-3.59,-0.44,215.15,113.71,585.27
133,1715374777570,0.3842857142857143,-3.172857142857143,-0.24571428571428572,177.09857142857143,88.35571428571428,520.4300000000001
134,1715374777580,0.02,-2.86,-0.1,148.56,69.34,471.8
135,1715374777590,0.02,-2.86,-0.1,148.56,69.34,471.8
136,1715374777600,0.02,-2.86,-0.1,148.56,69.34,471.8
137,1715374777610,-0.25125,-2.72875,0.03125,63.69375,-32.457499999999996,420.48125
138,1715374777620,-0.29,-2.71,0.05,51.57,-47.0,413.15
139,1715374777630,-0.29,-2.71,0.05,51.57,-47.0,413.15
140,1715374777640,-0.29,-2.71,0.05,51.57,-47.0,413.15
141,1715374777650,0.115,-2.5225,-0.0175,47.5875,-1.7674999999999996,432.55999999999995
142,1715374777660,0.25,-2.46,-0.04,46.26,13.31,439.03
143,1715374777670,0.25,-2.46,-0.04,46.26,13.31,439.03
144,1715374777680,0.25,-2.46,-0.04,46.26,13.31,439.03000000000003
145,1715374777690,2.07,-2.87,-0.38,-17.52,-27.34,361.27
146,1715374777700,2.07,-2.87,-0.38,-17.52,-27.34,361.27
147,1715374777710,2.07,-2.87,-0.38,-17.52,-27.34,361.27
148,1715374777720,2.257142857142857,-2.915714285714286,-0.4585714285714286,-17.52,-27.34,361.27
149,1715374777730,3.38,-3.19,-0.93,-55.705,81.335,354.375
150,1715374777740,3.38,-3.19,-0.93,-61.16,96.86,353.39
151,1715374777750,3.38,-3.19,-0.93,-61.160000000000004,96.86,353.39
152,1715374777760,4.29,-3.475,-1.1125,-47.4725,67.595,321.56
153,1715374777770,7.02,-4.33,-1.66,-6.41,-20.2,226.07
154,1715374777780,7.0200000000000005,-4.33,-1.66,-6.410000000000001,-20.2,226.07
155,1715374777790,7.02,-4.33,-1.66,-6.41,-20.2,226.07
156,1715374777800,5.395,-4.745,-1.29,-12.817499999999999,18.71,113.08
157,1715374777810,3.77,-5.16,-0.92,-32.04,135.44,-225.89
158,1715374777820,3.77,-5.160000000000001,-0.92,-32.04,135.44,-225.89000000000001
159,1715374777830,3.77,-5.16,-0.92,-32.04,135.44,-225.89
160,1715374777840,3.77,-5.16,-0.92,-32.04,135.44,-225.89
161,1715374777850,1.73,-4.791428571428573,-0.62,15.197142857142856,159.97142857142856,-254.92999999999998
162,1715374777860,1.39,-4.73,-0.57,23.07,164.06,-259.77
163,1715374777870,1.39,-4.73,-0.57,23.07,164.06,-259.77
164,1715374777880,1.22125,-4.24875,-0.3825,82.50125,145.90375,-319.0075
165,1715374777890,1.12,-3.96,-0.27,118.16,135.01,-354.55
166,1715374777900,1.12,-3.96,-0.27,118.16,135.01,-354.55
167,1715374777910,1.12,-3.96,-0.27,118.16,135.01,-354.55
168,1715374777920,0.455,-3.07625,-0.19125,178.50875,125.50750000000001,-376.985
169,1715374777930,0.36,-2.95,-0.18,187.13,124.15,-380.19
170,1715374777940,0.36,-2.95,-0.18,187.12999999999997,124.15,-380.19
171,1715374777950,0.36,-2.95,-0.18,187.13,124.15,-380.19
172,1715374777960,-0.025,-2.78375,-0.38125,245.02875,68.7625,-422.05875000000003
173,1715374777970,-0.08,-2.7600000000000002,-0.41,253.3,60.85,-428.04
174,1715374777980,-0.08,-2.76,-0.41,253.3,60.85,-428.04
175,1715374777990,-0.08,-2.76,-0.41,253.3,60.85,-428.04
176,1715374778000,-0.46,-2.7399999999999998,-0.63,193.85,-20.81,-506.29
177,1715374778010,-0.46,-2.74,-0.63,193.85,-20.81,-506.29
178,1715374778020,-0.46,-2.74,-0.63,193.85,-20.81,-506.29
179,1715374778030,-0.42,-2.7157142857142857,-0.5942857142857143,180.50857142857143,-31.527142857142856,-506.7871428571429
180,1715374778040,-0.18,-2.57,-0.38,100.46,-95.83,-509.77
181,1715374778050,-0.18,-2.57,-0.38,100.46,-95.83,-509.77
182,1715374778060,-0.18,-2.57,-0.38,100.46,-95.83,-509.77
183,1715374778070,-0.1025,-2.5575,-0.3775,100.46,-95.83,-509.77
184,1715374778080,0.13,-2.52,-0.37,58.9,-101.2,-540.65
185,1715374778090,0.13,-2.52,-0.37,58.9,-101.2,-540.65
186,1715374778100,0.13,-2.52,-0.37,58.9,-101.2,-540.65
187,1715374778110,0.1675,-2.42625,-0.4325,41.185,-56.545,-501.55625
188,1715374778120,0.19,-2.37,-0.47000000000000003,11.66,17.88,-436.4
189,1715374778130,0.19,-2.37,-0.47000000000000003,11.66,17.88,-436.4
190,1715374778140,0.19,-2.37,-0.47,11.66,17.88,-436.4
191,1715374778150,0.11142857142857143,-2.2485714285714287,-0.4271428571428571,7.231428571428572,70.16,-392.03428571428566
192,1715374778160,0.08,-2.2,-0.41,3.91,109.37,-358.76
193,1715374778170,0.08,-2.2,-0.41,3.91,109.37,-358.76
194,1715374778180,0.08,-2.2,-0.41,3.91,109.37,-358.76
195,1715374778190,-0.13999999999999999,-1.9700000000000002,-0.505,-0.9449999999999998,95.78999999999999,-354.43
196,1715374778200,-0.36,-1.74,-0.6,-5.8,82.21,-350.1
197,1715374778210,-0.36,-1.74,-0.6,-5.8,82.21,-350.1
198,1715374778220,-0.36,-1.74,-0.6,-5.8,82.21,-350.1
199,1715374778230,-1.21,-0.85,-0.64,-77.76,4.15,-337.65
200,1715374778240,-1.2099999999999997,-0.85,-0.64,-77.76,4.15,-337.65
201,1715374778250,-1.21,-0.85,-0.64,-77.76,4.15,-337.65
202,1715374778260,-1.21,-0.85,-0.64,-77.76,4.15,-337.65
203,1715374778270,-4.33375,0.6025,-0.56125,-150.135,-98.80250000000001,-404.7075
204,1715374778280,-4.78,0.8099999999999999,-0.55,-174.26,-133.12,-427.06
205,1715374778290,-4.78,0.81,-0.55,-174.26,-133.12,-427.06
206,1715374778300,-4.9225,0.72,0.3837499999999999,-155.39999999999998,-98.315,-333.905
207,1715374778310,-5.160000000000001,0.57,1.94,-98.82000000000001,6.1,-54.44
208,1715374778320,-5.16,0.57,1.94,-98.82,6.1,-54.44
209,1715374778330,-5.16,0.57,1.94,-98.82,6.1,-54.44
210,1715374778340,-5.191428571428572,0.5614285714285714,1.8914285714285715,-70.40285714285713,-7.771428571428572,-26.329999999999995
211,1715374778350,-5.38,0.51,1.6,100.1,-91.0,142.33
212,1715374778360,-5.38,0.51,1.6,100.1,-91.0,142.33
213,1715374778370,-5.38,0.51,1.6,100.1,-91.0,142.33
214,1715374778380,-4.0112499999999995,-0.5525,0.7562500000000001,155.94375,-188.85,240.44875000000002
215,1715374778390,-3.19,-1.19,0.25,189.45,-247.56,299.32
216,1715374778400,-3.19,-1.19,0.25,189.45,-247.56,299.32
217,1715374778410,-3.19,-1.19,0.25,189.45,-247.56,299.32
218,1715374778420,-1.3525,-2.79125,-0.9574999999999999,261.06875,-212.25375,446.8275
219,1715374778430,-1.09,-3.02,-1.13,271.3,-207.21,467.9
220,1715374778440,-1.09,-3.02,-1.13,271.3,-207.21,467.9
221,1715374778450,-1.09,-3.02,-1.13,271.3,-207.21,467.9
222,1715374778460,0.66,-3.98,-1.44,214.97,-212.59,514.83
223,1715374778470,0.66,-3.98,-1.44,214.97,-212.59,514.83
224,1715374778480,0.66,-3.98,-1.44,214.97,-212.59,514.83
225,1715374778490,0.72,-3.9857142857142853,-1.4414285714285715,214.97,-212.59,514.83
226,1715374778500,1.08,-4.02,-1.45,257.08,-68.24,536.62
227,1715374778510,1.08,-4.02,-1.45,257.08,-68.24,536.62
228,1715374778520,1.08,-4.02,-1.45,257.08,-68.24,536.62
229,1715374778530,1.07,-3.9499999999999997,-1.3175,233.99249999999998,-47.989999999999995,535.78
230,1715374778540,1.04,-3.74,-0.92,164.73,12.76,533.26
231,1715374778550,1.04,-3.7399999999999998,-0.92,164.73,12.76,533.26
232,1715374778560,1.04,-3.74,-0.92,164.73,12.76,533.26
233,1715374778570,0.9450000000000001,-3.545,-0.49,147.13125,43.315,519.985
234,1715374778580,0.85,-3.35,-0.06,117.8,94.24,497.86
235,1715374778590,0.85,-3.35,-0.06,117.8,94.24,497.86
236,1715374778600,0.85,-3.35,-0.06,117.8,94.24,497.86
237,1715374778610,0.48125,-3.1374999999999997,0.015,97.96000000000001,133.21,509.15500000000003
238,1715374778620,0.26,-3.0100000000000002,0.06,78.12,172.18,520.45
239,1715374778630,0.26,-3.01,0.06,78.12,172.18,520.45
240,1715374778640,0.26,-3.01,0.06,78.12,172.18,520.45
241,1715374778650,-0.09000000000000001,-2.72125,0.2875,24.75,157.12,509.64250000000004
242,1715374778660,-0.14,-2.68,0.32,6.96,152.1,506.04
243,1715374778670,-0.14,-2.68,0.32,6.96,152.1,506.04
244,1715374778680,-0.14,-2.68,0.32,6.96,152.1,506.04
245,1715374778690,0.42,-3.02,-0.56,-45.00571428571429,-63.025714285714294,444.2057142857143
246,1715374778700,0.42,-3.02,-0.56,-83.98,-224.37,397.83
247,1715374778710,0.42,-3.02,-0.56,-83.98,-224.37,397.83
248,1715374778720,0.9242857142857144,-3.075714285714286,-0.6142857142857144,-83.98,-224.37000000000003,397.83
249,1715374778730,3.95,-3.41,-0.94,-36.082499999999996,-103.45375000000001,341.0075
250,1715374778740,3.95,-3.41,-0.94,-29.24,-86.18,332.89
251,1715374778750,3.95,-3.41,-0.9400000000000001,-29.24,-86.17999999999999,332.89
252,1715374778760,4.1762500000000005,-3.49125,-1.1075,-21.55625,-70.655,327.9375
253,1715374778770,5.76,-4.06,-2.28,32.23,38.02,293.27
254,1715374778780,5.76,-4.06,-2.28,32.23,38.02,293.27
255,1715374778790,5.76,-4.06,-2.28,32.23,38.02,293.27
256,1715374778800,5.62,-4.185,-2.23,32.23,38.02,293.27
257,1715374778810,5.2,-4.56,-2.08,-91.76428571428572,-7.751428571428572,-244.8957142857143
258,1715374778820,5.2,-4.56,-2.08,-112.43,-15.38,-334.59
259,1715374778830,5.2,-4.56,-2.08,-112.43,-15.38,-334.59
260,1715374778840,3.6357142857142857,-4.782857142857142,-1.4328571428571428,-69.00714285714285,117.65714285714286,-285.7285714285714
261,1715374778850,1.55,-5.08,-0.57,-11.11,295.04,-220.58
262,1715374778860,1.55,-5.08,-0.57,-11.11,295.04,-220.58
263,1715374778870,1.55,-5.08,-0.57,-11.11,295.04,-220.58
264,1715374778880,1.4375,-4.6987499999999995,-0.48874999999999996,54.4275,231.83375,-266.58625
265,1715374778890,1.37,-4.47,-0.44,93.75,193.91,-294.19
266,1715374778900,1.3699999999999999,-4.47,-0.44,93.75,193.91,-294.19
267,1715374778910,1.37,-4.47,-0.44,93.75,193.91,-294.19
268,1715374778920,0.9071428571428571,-3.5442857142857145,-0.35428571428571426,142.92857142857142,164.78857142857143,-351.2114285714286
269,1715374778930,0.83,-3.39,-0.34,162.6,153.14,-374.02
270,1715374778940,0.83,-3.39,-0.34,162.6,153.14,-374.02
271,1715374778950,0.6699999999999999,-3.2225,-0.3175,170.7325,132.76999999999998,-388.0425
272,1715374778960,0.19,-2.72,-0.25,195.12999999999997,71.66,-430.11
273,1715374778970,0.19,-2.72,-0.25,195.13,71.66,-430.11
274,1715374778980,0.19,-2.72,-0.25,195.13,71.66,-430.11
275,1715374778990,0.07857142857142858,-2.6885714285714286,-0.29857142857142854,189.28714285714287,45.86571428571428,-457.09000000000003
276,1715374779000,-0.2,-2.61,-0.42,174.68,-18.62,-524.54
277,1715374779010,-0.2,-2.61,-0.42,174.68,-18.62,-524.54
278,1715374779020,-0.2,-2.61,-0.42,174.68,-18.62,-524.54
279,1715374779030,-0.17857142857142858,-2.6485714285714286,-0.37714285714285717,159.6142857142857,-14.834285714285715,-522.1142857142856
280,1715374779040,-0.15,-2.7,-0.32,121.95,-5.37,-516.05
281,1715374779050,-0.15,-2.7,-0.32,121.95,-5.37,-516.05
282,1715374779060,-0.15,-2.7,-0.32,121.95,-5.37,-516.05
283,1715374779070,-0.10714285714285714,-2.5371428571428574,-0.3671428571428571,114.89571428571428,-5.274285714285715,-510.24285714285713
284,1715374779080,-0.05,-2.32,-0.43,72.57,-4.7,-475.4
285,1715374779090,-0.05,-2.32,-0.43,72.57,-4.7,-475.4
286,1715374779100,-0.05,-2.32,-0.43,72.57,-4.7,-475.4
287,1715374779110,0.19999999999999998,-2.32,-0.38,9.094999999999999,-37.54375,-488.67499999999995
288,1715374779120,0.35,-2.32,-0.35,-28.99,-57.25,-496.64
289,1715374779130,0.35,-2.32,-0.35,-28.99,-57.25,-496.64
290,1715374779140,0.35,-2.32,-0.35,-28.99,-57.25,-496.64
291,1715374779150,0.3675,-2.3425,-0.3775,-27.9375,-32.515,-476.34749999999997
292,1715374779160,0.42,-2.41,-0.46,-24.78,41.69,-415.47
293,1715374779170,0.42,-2.41,-0.46,-24.78,41.69,-415.47
294,1715374779180,0.42,-2.41,-0.46,-24.78,41.69,-415.47
295,1715374779190,0.09,-2.1,-0.6900000000000001,-23.99,115.72,-344.79
296,1715374779200,0.09,-2.1,-0.69,-23.99,115.72,-344.79
297,1715374779210,0.09,-2.1,-0.69,-23.99,115.72,-344.79
298,1715374779220,0.09,-2.1,-0.6900000000000001,-23.99,115.72,-344.79
299,1715374779230,-1.06,-1.32,-0.63,-55.60375,28.56125,-356.1125
300,1715374779240,-1.06,-1.32,-0.63,-60.12,16.11,-357.73
301,1715374779250,-1.06,-1.32,-0.63,-60.12,16.11,-357.73
302,1715374779260,-2.065,-0.4,-0.05499999999999999,-60.12,16.11,-357.73
303,1715374779270,-3.07,0.52,0.52,-108.22,-14.59,-230.16
304,1715374779280,-3.07,0.52,0.52,-108.22,-14.59,-230.16
305,1715374779290,-3.07,0.52,0.52,-108.22,-14.59,-230.16
306,1715374779300,-4.21,0.84,0.875,-65.98,-84.87,-180.35500000000002
307,1715374779310,-5.35,1.16,1.23,-23.74,-155.15,-130.55
308,1715374779320,-5.35,1.16,1.23,-23.74,-155.15,-130.55
309,1715374779330,-5.35,1.16,1.23,-23.74,-155.15,-130.55
310,1715374779340,-5.35,1.2875,0.9975,39.4775,-150.9875,38.49999999999999
311,1715374779350,-5.35,1.33,0.92,60.55,-149.6,94.85
312,1715374779360,-5.35,1.33,0.92,60.55,-149.6,94.85
313,1715374779370,-5.35,1.33,0.92,60.55,-149.6,94.85
314,1715374779380,-4.27,0.43000000000000005,0.5075000000000001,82.0625,-202.46875,200.70625
315,1715374779390,-3.91,0.13,0.37,94.97,-234.19,264.22
316,1715374779400,-3.91,0.13,0.37,94.97,-234.19,264.22
317,1715374779410,-3.91,0.13,0.37,94.97,-234.19,264.22
318,1715374779420,-2.305,-1.7000000000000002,-0.38,157.865,-347.995,339.52
319,1715374779430,-1.77,-2.31,-0.63,178.83,-385.93,364.62
320,1715374779440,-1.77,-2.31,-0.63,178.83,-385.93,364.62
321,1715374779450,-1.77,-2.31,-0.63,178.83,-385.93,364.62
322,1715374779460,-0.29,-3.76,-1.78,204.71,-377.90250000000003,367.475
323,1715374779470,-0.29,-3.76,-1.78,282.35,-353.82,376.04
324,1715374779480,-0.29,-3.76,-1.78,282.35,-353.82,376.04
325,1715374779490,-0.29,-3.7600000000000002,-1.78,282.35,-353.82,376.04
326,1715374779500,0.48,-3.82125,-1.9725000000000001,297.89,-260.25624999999997,437.2375
327,1715374779510,0.59,-3.83,-2.0,300.11,-246.89,445.98
328,1715374779520,0.59,-3.83,-2.0,300.11,-246.89,445.98
329,1715374779530,0.59,-3.8300000000000005,-2.0,300.11,-246.89000000000001,445.98
330,1715374779540,0.6725,-3.75875,-1.76,283.08125,-219.65375,430.3725
331,1715374779550,0.81,-3.64,-1.36,254.7,-174.26,404.36
332,1715374779560,0.8099999999999999,-3.64,-1.36,254.7,-174.26,404.36
333,1715374779570,0.8812500000000001,-3.50125,-1.135,250.3725,-122.5325,402.48125000000005
334,1715374779580,1.0,-3.27,-0.76,243.16,-36.32,399.35
335,1715374779590,1.0,-3.27,-0.76,243.16,-36.32,399.35
336,1715374779600,1.0,-3.27,-0.76,243.16,-36.32,399.35
337,1715374779610,1.0,-3.27,-0.76,243.16,-36.32,399.35
338,1715374779620,0.67,-2.93,-0.15,206.42,168.46,447.33
339,1715374779630,0.67,-2.93,-0.15,206.42,168.46,447.33
340,1715374779640,0.67,-2.93,-0.15,206.42,168.46,447.33
341,1715374779650,0.4757142857142857,-2.775714285714286,-0.05285714285714286,181.6942857142857,190.95142857142858,475.1242857142857
342,1715374779660,0.33,-2.66,0.02,163.15,207.82,495.97
343,1715374779670,0.33,-2.66,0.02,163.15,207.82,495.97
344,1715374779680,0.33,-2.66,0.02,163.15,207.82,495.96999999999997
345,1715374779690,0.48750000000000004,-2.3675,-0.28750000000000003,73.19500000000001,198.1225,522.8425
346,1715374779700,0.54,-2.27,-0.39,43.21,194.89,531.8
347,1715374779710,0.54,-2.27,-0.39,43.21,194.89,531.8
348,1715374779720,0.54,-2.27,-0.39,43.21,194.89,531.8
349,1715374779730,2.21,-2.9,-0.22,9.338571428571429,57.29714285714285,409.5142857142857
350,1715374779740,2.21,-2.9,-0.22,-4.21,2.26,360.6
351,1715374779750,2.21,-2.9,-0.22,-4.21,2.26,360.6
352,1715374779760,2.21,-2.9,-0.22,-4.21,2.26,360.6
353,1715374779770,3.2,-3.46,-0.17,65.37,508.42,563.96
354,1715374779780,3.2,-3.46,-0.17,65.37,508.42,563.96
355,1715374779790,3.2,-3.46,-0.17,65.37,508.42,563.96
356,1715374779800,3.1100000000000003,-4.1075,-0.060000000000000005,19.532500000000002,420.6825,538.9825000000001
357,1715374779810,2.84,-6.05,0.27,-117.98,157.47,464.05
358,1715374779820,2.84,-6.05,0.27,-117.98,157.47,464.05
359,1715374779830,2.84,-6.05,0.27,-117.98,157.47,464.05
360,1715374779840,2.6371428571428575,-6.038571428571428,0.31,-22.834285714285716,139.49,236.5814285714286
361,1715374779850,2.13,-6.01,0.41,215.03,94.54,-332.09
362,1715374779860,2.13,-6.01,0.41,215.03,94.54,-332.09
363,1715374779870,2.13,-6.01,0.41,215.03,94.54,-332.09
364,1715374779880,1.5299999999999998,-5.785,0.5,194.5525,87.3375,-338.6225
365,1715374779890,-0.27,-5.11,0.7700000000000001,133.12,65.73,-358.21999999999997
366,1715374779900,-0.27,-5.11,0.77,133.12,65.73,-358.22
367,1715374779910,-0.27,-5.11,0.77,133.12,65.73,-358.22
368,1715374779920,-0.10500000000000001,-4.36,0.38,288.985,123.5925,-164.26250000000002
369,1715374779930,-0.05,-4.11,0.25,340.94,142.88,-99.61
370,1715374779940,-0.05,-4.11,0.25,340.94,142.88,-99.61
371,1715374779950,-0.05,-4.11,0.25,340.94,142.88,-99.61
372,1715374779960,-0.43571428571428567,-3.107142857142857,0.11285714285714286,349.2685714285714,18.72285714285714,-233.62428571428572
373,1715374779970,-0.5,-2.94,0.09,352.6,-30.94,-287.23
374,1715374779980,-0.5,-2.94,0.09,352.6,-30.94,-287.23
375,1715374779990,-0.5,-2.94,0.09,352.6,-30.94,-287.23
376,1715374780000,-0.74,-2.68,-0.14,368.8075,-72.6475,-322.435
377,1715374780010,-0.74,-2.68,-0.14,374.21,-86.55,-334.17
378,1715374780020,-0.74,-2.68,-0.14,374.21,-86.55,-334.17
379,1715374780030,-0.74,-2.68,-0.14,374.21,-86.55,-334.17
380,1715374780040,-0.98,-2.54,-0.69,407.1625,-25.72,-302.39000000000004
381,1715374780050,-0.98,-2.54,-0.69,411.87,-17.03,-297.85
382,1715374780060,-0.9799999999999999,-2.54,-0.6900000000000001,411.87,-17.03,-297.85
383,1715374780070,-0.9775,-2.44,-0.655,394.9775,-20.54,-285.72
384,1715374780080,-0.97,-2.14,-0.55,344.3,-31.07,-249.33
385,1715374780090,-0.97,-2.14,-0.55,344.3,-31.07,-249.33
386,1715374780100,-0.97,-2.14,-0.55,344.3,-31.07,-249.33
387,1715374780110,-0.9175,-2.1625,-0.48250000000000004,331.23125,-63.845,-271.78125
388,1715374780120,-0.83,-2.2,-0.37,309.45,-118.47,-309.2
389,1715374780130,-0.83,-2.2,-0.37,309.45,-118.47,-309.2
390,1715374780140,-0.83,-2.2,-0.37,309.45,-118.47,-309.2
391,1715374780150,-0.72,-2.3150000000000004,-0.32,295.7775,-128.265,-323.055
392,1715374780160,-0.61,-2.43,-0.27,254.76,-157.65,-364.62
393,1715374780170,-0.61,-2.43,-0.27,254.76,-157.65,-364.62
394,1715374780180,-0.61,-2.43,-0.27,254.76,-157.65,-364.62
395,1715374780190,-0.3925,-2.46,-0.32999999999999996,236.5875,-147.81,-379.59
396,1715374780200,-0.32,-2.47,-0.35,230.53,-144.53,-384.58
397,1715374780210,-0.32,-2.47,-0.35,230.53,-144.53,-384.58
398,1715374780220,-0.32,-2.47,-0.35,230.53,-144.53,-384.58
399,1715374780230,-0.5128571428571428,-2.2271428571428573,-0.5785714285714285,222.20142857142858,-92.73714285714286,-372.4157142857143
400,1715374780240,-0.59,-2.13,-0.67,218.87,-72.02,-367.55
401,1715374780250,-0.59,-2.13,-0.67,218.87000000000003,-72.02,-367.55
402,1715374780260,-0.59,-2.13,-0.67,218.87,-72.02,-367.55
403,1715374780270,-1.13,-0.88,-1.1,263.915,19.21,-247.4375
404,1715374780280,-1.13,-0.88,-1.1,278.93,49.62,-207.4
405,1715374780290,-1.13,-0.88,-1.1,278.93,49.62,-207.4
406,1715374780300,-1.13,-0.88,-1.1,278.93,49.62,-207.4
407,1715374780310,-2.72,2.23,-2.53,242.8,49.8,-156.37
408,1715374780320,-2.72,2.23,-2.53,242.8,49.8,-156.37000000000003
409,1715374780330,-2.72,2.23,-2.53,242.8,49.8,-156.37
410,1715374780340,-2.9825,2.4875,-2.8049999999999997,226.20625,42.621249999999996,-134.6725
411,1715374780350,-3.77,3.2600000000000002,-3.63,110.05,-7.63,17.21
412,1715374780360,-3.77,3.26,-3.63,110.05,-7.63,17.21
413,1715374780370,-3.77,3.26,-3.63,110.05,-7.63,17.21
414,1715374780380,-3.46,3.07,-3.545,93.86,-16.22,41.86125
415,1715374780390,-3.15,2.88,-3.46,-19.47,-76.35,214.42
416,1715374780400,-3.15,2.88,-3.46,-19.47,-76.35,214.42
417,1715374780410,-3.15,2.88,-3.46,-19.47,-76.35,214.42
418,1715374780420,-2.49375,1.305,-2.69125,-89.205,-73.54499999999999,287.995
419,1715374780430,-2.1,0.36,-2.23,-158.94,-70.74,361.57
420,1715374780440,-2.1,0.36,-2.23,-158.94,-70.74,361.57
421,1715374780450,-2.1,0.36,-2.23,-158.94,-70.74,361.57
422,1715374780460,-1.54375,-1.48375,-1.305,-215.0525,-44.839999999999996,412.27
423,1715374780470,-1.2099999999999997,-2.59,-0.75,-248.72,-29.3,442.69
424,1715374780480,-1.21,-2.59,-0.75,-248.72,-29.3,442.69
425,1715374780490,-1.2099999999999997,-2.59,-0.75,-248.72,-29.3,442.69
426,1715374780500,-0.7385714285714285,-3.5685714285714285,-0.12142857142857143,-243.74857142857144,-19.75142857142857,455.84714285714284
427,1715374780510,-0.55,-3.96,0.13,-237.12,-7.02,473.39
428,1715374780520,-0.55,-3.96,0.13,-237.12,-7.02,473.39
429,1715374780530,-0.2,-4.0725,0.41125,-207.28875,36.28,470.75875
430,1715374780540,0.01,-4.14,0.58,-189.39000000000001,62.26,469.18
431,1715374780550,0.01,-4.14,0.58,-189.39,62.26,469.18
432,1715374780560,0.01,-4.14,0.58,-189.39,62.26,469.18
433,1715374780570,-0.17666666666666667,-3.766666666666667,0.7066666666666667,-157.00333333333333,125.81333333333333,417.26
434,1715374780580,-0.27,-3.58,0.77,-140.81,157.59,391.3
435,1715374780590,-0.27,-3.58,0.77,-140.81,157.59,391.3
436,1715374780600,-0.27,-3.5800000000000005,0.7700000000000001,-140.81,157.59,391.3
437,1715374780610,-0.585,-2.7312499999999997,0.6475,-140.43375,168.27375,350.2275
438,1715374780620,-0.63,-2.61,0.63,-140.38,169.8,344.36
439,1715374780630,-0.63,-2.61,0.63,-140.38,169.8,344.36
440,1715374780640,-0.63,-2.61,0.63,-140.38,169.8,344.36
441,1715374780650,-0.92,-2.23,0.46,-180.54,152.47,332.4
442,1715374780660,-0.92,-2.23,0.46,-180.54,152.47,332.4
443,1715374780670,-0.92,-2.23,0.46,-180.54,152.47,332.4
444,1715374780680,-0.9471428571428573,-2.2271428571428573,0.4328571428571429,-190.99428571428572,134.96142857142857,328.19714285714286
445,1715374780690,-1.11,-2.21,0.27,-253.72,29.91,302.98
446,1715374780700,-1.11,-2.21,0.27,-253.72,29.91,302.98
447,1715374780710,-1.11,-2.21,0.27,-253.72,29.91,302.98
448,1715374780720,-0.9357142857142858,-2.3785714285714286,0.2671428571428572,-253.72,29.91,302.98
449,1715374780730,-0.5,-2.8,0.26,-331.73,-106.99,292.72
450,1715374780740,-0.5,-2.8,0.26,-331.73,-106.99,292.71999999999997
451,1715374780750,-0.5,-2.8,0.26,-331.73,-106.99,292.72
452,1715374780760,0.745,-3.02,0.305,-312.79375000000005,-112.49125,300.0375
453,1715374780770,1.99,-3.2399999999999998,0.35,-180.24,-151.0,351.25999999999993
454,1715374780780,1.99,-3.24,0.35,-180.24,-151.0,351.26
455,1715374780790,1.99,-3.2399999999999998,0.35,-180.24,-151.0,351.25999999999993
456,1715374780800,3.035,-3.795,0.27,-203.065,-48.215,313.325
457,1715374780810,4.08,-4.35,0.19,-225.89,54.57,275.39
458,1715374780820,4.08,-4.35,0.19,-225.89,54.57,275.39
459,1715374780830,4.08,-4.35,0.19,-225.89000000000001,54.57,275.39
460,1715374780840,4.33125,-4.48375,0.215,-200.1025,45.3375,249.86999999999998
461,1715374780850,6.09,-5.42,0.39,-19.59,-19.29,71.23
462,1715374780860,6.089999999999999,-5.42,0.39,-19.59,-19.29,71.23
463,1715374780870,6.09,-5.42,0.39,-19.59,-19.29,71.23
464,1715374780880,3.29,-5.32,-0.66,67.8375,-2.2125,-247.1
465,1715374780890,3.29,-5.32,-0.66,96.98,3.48,-353.21
466,1715374780900,3.29,-5.32,-0.66,96.98,3.48,-353.21
467,1715374780910,3.29,-5.32,-0.66,96.98,3.48,-353.21
468,1715374780920,3.057142857142857,-5.208571428571429,-0.6171428571428572,98.9157142857143,17.858571428571427,-344.03714285714284
469,1715374780930,1.66,-4.54,-0.36,110.53,104.13,-289.0
470,1715374780940,1.66,-4.54,-0.36,110.53,104.13,-289.0
471,1715374780950,1.5742857142857143,-4.432857142857143,-0.3557142857142857,122.57142857142857,104.95714285714284,-297.25714285714287
472,1715374780960,1.06,-3.79,-0.33,194.82,109.92,-346.8
473,1715374780970,1.06,-3.79,-0.33,194.82,109.92,-346.8
474,1715374780980,1.06,-3.79,-0.33,194.82,109.92,-346.8
475,1715374780990,0.7225,-3.49,-0.26625,207.29625,104.26875,-361.86
476,1715374781000,0.16,-2.99,-0.16,228.09,94.85,-386.96
477,1715374781010,0.16,-2.9899999999999998,-0.16,228.09,94.85,-386.96
478,1715374781020,0.16,-2.99,-0.16,228.09,94.85,-386.96
479,1715374781030,-0.22249999999999998,-2.6825,-0.2575,234.45,41.2925,-417.59000000000003
480,1715374781040,-0.35,-2.5800000000000005,-0.29,236.57,23.44,-427.8
481,1715374781050,-0.35,-2.58,-0.29,236.57,23.44,-427.8
482,1715374781060,-0.35,-2.58,-0.29,236.57,23.44,-427.8
483,1715374781070,-0.45285714285714285,-2.562857142857143,-0.3842857142857143,189.53857142857143,-5.96,-455.7342857142857
484,1715374781080,-0.47,-2.56,-0.4,181.7,-10.86,-460.39
485,1715374781090,-0.47,-2.56,-0.4,181.7,-10.86,-460.39
486,1715374781100,-0.4414285714285714,-2.59,-0.3614285714285715,166.17142857142855,-19.701428571428572,-465.15
487,1715374781110,-0.27,-2.77,-0.13,73.0,-72.75,-493.71
488,1715374781120,-0.27,-2.77,-0.13,73.0,-72.75,-493.71
489,1715374781130,-0.27,-2.77,-0.13,73.0,-72.75,-493.71
490,1715374781140,-0.225,-2.7775,-0.16999999999999998,69.98625,-62.65625,-491.735
491,1715374781150,-0.09,-2.8,-0.29,48.89,8.0,-477.91
492,1715374781160,-0.09,-2.8,-0.29,48.89,8.0,-477.91
493,1715374781170,-0.09,-2.8,-0.29,48.89,8.0,-477.91
494,1715374781180,0.056249999999999994,-2.8375,-0.3275,29.96,9.8975,-475.55125000000004
495,1715374781190,0.3,-2.9,-0.39,-1.59,13.06,-471.62
496,1715374781200,0.3,-2.9,-0.39,-1.59,13.06,-471.62
497,1715374781210,0.3,-2.9,-0.39,-1.59,13.06,-471.62
498,1715374781220,0.09999999999999999,-2.762857142857143,-0.5071428571428572,29.678571428571427,55.94285714285714,-450.8142857142857
499,1715374781230,-0.4,-2.42,-0.8,107.85,163.15,-398.8
500,1715374781240,-0.4,-2.42,-0.8,107.85,163.15,-398.8
501,1715374781250,-0.4,-2.4199999999999995,-0.8,107.85,163.15,-398.8
502,1715374781260,-0.66,-1.865,-0.8200000000000001,95.305,162.11,-365.355
503,1715374781270,-0.92,-1.31,-0.84,82.76,161.07,-331.91
504,1715374781280,-0.92,-1.31,-0.84,82.76,161.07,-331.91
505,1715374781290,-0.92,-1.31,-0.84,82.76,161.07,-331.91
506,1715374781300,-1.8050000000000002,-0.3125,-0.5325,79.145,85.815,-332.135
507,1715374781310,-2.1,0.02,-0.43,77.94,60.73,-332.21
508,1715374781320,-2.1,0.02,-0.43,77.93999999999998,60.73,-332.21
509,1715374781330,-2.1,0.02,-0.43,77.94,60.73,-332.21
510,1715374781340,-4.508571428571429,1.4942857142857144,-0.9871428571428572,73.43999999999998,-112.69571428571429,-271.73857142857145
511,1715374781350,-4.91,1.74,-1.08,72.69,-141.6,-261.66
512,1715374781360,-4.91,1.74,-1.08,72.69,-141.6,-261.66
513,1715374781370,-4.9125,1.71875,-1.04125,65.80125,-128.3025,-227.91500000000002
514,1715374781380,-4.93,1.57,-0.7700000000000001,17.58,-35.22,8.3
515,1715374781390,-4.93,1.57,-0.77,17.58,-35.22,8.3
516,1715374781400,-4.93,1.57,-0.77,17.58,-35.22,8.3
517,1715374781410,-4.701428571428571,1.33,-0.6385714285714286,17.58,-35.22,8.3
518,1715374781420,-3.33,-0.11,0.15,9.77,-29.11,84.59
519,1715374781430,-3.33,-0.11,0.15,9.77,-29.11,84.59
520,1715374781440,-3.33,-0.11,0.15,9.77,-29.11,84.59
521,1715374781450,-3.1371428571428575,-0.74,-0.15857142857142856,30.861428571428572,-34.787142857142854,109.30142857142857
522,1715374781460,-2.88,-1.58,-0.57,157.41,-68.85,257.57
523,1715374781470,-2.88,-1.58,-0.57,157.41,-68.85,257.57
524,1715374781480,-2.88,-1.58,-0.57,157.41,-68.85,257.57
525,1715374781490,-1.755,-2.16,-0.78,143.49375,-63.607499999999995,402.13250000000005
526,1715374781500,-0.63,-2.74,-0.9899999999999999,120.3,-54.87,643.07
527,1715374781510,-0.63,-2.74,-0.99,120.3,-54.87,643.07
528,1715374781520,-0.63,-2.74,-0.99,120.3,-54.87,643.07
529,1715374781530,0.5128571428571428,-3.654285714285714,-0.9114285714285714,69.76285714285714,-73.73142857142857,663.1314285714286
530,1715374781540,0.97,-4.02,-0.88,2.38,-98.88,689.88
531,1715374781550,0.97,-4.02,-0.88,2.38,-98.88,689.88
532,1715374781560,0.97,-4.02,-0.88,2.38,-98.88,689.88
533,1715374781570,1.57,-4.68,-0.34,-16.974285714285713,-112.93142857142857,645.657142857143
534,1715374781580,1.57,-4.68,-0.34,-31.49,-123.47,612.49
535,1715374781590,1.57,-4.68,-0.34,-31.49,-123.47,612.49
536,1715374781600,1.57,-4.68,-0.34,-31.49,-123.47,612.49
537,1715374781610,1.41,-4.01,0.1,-26.67,9.22,541.02
538,1715374781620,1.41,-4.01,0.1,-26.67,9.22,541.02
539,1715374781630,1.41,-4.01,0.1,-26.669999999999998,9.22,541.02
540,1715374781640,1.2887499999999998,-3.915,0.15500000000000003,-31.637500000000003,23.15875,542.5225
541,1715374781650,0.44,-3.25,0.54,-66.41,120.73,553.04
542,1715374781660,0.44,-3.25,0.54,-66.41,120.73,553.04
543,1715374781670,0.44,-3.25,0.54,-66.41,120.73,553.04
544,1715374781680,0.3225,-3.195,0.5,-66.41,120.73,553.04
545,1715374781690,-0.03,-3.03,0.38,-86.36,110.84,549.13
546,1715374781700,-0.03,-3.03,0.38,-86.36,110.84,549.13
547,1715374781710,-0.03,-3.03,0.38,-86.36,110.84,549.13
548,1715374781720,0.06857142857142857,-3.0471428571428567,0.36,-86.36,110.84,549.13
549,1715374781730,0.66,-3.15,0.24,-131.2825,-11.458749999999998,508.8625
550,1715374781740,0.66,-3.15,0.24,-137.7,-28.93,503.11
551,1715374781750,0.66,-3.15,0.24,-137.7,-28.93,503.11
552,1715374781760,1.1775,-2.865,0.2025,-119.08874999999999,-16.20625,465.0025
553,1715374781770,2.04,-2.39,0.14,-88.07,5.0,401.49
554,1715374781780,2.04,-2.39,0.14,-88.07000000000001,5.0,401.49000000000007
555,1715374781790,2.04,-2.39,0.14,-88.07,5.0,401.49
556,1715374781800,3.045,-2.955,0.385,-106.28999999999999,48.0,364.47
557,1715374781810,4.05,-3.52,0.63,-124.51,91.0,327.45
558,1715374781820,4.05,-3.52,0.63,-124.51,91.0,327.45
559,1715374781830,4.05,-3.52,0.63,-124.51,91.0,327.45
560,1715374781840,7.1825,-4.15,0.3675,120.1925,270.01624999999996,405.96375
561,1715374781850,7.63,-4.24,0.33,155.15,295.59,417.18
562,1715374781860,7.63,-4.24,0.33,155.15,295.59,417.18
563,1715374781870,7.19625,-4.51125,0.54625,138.93,241.13124999999997,318.86
564,1715374781880,4.16,-6.41,2.06,25.39,-140.08,-369.38
565,1715374781890,4.16,-6.410000000000001,2.06,25.390000000000004,-140.08,-369.38
566,1715374781900,4.16,-6.41,2.06,25.39,-140.08,-369.38
567,1715374781910,3.78625,-6.205,1.7825,63.21625,-109.65375000000002,-363.125
568,1715374781920,1.17,-4.7700000000000005,-0.16,328.0,103.33,-319.34
569,1715374781930,1.17,-4.77,-0.16,328.0,103.33,-319.34
570,1715374781940,1.17,-4.7700000000000005,-0.16,328.0,103.33,-319.34
571,1715374781950,1.0725,-4.6775,0.039999999999999994,309.5375,94.495,-318.3325
572,1715374781960,0.78,-4.4,0.64,254.15,67.99,-315.31
573,1715374781970,0.78,-4.4,0.64,254.15,67.99,-315.31
574,1715374781980,0.78,-4.4,0.64,254.15,67.99,-315.31
575,1715374781990,0.5057142857142857,-3.8685714285714288,0.4557142857142857,254.15,67.99,-315.31
576,1715374782000,0.14,-3.16,0.21,302.98,4.58,-325.13
577,1715374782010,0.14,-3.16,0.21,302.98,4.58,-325.13
578,1715374782020,0.14,-3.16,0.21,302.98,4.58,-325.13
579,1715374782030,-0.003749999999999993,-2.8225000000000002,0.0225,307.30375000000004,-24.6025,-347.93
580,1715374782040,-0.09,-2.62,-0.09,314.51,-73.24,-385.93
581,1715374782050,-0.09,-2.62,-0.09,314.50999999999993,-73.24,-385.93
582,1715374782060,-0.09,-2.62,-0.09,314.51,-73.24,-385.93
583,1715374782070,-0.16142857142857142,-2.5342857142857147,-0.23285714285714285,295.68142857142857,-93.73285714285714,-444.8228571428572
584,1715374782080,-0.19,-2.5,-0.29,288.15,-101.93,-468.38
585,1715374782090,-0.19,-2.5,-0.29,288.15,-101.93,-468.38
586,1715374782100,-0.19,-2.5,-0.29,288.15,-101.92999999999999,-468.38
587,1715374782110,-0.1275,-2.5,-0.32125000000000004,241.56875,-87.43625,-490.12375000000003
588,1715374782120,-0.09,-2.5,-0.34,213.62000000000003,-78.74,-503.17
589,1715374782130,-0.09,-2.5,-0.34,213.62,-78.74,-503.17
590,1715374782140,-0.09,-2.5,-0.34,213.62,-78.74,-503.17
591,1715374782150,0.19874999999999998,-2.5175,-0.13875,167.42875,-83.16749999999999,-512.3575
592,1715374782160,0.24,-2.52,-0.11,160.83,-83.8,-513.67
593,1715374782170,0.24,-2.52,-0.11,160.83,-83.8,-513.67
594,1715374782180,0.24,-2.52,-0.11,160.83,-83.8,-513.67
595,1715374782190,0.24,-2.52,-0.11,160.83,-83.8,-513.67
596,1715374782200,0.45,-2.5124999999999997,-0.10250000000000001,150.04875,-52.3525,-490.2775
597,1715374782210,0.52,-2.51,-0.1,132.08,0.06,-451.29
598,1715374782220,0.41714285714285715,-2.415714285714286,-0.10428571428571429,130.04857142857142,8.997142857142856,-436.2842857142858
599,1715374782230,0.28,-2.29,-0.11,117.86,62.62,-346.25
600,1715374782240,0.28,-2.29,-0.11,117.86,62.62,-346.25
601,1715374782250,0.28,-2.29,-0.11,117.86,62.62,-346.25
602,1715374782260,0.10500000000000002,-2.075,-0.175,119.58500000000001,50.9325,-346.6325
603,1715374782270,-0.42,-1.43,-0.37,124.76,15.87,-347.78000000000003
604,1715374782280,-0.42,-1.43,-0.37,124.76,15.87,-347.78
605,1715374782290,-0.42,-1.43,-0.37,124.76,15.87,-347.78
606,1715374782300,-1.1442857142857144,-0.9714285714285714,-0.6742857142857144,81.98857142857143,-53.708571428571425,-367.31857142857143
607,1715374782310,-2.11,-0.36,-1.08,24.96,-146.48,-393.37
608,1715374782320,-2.11,-0.36,-1.08,24.96,-146.48,-393.37
609,1715374782330,-2.11,-0.36,-1.08,24.96,-146.48,-393.37
610,1715374782340,-3.6700000000000004,0.052500000000000005,-0.735,-23.483749999999997,-98.53,-323.22
611,1715374782350,-4.19,0.19,-0.62,-52.55,-69.76,-281.13
612,1715374782360,-4.19,0.19,-0.62,-52.55,-69.76,-281.13
613,1715374782370,-4.19,0.19,-0.62,-52.55,-69.76,-281.13
614,1715374782380,-5.518571428571429,0.5542857142857143,-0.8414285714285715,-20.24285714285714,49.04,-41.60857142857143
615,1715374782390,-6.05,0.7,-0.93,-7.32,96.56,54.2
616,1715374782400,-6.05,0.7,-0.93,-7.32,96.56,54.2
617,1715374782410,-6.05,0.7,-0.93,-7.32,96.56,54.2
618,1715374782420,-5.68,-0.24,-0.53,-21.085714285714285,-116.78285714285714,190.0142857142857
619,1715374782430,-5.68,-0.24,-0.53,-23.38,-152.34,212.65
620,1715374782440,-5.68,-0.24,-0.53,-23.38,-152.34,212.65
621,1715374782450,-5.68,-0.24,-0.53,-23.38,-152.34,212.65
622,1715374782460,-2.59,-2.75,-1.23,87.4,-265.2,502.01
623,1715374782470,-2.59,-2.75,-1.23,87.4,-265.2,502.01
624,1715374782480,-2.59,-2.75,-1.23,87.4,-265.2,502.00999999999993
625,1715374782490,-1.6224999999999998,-3.2625,-1.3900000000000001,80.45750000000001,-271.2875,530.865
626,1715374782500,1.28,-4.8,-1.87,59.63,-289.55,617.43
627,1715374782510,1.28,-4.8,-1.87,59.63,-289.55,617.43
628,1715374782520,1.28,-4.8,-1.8699999999999999,59.63,-289.55,617.43
629,1715374782530,1.685,-4.62375,-1.7537500000000001,70.35,-291.9225,603.0487499999999
630,1715374782540,2.36,-4.33,-1.56,145.39,-308.53,502.38
631,1715374782550,2.36,-4.33,-1.56,145.39,-308.53000000000003,502.38
632,1715374782560,2.36,-4.33,-1.56,145.39,-308.53,502.38
633,1715374782570,2.32,-4.055,-1.3050000000000002,160.005,-245.29999999999998,484.07
634,1715374782580,2.28,-3.78,-1.05,174.62000000000003,-182.07,465.75999999999993
635,1715374782590,2.28,-3.78,-1.05,174.62,-182.07,465.76
636,1715374782600,2.28,-3.78,-1.05,174.62000000000003,-182.07,465.75999999999993
637,1715374782610,1.8599999999999999,-3.2775,-0.6225,173.85750000000002,-19.182499999999997,539.5725
638,1715374782620,1.72,-3.11,-0.48,173.4,78.55,583.86
639,1715374782630,1.72,-3.11,-0.48,173.4,78.55,583.86
640,1715374782640,1.72,-3.11,-0.48,173.4,78.55,583.86
641,1715374782650,0.9237500000000001,-2.7075,-0.1475,103.86375000000001,193.805,597.265
642,1715374782660,0.81,-2.65,-0.1,93.93,210.27,599.18
643,1715374782670,0.8099999999999999,-2.65,-0.1,93.92999999999999,210.27,599.18
644,1715374782680,0.81,-2.65,-0.1,93.93,210.27,599.18
645,1715374782690,0.355,-2.58875,0.0925,-3.8512499999999994,104.68375,484.30999999999995
646,1715374782700,0.29,-2.58,0.12,-17.82,89.6,467.9
647,1715374782710,0.29,-2.5800000000000005,0.12,-17.82,89.6,467.9
648,1715374782720,0.27125,-2.61875,0.15125,-24.083750000000002,79.55999999999999,466.625
649,1715374782730,0.14,-2.89,0.37,-67.93,9.28,457.7
650,1715374782740,0.14,-2.89,0.37,-67.93,9.28,457.7
651,1715374782750,0.14,-2.89,0.37,-67.93,9.28,457.7
652,1715374782760,0.14,-2.89,0.37,-67.93,9.28,457.7
653,1715374782770,2.47,-2.43,0.06,-38.15,-49.68,416.32
654,1715374782780,2.47,-2.43,0.06,-38.15,-49.68,416.32
655,1715374782790,2.47,-2.43,0.06,-38.15,-49.68,416.32
656,1715374782800,2.8025,-2.5425,0.08499999999999999,-47.2575,-20.552500000000002,393.34
657,1715374782810,3.8,-2.88,0.16,-74.58,66.83,324.4
658,1715374782820,3.8,-2.88,0.16,-74.58,66.83,324.4
659,1715374782830,3.8,-2.88,0.16,-74.58,66.83,324.4
660,1715374782840,5.072857142857143,-3.0042857142857144,-0.3757142857142858,-20.731428571428573,54.85,304.2942857142857
661,1715374782850,6.77,-3.17,-1.09,113.89,24.9,254.03
662,1715374782860,6.7700000000000005,-3.1699999999999995,-1.09,113.89,24.9,254.03
663,1715374782870,6.77,-3.17,-1.09,113.89,24.9,254.03
664,1715374782880,5.0600000000000005,-4.25,-0.9400000000000001,27.98375,18.64375,-123.66374999999998
665,1715374782890,4.49,-4.61,-0.89,-23.56,14.89,-350.28000000000003
666,1715374782900,4.49,-4.61,-0.89,-23.56,14.89,-350.28
667,1715374782910,4.49,-4.61,-0.89,-23.56,14.89,-350.28
668,1715374782920,2.192857142857143,-5.098571428571428,-0.9328571428571427,33.097142857142856,208.67285714285714,-295.3971428571428
669,1715374782930,1.81,-5.18,-0.94,42.54,240.97,-286.25
670,1715374782940,1.81,-5.18,-0.94,42.54,240.97,-286.25
671,1715374782950,1.81,-5.18,-0.94,42.54,240.97,-286.25
672,1715374782960,1.27,-4.53,-0.3,142.27,240.66,-235.29
673,1715374782970,1.27,-4.53,-0.3,142.27,240.66,-235.29
674,1715374782980,1.27,-4.53,-0.3,142.27,240.66,-235.29
675,1715374782990,1.27,-4.53,-0.3,142.27,240.66,-235.29
676,1715374783000,0.56,-3.37,-0.22,222.29,113.04,-348.88
677,1715374783010,0.56,-3.37,-0.22,222.29,113.04,-348.88
678,1715374783020,0.56,-3.37,-0.22,222.29,113.04,-348.88
679,1715374783030,0.37250000000000005,-3.13375,-0.20125,222.29,113.04,-348.88
680,1715374783040,0.06,-2.7399999999999998,-0.17,237.19714285714284,71.71142857142857,-385.9371428571429
681,1715374783050,0.06,-2.74,-0.17,243.16,55.18,-400.76
682,1715374783060,0.06,-2.74,-0.17,243.16,55.18,-400.76
683,1715374783070,0.0,-2.685714285714286,-0.20142857142857146,245.63714285714286,51.73571428571428,-401.9371428571429
684,1715374783080,-0.36,-2.36,-0.39,260.5,31.07,-409.0
685,1715374783090,-0.36,-2.36,-0.39,260.5,31.07,-409.0
686,1715374783100,-0.36,-2.36,-0.39,260.5,31.07,-409.0
687,1715374783110,-0.31285714285714283,-2.295714285714286,-0.4114285714285714,227.67142857142858,21.18285714285714,-410.93285714285713
688,1715374783120,-0.25,-2.21,-0.44,183.9,8.0,-413.51
689,1715374783130,-0.25,-2.21,-0.44,183.9,8.0,-413.51
690,1715374783140,-0.25,-2.21,-0.44,183.9,8.0,-413.50999999999993
691,1715374783150,-0.15,-2.2287500000000002,-0.3775,157.715,21.55,-392.42499999999995
692,1715374783160,-0.09,-2.24,-0.34,131.53,35.1,-371.34
693,1715374783170,-0.09,-2.24,-0.34,131.53,35.1,-371.34
694,1715374783180,-0.09,-2.24,-0.34,131.53,35.1,-371.34
695,1715374783190,-0.0024999999999999996,-2.1875,-0.3575,135.38,50.316250000000004,-348.6425
696,1715374783200,0.01,-2.18,-0.36,135.93,52.49,-345.4
697,1715374783210,0.01,-2.18,-0.36,135.93,52.49,-345.4
698,1715374783220,0.025,-2.19,-0.37124999999999997,135.93,52.49,-345.4
699,1715374783230,0.13,-2.26,-0.45,144.84,74.04,-308.53000000000003
700,1715374783240,0.13,-2.26,-0.45,144.84,74.04,-308.53
701,1715374783250,0.13,-2.26,-0.45,144.84,74.04,-308.53
702,1715374783260,0.155,-2.2375,-0.4825,135.0125,65.4175,-322.78249999999997
703,1715374783270,0.23,-2.17,-0.58,105.53,39.55,-365.54
704,1715374783280,0.23,-2.17,-0.58,105.53,39.55,-365.54
705,1715374783290,0.23,-2.17,-0.58,105.53,39.55,-365.54
706,1715374783300,-0.11,-2.16,-0.79,117.19,144.1,-331.12
707,1715374783310,-0.11,-2.16,-0.79,117.19,144.1,-331.12
708,1715374783320,-0.11,-2.16,-0.79,117.18999999999998,144.1,-331.12
709,1715374783330,-0.6575,-1.54875,-0.9812500000000001,116.91624999999999,126.4075,-332.035
710,1715374783340,-1.57,-0.53,-1.3,116.46,96.92,-333.56
711,1715374783350,-1.57,-0.53,-1.3,116.46,96.92,-333.56
712,1715374783360,-1.57,-0.53,-1.3,116.46,96.92,-333.56
713,1715374783370,-1.57,-0.53,-1.3,116.46,96.92,-333.56
714,1715374783380,-4.30875,1.6837499999999999,-1.0987500000000001,18.18875,21.6175,-379.48875
715,1715374783390,-4.7,2.0,-1.07,4.15,10.86,-386.05
716,1715374783400,-4.7,2.0,-1.07,4.15,10.86,-386.05
717,1715374783410,-5.162857142857143,2.0114285714285716,-1.0642857142857143,6.627142857142857,-19.517142857142858,-283.3357142857143
718,1715374783420,-6.32,2.04,-1.05,12.82,-95.46,-26.55
719,1715374783430,-6.32,2.04,-1.05,12.820000000000002,-95.46,-26.55
720,1715374783440,-6.32,2.04,-1.05,12.82,-95.46,-26.55
721,1715374783450,-5.0075,1.4775,-1.365,-14.8325,-162.66,156.9675
722,1715374783460,-4.57,1.29,-1.47,-24.05,-185.06,218.14
723,1715374783470,-4.57,1.2900000000000003,-1.47,-24.05,-185.06,218.14000000000001
724,1715374783480,-4.57,1.29,-1.47,-24.05,-185.06,218.14
725,1715374783490,-3.08,-0.66,-1.34,-28.93,-249.055,291.655
726,1715374783500,-3.08,-0.66,-1.34,-33.81,-313.05,365.17
727,1715374783510,-3.08,-0.66,-1.34,-33.81,-313.05,365.17
728,1715374783520,-3.0800000000000005,-0.66,-1.34,-33.81,-313.05,365.17
729,1715374783530,-0.95375,-3.03125,-1.9,13.186249999999998,-338.6875,535.2700000000001
730,1715374783540,-0.65,-3.37,-1.98,19.9,-342.35,559.57
731,1715374783550,-0.65,-3.37,-1.98,19.9,-342.35,559.57
732,1715374783560,-0.31000000000000005,-3.6175,-2.0175,10.485,-324.5425,565.095
733,1715374783570,0.71,-4.36,-2.13,-17.76,-271.12,581.67
734,1715374783580,0.71,-4.36,-2.13,-17.76,-271.12,581.67
735,1715374783590,0.71,-4.36,-2.13,-17.76,-271.12,581.67
736,1715374783600,0.95,-4.35,-1.8399999999999999,-12.0075,-263.6275,558.415
737,1715374783610,1.19,-4.34,-1.55,5.25,-241.15,488.65
738,1715374783620,1.19,-4.34,-1.55,5.25,-241.15,488.65
739,1715374783630,1.19,-4.34,-1.55,5.25,-241.15,488.65
740,1715374783640,1.1385714285714286,-4.014285714285714,-1.1042857142857143,28.650000000000002,-175.89285714285714,464.34142857142854
741,1715374783650,1.1,-3.77,-0.77,46.2,-126.95,446.11
742,1715374783660,1.1,-3.77,-0.77,46.2,-126.95,446.11
743,1715374783670,1.1,-3.77,-0.77,46.2,-126.95,446.11
744,1715374783680,0.8342857142857143,-3.4828571428571427,-0.5685714285714286,49.81285714285714,-83.42428571428572,442.9685714285714
745,1715374783690,0.48,-3.1,-0.3,54.63,-25.39,438.78
746,1715374783700,0.48,-3.1,-0.3,54.63,-25.39,438.78
747,1715374783710,0.48,-3.1,-0.3,54.63,-25.39,438.78
748,1715374783720,0.17285714285714285,-2.7785714285714285,-0.09999999999999999,26.722857142857144,-15.84,456.22285714285715
749,1715374783730,0.05,-2.65,-0.02,15.56,-12.02,463.2
750,1715374783740,0.05,-2.65,-0.02,15.56,-12.02,463.2
751,1715374783750,0.05,-2.65,-0.02,15.56,-12.02,463.2
752,1715374783760,0.04125,-2.79,-0.028749999999999998,13.46625,-57.91375,458.0125
753,1715374783770,0.04,-2.81,-0.03,12.21,-85.45,454.9
754,1715374783780,0.04,-2.81,-0.03,12.209999999999999,-85.45,454.9
755,1715374783790,0.04,-2.81,-0.03,12.21,-85.45,454.9
756,1715374783800,1.23,-2.46,-0.44,27.28,-83.8,461.3
757,1715374783810,1.23,-2.46,-0.44,27.28,-83.8,461.3
758,1715374783820,1.23,-2.46,-0.44,27.28,-83.8,461.3
759,1715374783830,1.4414285714285715,-2.4957142857142856,-0.47285714285714286,27.28,-83.8,461.3
760,1715374783840,2.71,-2.71,-0.67,0.31,43.95,368.9
761,1715374783850,2.71,-2.71,-0.67,0.31,43.95,368.9
762,1715374783860,2.71,-2.71,-0.67,0.31,43.95,368.9
763,1715374783870,3.17875,-3.46,-0.8875,2.3012499999999996,59.7575,366.93874999999997
764,1715374783880,3.96,-4.71,-1.25,16.24,170.41,353.21
765,1715374783890,3.96,-4.71,-1.25,16.24,170.41,353.21
766,1715374783900,3.96,-4.71,-1.25,16.24,170.41,353.21
767,1715374783910,3.535,-4.595000000000001,-1.275,23.915,151.305,197.14249999999998
768,1715374783920,3.11,-4.48,-1.3,46.94,93.99,-271.06
769,1715374783930,3.11,-4.48,-1.3,46.94,93.99,-271.06
770,1715374783940,3.11,-4.48,-1.3,46.94,93.99,-271.06
771,1715374783950,2.235,-5.28,-0.47000000000000003,41.474999999999994,115.05000000000001,-363.895
772,1715374783960,1.36,-6.08,0.36,36.01,136.11,-456.73
773,1715374783970,1.36,-6.08,0.36,36.01,136.11,-456.73
774,1715374783980,1.36,-6.08,0.36,36.01,136.11,-456.73
775,1715374783990,0.5885714285714286,-5.188571428571429,0.2057142857142857,127.00428571428571,222.53285714285715,-302.29
776,1715374784000,0.01,-4.52,0.09,195.25,287.35,-186.46
777,1715374784010,0.01,-4.52,0.09,195.25,287.35,-186.46
778,1715374784020,0.01,-4.52,0.09,195.25,287.35,-186.46
779,1715374784030,0.3,-3.82,0.42,240.6,61.46,-331.97
780,1715374784040,0.3,-3.82,0.42,240.6,61.46,-331.97
781,1715374784050,0.3,-3.82,0.42,240.6,61.46,-331.96999999999997
782,1715374784060,0.3,-3.82,0.42,240.6,61.46,-331.97
783,1715374784070,-0.1,-2.95,0.13,317.14,49.99,-357.12
784,1715374784080,-0.1,-2.95,0.13,317.14,49.99,-357.12
785,1715374784090,-0.1,-2.95,0.13,317.14,49.99,-357.12
786,1715374784100,-0.27999999999999997,-2.80375,-0.04999999999999999,326.84499999999997,19.892500000000002,-385.68375000000003
787,1715374784110,-0.58,-2.56,-0.35,343.02,-30.27,-433.29
788,1715374784120,-0.58,-2.56,-0.35,343.02,-30.27,-433.29
789,1715374784130,-0.58,-2.56,-0.35,343.02,-30.27,-433.29
790,1715374784140,-0.62,-2.5542857142857143,-0.41857142857142854,305.59714285714284,-54.37285714285714,-457.0385714285714
791,1715374784150,-0.65,-2.55,-0.47,277.53,-72.45,-474.85
792,1715374784160,-0.65,-2.55,-0.47000000000000003,277.53,-72.45,-474.85
793,1715374784170,-0.65,-2.55,-0.47,277.53,-72.45,-474.85
794,1715374784180,-0.48125,-2.65,-0.345,249.29874999999998,-55.05625,-449.94375
795,1715374784190,-0.38,-2.71,-0.27,232.35999999999999,-44.62,-435.0
796,1715374784200,-0.38,-2.71,-0.27,232.36,-44.62,-435.0
797,1715374784210,-0.38,-2.71,-0.27,232.36,-44.62,-435.0
798,1715374784220,-0.1442857142857143,-2.71,-0.1842857142857143,215.31714285714287,-11.262857142857142,-401.42857142857144
799,1715374784230,-0.05,-2.71,-0.15,208.5,2.08,-388.0
800,1715374784240,-0.05,-2.71,-0.15,208.5,2.08,-388.0
801,1715374784250,-0.05,-2.71,-0.15,208.5,2.08,-388.0
802,1715374784260,-0.10714285714285714,-2.5171428571428573,-0.4357142857142858,187.65714285714284,19.25142857142857,-437.1357142857143
803,1715374784270,-0.13,-2.44,-0.55,179.32,26.12,-456.79
804,1715374784280,-0.13,-2.44,-0.55,179.32,26.12,-456.79
805,1715374784290,-0.14875,-2.395,-0.56125,169.01999999999998,20.55125,-461.5575
806,1715374784300,-0.28,-2.08,-0.64,96.92,-18.43,-494.93
807,1715374784310,-0.28,-2.08,-0.64,96.92,-18.43,-494.93
808,1715374784320,-0.28,-2.08,-0.64,96.92,-18.43,-494.93
809,1715374784330,-0.5675,-1.705,-0.7725,96.92,-18.43,-494.93
810,1715374784340,-1.43,-0.58,-1.17,71.29,82.82,-363.59
811,1715374784350,-1.43,-0.58,-1.17,71.29,82.82000000000001,-363.59
812,1715374784360,-1.43,-0.58,-1.17,71.29,82.82,-363.59
813,1715374784370,-2.31,0.2771428571428572,-1.1128571428571428,38.644285714285715,31.345714285714283,-328.60714285714283
814,1715374784380,-2.97,0.92,-1.07,14.16,-7.26,-302.37
815,1715374784390,-2.97,0.92,-1.07,14.16,-7.26,-302.37
816,1715374784400,-2.97,0.92,-1.07,14.16,-7.26,-302.37
817,1715374784410,-3.9074999999999998,1.08875,-1.295,75.075,57.495000000000005,-129.67000000000002
818,1715374784420,-4.47,1.19,-1.43,135.99,122.25,43.03
819,1715374784430,-4.47,1.19,-1.43,135.99,122.25,43.03000000000001
820,1715374784440,-4.47,1.19,-1.43,135.99,122.25,43.03
821,1715374784450,-4.1175,1.28,-2.06,129.04625,26.76875,129.2425
822,1715374784460,-4.0,1.31,-2.27,124.88,-30.52,180.97
823,1715374784470,-4.0,1.31,-2.27,124.88,-30.52,180.97
824,1715374784480,-4.0,1.31,-2.27,124.88,-30.52,180.97
825,1715374784490,-3.08,0.48,-2.17,83.74,-90.94,318.6
826,1715374784500,-3.0800000000000005,0.48,-2.17,83.74,-90.93999999999998,318.6
827,1715374784510,-3.08,0.48,-2.17,83.74,-90.94,318.6
828,1715374784520,-2.815,0.08499999999999996,-2.0475,53.2675,-84.47,366.4825
829,1715374784530,-2.02,-1.1,-1.68,-38.15,-65.06,510.13
830,1715374784540,-2.02,-1.1,-1.68,-38.15,-65.06,510.13
831,1715374784550,-2.02,-1.1,-1.68,-38.15,-65.06,510.13
832,1715374784560,-1.57,-2.03375,-1.3087499999999999,-80.095,-74.445,536.925
833,1715374784570,-0.82,-3.59,-0.6900000000000001,-205.93,-102.6,617.3100000000001
834,1715374784580,-0.82,-3.59,-0.69,-205.93,-102.6,617.31
835,1715374784590,-0.82,-3.59,-0.69,-205.93,-102.6,617.31
836,1715374784600,-0.82,-3.59,-0.6900000000000001,-205.93,-102.6,617.3100000000001
837,1715374784610,0.155,-4.685,-0.04499999999999998,-205.93,-102.6,617.31
838,1715374784620,0.48,-5.05,0.17,-198.565,-63.1875,617.8575
839,1715374784630,0.48,-5.05,0.17,-196.10999999999999,-50.05,618.04
840,1715374784640,0.48,-5.05,0.17,-196.11,-50.05,618.04
841,1715374784650,0.48,-5.05,0.17,-196.11,-50.05,618.04
842,1715374784660,0.48,-5.05,0.17,-196.10999999999999,-50.05,618.04
843,1715374784670,0.5185714285714286,-4.952857142857143,0.2285714285714286,-187.17142857142858,-51.93285714285714,596.3028571428571
844,1715374784680,0.8025,-3.6525,0.9825,-119.11375,-36.0775,466.605
845,1715374784690,0.81,-3.55,1.04,-18.13,153.99,471.68
846,1715374784700,0.81,-3.55,1.04,-18.13,153.99,471.68
847,1715374784710,0.8099999999999999,-3.55,1.04,-18.13,153.99,471.68
848,1715374784720,-0.08,-2.38,0.61,-18.0775,219.25625000000002,429.48749999999995
849,1715374784730,-0.08,-2.38,0.61,-18.07,228.58,423.46
850,1715374784740,-0.08,-2.38,0.61,-18.07,228.58,423.46
851,1715374784750,-0.08,-2.38,0.61,-18.07,228.58,423.46
852,1715374784760,-0.08,-2.38,0.61,-18.07,228.58,423.46
853,1715374784770,-0.08,-2.38,0.61,-18.07,228.58,423.46
854,1715374784780,-0.58,-2.02,0.48999999999999994,-117.25857142857141,154.18,375.9571428571429
855,1715374784790,-0.65875,-2.12875,0.5125,-150.68,115.27875,375.18
856,1715374784800,-0.79,-2.31,0.55,-178.83,71.11,387.08
857,1715374784810,-0.79,-2.31,0.55,-178.83,71.11,387.08
858,1715374784820,-0.79,-2.31,0.55,-178.83,71.11,387.08
859,1715374784830,-0.11499999999999999,-2.4850000000000003,0.615,-164.765,-14.25,403.16499999999996
860,1715374784840,0.56,-2.66,0.68,-150.7,-99.61,419.25
861,1715374784850,0.56,-2.66,0.68,-150.7,-99.61,419.25
862,1715374784860,0.56,-2.66,0.68,-150.7,-99.61,419.25
863,1715374784870,1.8685714285714285,-2.9971428571428573,0.4114285714285714,-138.71714285714285,-95.89428571428572,342.0857142857143
864,1715374784880,2.85,-3.25,0.21,-122.74,-90.94,239.2
865,1715374784890,2.85,-3.25,0.21,-122.74,-90.94,239.2
866,1715374784900,2.85,-3.25,0.21,-122.74,-90.93999999999998,239.2
867,1715374784910,6.7125,-5.68,-0.7650000000000001,-24.625,-262.48,264.255
868,1715374784920,8.0,-6.49,-1.09,73.49,-434.02,289.31
869,1715374784930,8.0,-6.49,-1.09,73.49,-434.02,289.31
870,1715374784940,8.0,-6.49,-1.09,73.49,-434.02,289.31
871,1715374784950,5.235714285714286,-5.425714285714286,-0.17571428571428574,-12.267142857142858,-143.75571428571428,-169.19714285714286
872,1715374784960,4.13,-5.0,0.19,-46.57,-27.65,-352.6
873,1715374784970,4.13,-5.0,0.19,-46.57,-27.65,-352.6
874,1715374784980,4.13,-5.0,0.19,-46.57,-27.65,-352.6
875,1715374784990,0.89,-4.67,0.23,62.40714285714285,301.93857142857144,-235.67714285714285
876,1715374785000,0.89,-4.67,0.23,80.57,356.87,-216.19
877,1715374785010,0.89,-4.67,0.23,80.57,356.87,-216.19
878,1715374785020,0.84375,-4.6375,0.30000000000000004,80.57,356.87,-216.19
879,1715374785030,0.52,-4.41,0.79,118.79857142857144,202.71285714285713,-298.67571428571426
880,1715374785040,0.52,-4.41,0.79,134.09,141.05,-331.67
881,1715374785050,0.52,-4.41,0.79,134.09,141.05,-331.67
882,1715374785060,0.4614285714285714,-4.214285714285714,0.7542857142857143,152.03428571428572,125.06714285714285,-332.8285714285715
883,1715374785070,0.11,-3.04,0.54,259.7,29.17,-339.78
884,1715374785080,0.11,-3.04,0.54,259.7,29.17,-339.78
885,1715374785090,0.11,-3.04,0.54,259.7,29.169999999999998,-339.78000000000003
886,1715374785100,0.00875,-2.82625,0.42375,263.46999999999997,8.465000000000002,-345.4275
887,1715374785110,-0.16,-2.47,0.23,274.78,-53.65,-362.37
888,1715374785120,-0.16,-2.47,0.23,274.78,-53.65,-362.37
889,1715374785130,-0.16,-2.47,0.23,274.78,-53.65,-362.37
890,1715374785140,-0.285,-2.43,0.1,273.865,-78.69,-387.0575
891,1715374785150,-0.41,-2.39,-0.03,271.12,-153.81,-461.12
892,1715374785160,-0.41,-2.39,-0.03,271.12,-153.81,-461.12
893,1715374785170,-0.41,-2.39,-0.03,271.12,-153.81,-461.12
894,1715374785180,-0.2742857142857143,-2.5114285714285716,-0.037142857142857144,221.54857142857142,-126.78142857142858,-462.86285714285714
895,1715374785190,-0.22,-2.56,-0.04,201.72,-115.97,-463.56
896,1715374785200,-0.22,-2.56,-0.04,201.72,-115.97,-463.56
897,1715374785210,-0.22,-2.56,-0.04,201.72,-115.97,-463.56
898,1715374785220,-0.3325,-2.5475,-0.015,213.27625,-63.25125,-423.66
899,1715374785230,-0.4,-2.54,0.0,220.21,-31.62,-399.71999999999997
900,1715374785240,-0.4,-2.54,0.0,220.21,-31.62,-399.72
901,1715374785250,-0.4,-2.54,0.0,220.21,-31.62,-399.72
902,1715374785260,-0.32,-2.22,-0.14,141.91,-110.72,-429.57
903,1715374785270,-0.32,-2.22,-0.14,141.91,-110.72,-429.57
904,1715374785280,-0.32,-2.22,-0.14,141.91,-110.72,-429.57
905,1715374785290,-0.24428571428571427,-2.2600000000000002,-0.1042857142857143,132.2657142857143,-109.88285714285713,-431.9585714285714
906,1715374785300,0.21,-2.5,0.11,74.4,-104.86,-446.29
907,1715374785310,0.21,-2.5,0.11,74.4,-104.86,-446.29
908,1715374785320,0.21,-2.5,0.11,74.4,-104.86,-446.29
909,1715374785330,0.007499999999999993,-2.33125,-0.051250000000000004,79.71000000000001,-65.56,-432.37375000000003
910,1715374785340,-0.33,-2.05,-0.32,88.56,-0.06,-409.18
911,1715374785350,-0.33,-2.05,-0.32,88.56,-0.06,-409.18
912,1715374785360,-0.33,-2.05,-0.32,88.56000000000002,-0.06,-409.18
913,1715374785370,-0.865,-1.46,-0.49,49.03125,-54.8325,-419.845
914,1715374785380,-1.4,-0.87,-0.66,-16.85,-146.12,-437.62
915,1715374785390,-1.4,-0.87,-0.66,-16.85,-146.12,-437.62
916,1715374785400,-1.4,-0.87,-0.66,-16.85,-146.12,-437.62
917,1715374785410,-3.03125,-0.12625,-0.41625,4.2125,-53.92,-384.82624999999996
918,1715374785420,-4.01,0.32,-0.27,16.85,1.4,-353.15
919,1715374785430,-4.01,0.32,-0.27,16.85,1.4,-353.15
920,1715374785440,-4.01,0.32,-0.27,16.85,1.4,-353.15
921,1715374785450,-5.83,1.79,-1.08375,60.95875,23.7825,5.363750000000001
922,1715374785460,-6.09,2.0,-1.2,67.26,26.98,56.58
923,1715374785470,-6.089999999999999,2.0,-1.2,67.26,26.98,56.58
924,1715374785480,-6.09,2.0,-1.2,67.26,26.98,56.58
925,1715374785490,-5.12,1.12,-1.22,-1.3125,-95.885,216.52499999999998
926,1715374785500,-5.12,1.12,-1.22,-24.169999999999998,-136.84,269.84
927,1715374785510,-5.12,1.12,-1.22,-24.17,-136.84,269.84
928,1715374785520,-4.625,0.6300000000000001,-1.17,-24.17,-136.84,269.84
929,1715374785530,-3.14,-0.84,-1.02,-12.88,-228.7,437.56
930,1715374785540,-3.14,-0.84,-1.02,-12.88,-228.7,437.56
931,1715374785550,-3.14,-0.84,-1.02,-12.88,-228.7,437.56
932,1715374785560,-2.86375,-1.18125,-1.03,-8.096250000000001,-236.15375,452.11
933,1715374785570,-0.93,-3.57,-1.1,25.39,-288.33,553.96
934,1715374785580,-0.93,-3.57,-1.1,25.39,-288.33,553.96
935,1715374785590,-0.93,-3.57,-1.1,25.390000000000004,-288.33,553.96
936,1715374785600,-0.37875000000000003,-4.02,-1.04,30.5875,-286.0425,540.5462500000001
937,1715374785610,0.54,-4.77,-0.94,39.25,-282.23,518.19
938,1715374785620,0.54,-4.77,-0.94,39.25,-282.23,518.19
939,1715374785630,0.54,-4.7700000000000005,-0.9400000000000001,39.25,-282.23,518.19
940,1715374785640,1.0274999999999999,-4.4925,-0.79,85.33,-215.275,510.31500000000005
941,1715374785650,1.19,-4.4,-0.74,131.41,-148.32,502.44
942,1715374785660,1.19,-4.4,-0.74,131.41,-148.32,502.44
943,1715374785670,1.19,-4.4,-0.74,131.41,-148.32,502.44
944,1715374785680,1.0175,-3.95,-0.485,142.4425,-7.095000000000001,522.675
945,1715374785690,0.96,-3.8,-0.4,146.12,39.98,529.42
946,1715374785700,0.96,-3.8,-0.4,146.12,39.98,529.42
947,1715374785710,0.96,-3.8,-0.4,146.12,39.98,529.42
948,1715374785720,0.435,-3.35375,0.09,129.12,60.425,521.8499999999999
949,1715374785730,0.36,-3.29,0.16,112.12,80.87,514.28
950,1715374785740,0.36,-3.29,0.16,112.12,80.87,514.28
951,1715374785750,0.36,-3.29,0.16,112.12,80.87,514.28
952,1715374785760,0.32,-3.18,0.43,124.94,231.02,594.3
953,1715374785770,0.32,-3.18,0.43,124.94,231.02,594.3
954,1715374785780,0.32,-3.18,0.43,124.94,231.02,594.3
955,1715374785790,0.3085714285714286,-3.0900000000000003,0.4114285714285714,115.80142857142857,233.48714285714286,593.9342857142857
956,1715374785800,0.24,-2.55,0.3,60.97,248.29,591.74
957,1715374785810,0.24,-2.55,0.3,60.97,248.29,591.74
958,1715374785820,0.24,-2.55,0.3,60.96999999999999,248.29,591.74
959,1715374785830,0.3525,-2.465,0.37,27.1725,206.2825,547.1375
960,1715374785840,0.69,-2.21,0.58,-74.22,80.26,413.33
961,1715374785850,0.69,-2.21,0.58,-74.22,80.26,413.33
962,1715374785860,0.6900000000000001,-2.21,0.58,-74.22,80.26,413.33
963,1715374785870,1.33,-2.67,0.6399999999999999,-51.665,72.875,355.955
964,1715374785880,1.97,-3.13,0.7,-29.109999999999996,65.49,298.58
965,1715374785890,1.97,-3.13,0.7,-29.11,65.49,298.58
966,1715374785900,1.97,-3.13,0.7,-29.11,65.49,298.58
967,1715374785910,2.13875,-3.53,0.74375,-29.11,65.49,298.58
968,1715374785920,2.24,-3.77,0.7700000000000001,-29.109999999999996,65.49,298.58
969,1715374785930,2.24,-3.77,0.77,-29.11,65.49,298.58
970,1715374785940,2.24,-3.77,0.77,-29.11,65.49,298.58
971,1715374785950,4.5200000000000005,-5.45,0.485,-70.815,-87.7825,95.42999999999999
972,1715374785960,5.28,-6.01,0.39,-90.7,-286.01,-88.13
973,1715374785970,5.28,-6.01,0.39,-90.7,-286.01,-88.13
974,1715374785980,5.28,-6.01,0.39,-90.7,-286.01,-88.13
975,1715374785990,1.65,-5.53,0.15,122.8,57.8,-297.91
976,1715374786000,1.65,-5.53,0.15,122.8,57.8,-297.91
977,1715374786010,1.65,-5.53,0.15,122.8,57.8,-297.91
978,1715374786020,1.4575,-5.465,0.20625,122.8,57.8,-297.91
979,1715374786030,0.11,-5.01,0.6,122.8,57.8,-297.91
980,1715374786040,0.11,-5.01,0.6,122.8,57.8,-297.91
981,1715374786050,0.11,-5.01,0.6,133.605,86.03,-284.425
982,1715374786060,0.016249999999999994,-4.7175,0.46875,144.41,114.26,-270.94
983,1715374786070,-0.14,-4.23,0.25,292.54,28.69,-340.88
984,1715374786080,-0.14,-4.23,0.25,292.54,28.69,-340.88
985,1715374786090,-0.14,-4.23,0.25,292.54,28.69,-340.88
986,1715374786100,-0.32857142857142857,-3.7371428571428575,0.15142857142857144,294.2857142857143,3.0528571428571447,-357.86571428571426
987,1715374786110,-0.58,-3.08,0.02,298.65,-61.04,-400.33
988,1715374786120,-0.58,-3.08,0.02,298.65,-61.04,-400.33
989,1715374786130,-0.58,-3.0800000000000005,0.02,298.65,-61.04,-400.33
990,1715374786140,-0.72,-2.8049999999999997,-0.045,289.37,-112.95,-439.29999999999995
991,1715374786150,-0.86,-2.53,-0.11,280.09,-164.85999999999999,-478.27
992,1715374786160,-0.86,-2.53,-0.11,280.09,-164.86,-478.27
993,1715374786170,-0.86,-2.53,-0.11,280.09,-164.86,-478.27
994,1715374786180,-0.95,-2.38,-0.1625,257.1325,-169.8925,-484.9075
995,1715374786190,-0.98,-2.33,-0.18,218.87,-178.28,-495.97
996,1715374786200,-0.9799999999999999,-2.3300000000000005,-0.18,218.87000000000003,-178.28,-495.96999999999997
997,1715374786210,-0.98,-2.33,-0.18,218.87,-178.28,-495.97
998,1715374786220,-0.8525,-2.24,-0.0525,163.205,-156.6275,-474.73
999,1715374786230,-0.8099999999999999,-2.21,-0.01,144.65,-149.41,-467.65
1000,1715374786240,-0.81,-2.21,-0.01,144.65,-149.41,-467.65
1001,1715374786250,-0.81,-2.21,-0.01,144.65,-149.41,-467.65
