id,timestamp,acc_x,acc_y,acc_z,gyro_x,gyro_y,gyro_z
0,1715374792270,0.09,-0.27,1.05,7.45,7.87,-6.35
1,1715374792280,0.12,-0.21750000000000003,0.9975,5.07,-2.35,-11.260000000000002
2,1715374792290,0.13,-0.2,0.9799999999999999,2.69,-12.570000000000002,-16.17
3,1715374792300,0.13,-0.2,0.98,2.69,-12.57,-16.17
4,1715374792310,0.13,-0.2,0.9799999999999999,2.69,-12.570000000000002,-16.17
5,1715374792320,0.115,-0.26,1.0175,-2.59,-2.2250000000000005,-14.675
6,1715374792330,0.11,-0.28,1.03,-7.87,8.12,-13.18
7,1715374792340,0.11,-0.28,1.03,-7.87,8.12,-13.179999999999998
8,1715374792350,0.11,-0.28,1.03,-7.87,8.12,-13.18
9,1715374792360,0.11,-0.28,1.03,-7.87,8.12,-13.18
10,1715374792370,0.08,-0.3025,1.06,-16.615000000000002,-8.68,-5.4925
11,1715374792380,0.07,-0.31,1.07,-19.53,-14.28,-2.93
12,1715374792390,0.07,-0.31,1.07,-19.53,-14.28,-2.93
13,1715374792400,0.23,-0.29,1.07,-34.06,-3.11,6.35
14,1715374792410,0.23,-0.29,1.07,-34.06,-3.11,6.35
15,1715374792420,0.23,-0.29,1.07,-34.06,-3.11,6.35
16,1715374792430,0.23,-0.29,1.07,-34.06,-3.11,6.35
17,1715374792440,0.23,-0.29,1.07,-34.06,-3.11,6.35
18,1715374792450,0.23,-0.29,1.07,-34.06,-3.11,6.35
19,1715374792460,0.23,-0.29,1.07,-34.06,-3.11,6.35
20,1715374792470,0.08,-0.3514285714285714,0.8828571428571428,-84.99285714285713,42.857142857142854,22.587142857142858
21,1715374792480,-0.07,-0.33,0.74,-65.55,6.1,31.13
22,1715374792490,-0.07,-0.33,0.74,-65.55,6.1,31.13
23,1715374792500,-0.07,-0.33,0.74,-65.55,6.1,31.13
24,1715374792510,-0.04,-0.195,0.42,-65.82375,-16.763749999999998,31.197499999999998
25,1715374792520,-0.01,-0.06,0.1,-66.28,-54.87,31.31
26,1715374792530,-0.01,-0.06,0.1,-66.28,-54.87,31.31
27,1715374792540,-0.01,-0.06,0.1,-66.28,-54.87,31.31
28,1715374792550,-0.05,-0.09,0.15000000000000002,-74.4,-50.935,34.82
29,1715374792560,-0.09,-0.12,0.2,-82.52,-47.0,38.33
30,1715374792570,-0.09,-0.12,0.2,-82.52,-47.0,38.33
31,1715374792580,-0.09,-0.12,0.2,-82.52,-47.0,38.33
32,1715374792590,-0.21,-0.22285714285714286,0.17428571428571432,-98.58285714285715,-15.088571428571429,94.09571428571428
33,1715374792600,-0.23,-0.24,0.17,-101.26,-9.77,103.39
34,1715374792610,-0.23,-0.24,0.17,-101.26,-9.77,103.39
35,1715374792620,-0.23,-0.24,0.17,-101.26,-9.77,103.39
36,1715374792630,-0.13,-0.23,-0.1,-183.35,-23.62,76.54
37,1715374792640,-0.13,-0.23,-0.1,-183.35,-23.62,76.54
38,1715374792650,-0.13,-0.23,-0.1,-183.35,-23.62,76.54
39,1715374792660,-0.13,-0.23,-0.1,-183.35,-23.62,76.54
40,1715374792670,0.16,-0.82,0.0,-221.19,3.97,101.99
41,1715374792680,0.16,-0.82,0.0,-221.19,3.97,101.99
42,1715374792690,0.16,-0.82,0.0,-221.19,3.97,101.99
43,1715374792700,0.2425,-0.83375,-0.06375,-227.85875,10.07375,93.42999999999999
44,1715374792710,0.82,-0.93,-0.51,-274.54,52.8,33.51
45,1715374792720,0.82,-0.93,-0.51,-274.54,52.8,33.51
46,1715374792730,0.82,-0.93,-0.51,-274.54,52.8,33.51
47,1715374792740,0.92125,-1.32375,-0.315,-274.54,52.8,33.51
48,1715374792750,1.09,-1.98,0.01,-289.49,208.68,-60.0
49,1715374792760,1.09,-1.98,0.01,-289.49,208.68,-60.0
50,1715374792770,1.09,-1.98,0.01,-289.49,208.68,-60.0
51,1715374792780,0.8885714285714287,-2.13,-0.06285714285714286,-251.24857142857144,256.3671428571428,-47.25857142857143
52,1715374792790,0.62,-2.33,-0.16,-200.26,319.95,-30.27
53,1715374792800,0.62,-2.33,-0.16,-200.26,319.95,-30.27
54,1715374792810,0.62,-2.3300000000000005,-0.16,-200.26,319.95,-30.27
55,1715374792820,0.8975,-2.6375,-0.145,-179.01999999999998,306.965,-41.165
56,1715374792830,1.36,-3.15,-0.12,-115.3,268.01,-73.85
57,1715374792840,1.36,-3.15,-0.12,-115.3,268.01,-73.85
58,1715374792850,1.36,-3.15,-0.12,-115.3,268.01,-73.85
59,1715374792860,1.525,-3.295,-0.095,-70.865,274.325,-91.55
60,1715374792870,1.69,-3.44,-0.07,-26.43,280.64,-109.25
61,1715374792880,1.69,-3.44,-0.07,-26.43,280.64,-109.25
62,1715374792890,1.69,-3.44,-0.07,-26.43,280.64,-109.25
63,1715374792900,1.62125,-3.87125,-0.08875000000000001,5.345000000000001,268.43375000000003,-184.81875
64,1715374792910,1.58,-4.13,-0.1,24.41,261.11,-230.16
65,1715374792920,1.58,-4.13,-0.1,24.41,261.11,-230.16
66,1715374792930,1.58,-4.13,-0.1,24.41,261.11,-230.16
67,1715374792940,0.7837500000000001,-4.2437499999999995,0.46875000000000006,45.558749999999996,247.81,-326.02500000000003
68,1715374792950,0.67,-4.26,0.55,48.58,245.91,-339.72
69,1715374792960,0.67,-4.26,0.55,48.58,245.91,-339.72
70,1715374792970,0.67,-4.26,0.55,48.58,245.91,-339.71999999999997
71,1715374792980,0.215,-3.875,0.78625,148.295,176.85500000000002,-328.98375
72,1715374792990,0.15,-3.82,0.82,162.54,166.99,-327.45
73,1715374793000,0.15,-3.82,0.82,162.54,166.99,-327.45
74,1715374793010,0.11124999999999999,-3.6912499999999997,0.75625,171.9775,149.9,-330.01374999999996
75,1715374793020,-0.16,-2.79,0.31,238.04,30.27,-347.96
76,1715374793030,-0.16,-2.79,0.31,238.04,30.27,-347.96
77,1715374793040,-0.16,-2.79,0.31,238.04,30.27,-347.96
78,1715374793050,-0.14500000000000002,-2.67,0.26,233.72,-13.002499999999998,-379.775
79,1715374793060,-0.1,-2.31,0.11,220.76,-142.82,-475.21999999999997
80,1715374793070,-0.1,-2.31,0.11,220.76,-142.82,-475.22
81,1715374793080,-0.1,-2.31,0.11,220.76,-142.82,-475.21999999999997
82,1715374793090,-0.13,-2.315,0.025,214.78625,-140.69375,-489.8225
83,1715374793100,-0.16,-2.32,-0.06,204.83,-137.15,-514.16
84,1715374793110,-0.16,-2.32,-0.06,204.83,-137.15,-514.16
85,1715374793120,-0.16,-2.32,-0.06,204.83,-137.15,-514.16
86,1715374793130,-0.085,-2.2575000000000003,-0.15375,181.61,-118.53,-501.79999999999995
87,1715374793140,-0.04,-2.22,-0.21,158.39000000000001,-99.91,-489.44
88,1715374793150,-0.04,-2.22,-0.21,158.39,-99.91,-489.44
89,1715374793160,-0.04,-2.22,-0.21,158.39,-99.91,-489.44
90,1715374793170,0.19999999999999998,-2.1942857142857144,-0.12428571428571429,152.00428571428571,-72.91857142857143,-477.50857142857143
91,1715374793180,0.24,-2.19,-0.11,150.94,-68.42,-475.52
92,1715374793190,0.24,-2.19,-0.11,150.94,-68.42,-475.52
93,1715374793200,0.265,-2.2125,-0.125,146.98,-58.791250000000005,-472.62125
94,1715374793210,0.44,-2.37,-0.23,119.26,8.61,-452.33
95,1715374793220,0.44,-2.37,-0.23,119.26,8.61,-452.33
96,1715374793230,0.44,-2.37,-0.23,119.26,8.61,-452.33
97,1715374793240,0.325,-2.2600000000000002,-0.28750000000000003,102.46000000000001,9.462499999999999,-456.8925
98,1715374793250,-0.02,-1.93,-0.46,52.06,12.02,-470.58
99,1715374793260,-0.02,-1.93,-0.46,52.06,12.02,-470.58
100,1715374793270,-0.02,-1.93,-0.46,52.06,12.02,-470.58
101,1715374793280,-0.305,-1.67,-0.535,22.1075,-18.725,-482.71
102,1715374793290,-0.59,-1.41,-0.61,-67.75,-110.96,-519.1
103,1715374793300,-0.59,-1.41,-0.61,-67.75,-110.96,-519.1
104,1715374793310,-0.59,-1.41,-0.61,-67.75,-110.96,-519.1
105,1715374793320,-1.45,-0.965,-0.37,-123.17,-109.555,-459.93
106,1715374793330,-2.31,-0.52,-0.13,-178.59,-108.15,-400.75999999999993
107,1715374793340,-2.31,-0.52,-0.13,-178.59,-108.15,-400.76
108,1715374793350,-2.31,-0.52,-0.13,-178.59,-108.15,-400.76
109,1715374793360,-3.75375,-0.21375,0.61375,-135.82750000000001,-84.575,-273.4975
110,1715374793370,-4.62,-0.03,1.06,-110.17,-70.43,-197.14000000000001
111,1715374793380,-4.62,-0.03,1.06,-110.17,-70.43,-197.14
112,1715374793390,-4.62,-0.03,1.06,-110.17,-70.43,-197.14
113,1715374793400,-5.331428571428572,-0.36428571428571427,1.0857142857142859,-13.432857142857143,-24.13571428571429,45.75714285714285
114,1715374793410,-5.45,-0.42,1.09,2.69,-16.42,86.24
115,1715374793420,-5.45,-0.42,1.09,2.69,-16.42,86.24
116,1715374793430,-5.18,-0.38,0.97,102.05,-93.32000000000001,199.52
117,1715374793440,-5.18,-0.38,0.97,102.05,-93.32,199.52
118,1715374793450,-5.18,-0.38,0.97,102.05,-93.32000000000001,199.52
119,1715374793460,-4.94375,-0.52625,0.86125,115.95124999999999,-102.36874999999999,222.87375000000003
120,1715374793470,-3.29,-1.55,0.1,213.26,-165.71,386.35
121,1715374793480,-3.29,-1.55,0.1,213.26,-165.71,386.35
122,1715374793490,-3.29,-1.55,0.1,213.26,-165.71,386.35
123,1715374793500,-2.37125,-2.2025,-0.38,221.315,-196.77125,449.68375000000003
124,1715374793510,-0.84,-3.29,-1.18,234.74,-248.54,555.24
125,1715374793520,-0.84,-3.29,-1.18,234.74,-248.54,555.24
126,1715374793530,-0.84,-3.29,-1.18,234.74,-248.54,555.24
127,1715374793540,0.4342857142857143,-4.021428571428571,-1.3285714285714285,234.74,-248.54,555.24
128,1715374793550,1.39,-4.57,-1.44,228.01250000000002,-231.64249999999998,563.0625
129,1715374793560,1.39,-4.57,-1.44,225.77,-226.01,565.67
130,1715374793570,1.39,-4.57,-1.44,225.77,-226.01,565.67
131,1715374793580,1.5271428571428571,-4.215714285714286,-1.4514285714285715,219.14142857142858,-167.21,556.43
132,1715374793590,1.63,-3.95,-1.46,214.17,-123.11,549.5
133,1715374793600,1.63,-3.95,-1.46,214.17,-123.11,549.5
134,1715374793610,1.6300000000000001,-3.95,-1.4599999999999997,214.17,-123.11,549.5
135,1715374793620,1.63,-3.95,-1.46,214.17,-123.11,549.5
136,1715374793630,1.77,-3.9850000000000003,-0.725,202.5325,-102.97625,498.17249999999996
137,1715374793640,1.7900000000000003,-3.9899999999999998,-0.62,200.87000000000003,-100.1,490.84
138,1715374793650,1.79,-3.99,-0.62,200.87,-100.1,490.84
139,1715374793660,1.332857142857143,-3.14,-0.4985714285714286,224.54999999999998,-26.15714285714285,475.4971428571429
140,1715374793670,1.15,-2.8,-0.45,242.31,29.3,463.99
141,1715374793680,1.15,-2.8,-0.45,242.31,29.3,463.99
142,1715374793690,1.15,-2.8,-0.45,242.31,29.3,463.99000000000007
143,1715374793700,1.15,-2.8,-0.45,242.31,29.3,463.99
144,1715374793710,1.15,-2.8,-0.45,242.31,29.3,463.99000000000007
145,1715374793720,1.15,-2.8,-0.45,242.31,29.3,463.99
146,1715374793730,1.0025,-2.73875,-0.29625,228.82875,20.884999999999998,451.935
147,1715374793740,0.49,-2.55,0.22,172.73,74.4,426.09
148,1715374793750,0.49,-2.55,0.22,172.73,74.4,426.09
149,1715374793760,0.48999999999999994,-2.55,0.22,172.73,74.4,426.09
150,1715374793770,0.6442857142857142,-2.607142857142857,0.1942857142857143,172.38142857142856,88.42999999999999,440.64142857142855
151,1715374793780,1.03,-2.75,0.13,170.29,172.61,527.95
152,1715374793790,1.03,-2.75,0.13,170.29,172.61,527.95
153,1715374793800,1.03,-2.75,0.13,170.29,172.60999999999999,527.95
154,1715374793810,2.18125,-2.74625,-0.35374999999999995,169.38125,182.29125000000002,526.5237500000001
155,1715374793820,4.1,-2.74,-1.16,163.02,250.06,516.54
156,1715374793830,4.1,-2.7399999999999998,-1.16,163.02,250.06,516.54
157,1715374793840,4.1,-2.74,-1.16,163.02,250.06,516.54
158,1715374793850,4.934285714285714,-3.471428571428571,-0.6799999999999999,103.20857142857143,217.3457142857143,341.4942857142857
159,1715374793860,5.56,-4.02,-0.32,58.35,192.81,210.21
160,1715374793870,5.56,-4.02,-0.32,58.35,192.81,210.21
161,1715374793880,5.56,-4.02,-0.32,58.35,192.81,210.21
162,1715374793890,5.60375,-4.93,-0.3025,-16.20875,14.065,-200.69874999999996
163,1715374793900,5.61,-5.06,-0.3,-26.86,-11.47,-259.4
164,1715374793910,5.61,-5.06,-0.3,-26.859999999999996,-11.47,-259.4
165,1715374793920,5.61,-5.06,-0.3,-26.86,-11.47,-259.4
166,1715374793930,2.45125,-5.22625,0.21625,-15.8275,25.097499999999997,-263.22249999999997
167,1715374793940,2.0,-5.25,0.29,61.4,281.07,-289.98
168,1715374793950,2.0,-5.25,0.29,61.4,281.07,-289.98
169,1715374793960,1.83,-5.178571428571429,0.4457142857142857,70.09285714285714,266.69142857142856,-291.96714285714285
170,1715374793970,0.8099999999999999,-4.75,1.3800000000000001,122.25,180.42,-303.89
171,1715374793980,0.81,-4.75,1.38,122.25,180.42,-303.89
172,1715374793990,0.81,-4.75,1.38,122.25,180.42,-303.89
173,1715374794000,0.6642857142857144,-4.4071428571428575,1.3028571428571427,133.08857142857144,163.15571428571428,-307.2914285714286
174,1715374794010,0.3,-3.55,1.11,198.12,59.57,-327.7
175,1715374794020,0.3,-3.55,1.11,198.12,59.57,-327.7
176,1715374794030,0.3,-3.55,1.11,198.12,59.57,-327.7
177,1715374794040,0.17142857142857143,-3.2842857142857143,0.9671428571428572,198.12000000000003,59.57,-327.7
178,1715374794050,-0.15,-2.62,0.61,250.92,-36.99,-378.54
179,1715374794060,-0.15,-2.62,0.61,250.92,-36.99,-378.54
180,1715374794070,-0.15,-2.62,0.61,250.92,-36.99,-378.54
181,1715374794080,-0.29375,-2.3825000000000003,0.29125,240.68625,-84.3675,-426.46875
182,1715374794090,-0.38,-2.24,0.1,223.62999999999997,-163.33,-506.35
183,1715374794100,-0.38,-2.24,0.1,223.63,-163.33,-506.35
184,1715374794110,-0.38,-2.24,0.1,223.63,-163.33,-506.35
185,1715374794120,-0.42375,-2.2575,-0.013749999999999998,187.95499999999998,-135.195,-502.535
186,1715374794130,-0.43,-2.26,-0.03,152.28,-107.06000000000002,-498.71999999999997
187,1715374794140,-0.43,-2.26,-0.03,152.28,-107.06,-498.72
188,1715374794150,-0.43,-2.26,-0.03,152.28,-107.06000000000002,-498.71999999999997
189,1715374794160,-0.115,-2.1925,-0.0075,96.0225,-131.315,-495.93
190,1715374794170,-0.01,-2.17,0.0,77.27,-139.4,-495.0
191,1715374794180,-0.01,-2.17,0.0,77.27,-139.4,-495.0
192,1715374794190,-0.01,-2.17,0.0,77.27,-139.4,-495.0
193,1715374794200,0.11,-2.36,0.0,50.84,-60.0,-450.26
194,1715374794210,0.11,-2.36,0.0,50.84,-60.0,-450.26
195,1715374794220,0.11,-2.36,0.0,50.839999999999996,-60.0,-450.25999999999993
196,1715374794230,0.26,-2.3425,-0.07,36.040000000000006,-73.96000000000001,-448.0475
197,1715374794240,0.71,-2.29,-0.28,-8.36,-115.84,-441.41
198,1715374794250,0.71,-2.29,-0.28,-8.36,-115.84,-441.41
199,1715374794260,0.71,-2.29,-0.28,-8.36,-115.84,-441.41
200,1715374794270,0.63125,-2.27875,-0.37375,-10.21625,-66.33625,-438.89
201,1715374794280,0.5,-2.26,-0.53,-13.31,16.17,-434.69
202,1715374794290,0.5,-2.26,-0.53,-13.31,16.17,-434.69
203,1715374794300,0.5,-2.26,-0.53,-13.31,16.17,-434.69
204,1715374794310,-0.21428571428571427,-1.7742857142857142,-0.6371428571428571,-19.035714285714285,23.07857142857143,-421.9785714285714
205,1715374794320,-0.5,-1.58,-0.68,-26.67,32.29,-405.03
206,1715374794330,-0.5,-1.58,-0.68,-26.67,32.29,-405.03
207,1715374794340,-0.5,-1.58,-0.68,-26.669999999999998,32.29,-405.03000000000003
208,1715374794350,-1.5750000000000002,-1.17375,-0.305,-10.801250000000001,50.214999999999996,-386.33625
209,1715374794360,-2.22,-0.93,-0.08,-1.28,60.97,-375.12
210,1715374794370,-2.22,-0.93,-0.08,-1.28,60.96999999999999,-375.12
211,1715374794380,-2.22,-0.93,-0.08,-1.28,60.97,-375.12
212,1715374794390,-5.77,0.18,0.05,18.74,-121.7,-218.99
213,1715374794400,-5.77,0.18,0.05,18.74,-121.7,-218.99
214,1715374794410,-5.7700000000000005,0.18,0.05,18.74,-121.7,-218.99
215,1715374794420,-5.885,0.2875,0.035,18.74,-121.7,-218.99
216,1715374794430,-6.23,0.61,-0.01,81.05,-7.93,66.04
217,1715374794440,-6.2299999999999995,0.61,-0.01,81.05,-7.93,66.04
218,1715374794450,-5.960000000000001,0.5625,-0.065,83.2175,-22.67,109.5425
219,1715374794460,-5.15,0.42,-0.23,89.72,-66.89,240.05
220,1715374794470,-5.15,0.42,-0.23,89.72,-66.89,240.05
221,1715374794480,-5.15,0.42,-0.23,89.72,-66.89,240.05
222,1715374794490,-4.29,-0.31500000000000006,-0.5,65.46000000000001,-104.97999999999999,352.265
223,1715374794500,-3.43,-1.05,-0.7700000000000001,41.2,-143.07,464.48
224,1715374794510,-3.43,-1.05,-0.77,41.2,-143.07,464.48
225,1715374794520,-3.43,-1.05,-0.77,41.2,-143.07,464.48
226,1715374794530,-1.9500000000000002,-2.27,-0.95,39.43,-213.505,512.85
227,1715374794540,-0.47,-3.49,-1.13,37.66,-283.94,561.22
228,1715374794550,-0.47000000000000003,-3.4899999999999998,-1.13,37.660000000000004,-283.94,561.22
229,1715374794560,0.010000000000000037,-3.89875,-1.15625,59.51875,-261.485,562.75375
230,1715374794570,0.8099999999999999,-4.58,-1.2,95.95,-224.06,565.31
231,1715374794580,0.81,-4.58,-1.2,95.95,-224.06,565.31
232,1715374794590,0.81,-4.58,-1.2,95.95,-224.06,565.31
233,1715374794600,1.25,-4.482857142857143,-1.3485714285714285,102.40857142857143,-191.88714285714286,580.0614285714286
234,1715374794610,1.58,-4.41,-1.46,111.02,-148.99,599.73
235,1715374794620,1.58,-4.41,-1.46,111.02,-148.99,599.73
236,1715374794630,1.58,-4.41,-1.46,111.02,-148.99,599.73
237,1715374794640,1.86,-4.07,-0.67,99.07714285714285,-94.79714285714286,545.0157142857144
238,1715374794650,1.86,-4.07,-0.67,94.3,-73.12,523.13
239,1715374794660,1.86,-4.07,-0.67,94.3,-73.12,523.13
240,1715374794670,1.7550000000000001,-3.9650000000000003,-0.6000000000000001,90.6075,-61.691250000000004,516.0425
241,1715374794680,1.02,-3.23,-0.11,64.76,18.31,466.43
242,1715374794690,1.02,-3.23,-0.11,64.76,18.31,466.43
243,1715374794700,1.02,-3.23,-0.11,64.76,18.31,466.43
244,1715374794710,0.8371428571428572,-3.0385714285714287,-0.07857142857142858,60.13714285714286,14.858571428571427,458.0414285714286
245,1715374794720,0.38,-2.56,0.0,48.58,6.23,437.07
246,1715374794730,0.38,-2.56,0.0,48.58,6.23,437.07
247,1715374794740,0.38,-2.56,0.0,48.58,6.23,437.07
248,1715374794750,0.34285714285714286,-2.5799999999999996,0.1142857142857143,42.285714285714285,10.709999999999999,448.73857142857145
249,1715374794760,0.25,-2.63,0.4,26.55,21.91,477.91
250,1715374794770,0.25,-2.63,0.4,26.55,21.91,477.91
251,1715374794780,0.25,-2.63,0.4,26.55,21.91,477.91
252,1715374794790,0.515,-2.575,0.19,31.052500000000002,10.557500000000001,490.5575
253,1715374794800,0.78,-2.52,-0.02,44.56,-23.5,528.5
254,1715374794810,0.78,-2.52,-0.02,44.56,-23.5,528.5
255,1715374794820,0.78,-2.52,-0.02,44.56,-23.5,528.5
256,1715374794830,0.78,-2.52,-0.02,44.56,-23.5,528.5
257,1715374794840,2.025,-3.1275,-0.13999999999999999,37.51,118.58749999999999,539.3075
258,1715374794850,2.44,-3.3300000000000005,-0.18,35.16,165.95,542.91
259,1715374794860,2.44,-3.33,-0.18,35.16,165.95,542.91
260,1715374794870,2.44,-3.33,-0.18,35.16,165.95,542.91
261,1715374794880,2.44,-3.3300000000000005,-0.18,35.16,165.95,542.91
262,1715374794890,2.44,-3.33,-0.18,35.16,165.95,542.91
263,1715374794900,2.7675,-3.6875,-0.185,-28.393750000000004,144.31625,452.235
264,1715374794910,3.68,-4.9,0.26,-78.86,-5.86,132.81
265,1715374794920,3.68,-4.9,0.26,-78.86,-5.86,132.81
266,1715374794930,3.68,-4.9,0.26,-78.86,-5.86,132.81
267,1715374794940,3.5942857142857143,-4.975714285714285,0.19285714285714287,-78.86,-5.86,132.81
268,1715374794950,3.08,-5.43,-0.21,13.6075,48.89,-70.665
269,1715374794960,3.08,-5.43,-0.21,44.43,67.14,-138.49
270,1715374794970,3.0800000000000005,-5.43,-0.21,44.43,67.14,-138.49
271,1715374794980,3.08,-5.43,-0.21,44.43,67.14,-138.49
272,1715374794990,2.3971428571428572,-5.344285714285713,-0.1957142857142857,74.40714285714286,85.25714285714285,-191.85285714285715
273,1715374795000,0.69,-5.13,-0.16,149.35,130.55,-325.26
274,1715374795010,0.6900000000000001,-5.13,-0.16,149.35,130.55,-325.25999999999993
275,1715374795020,0.058749999999999976,-4.4175,-0.14125000000000001,190.18375,138.44750000000002,-316.8375
276,1715374795030,-0.32,-3.99,-0.13,258.24,151.61,-302.8
277,1715374795040,-0.32,-3.9899999999999998,-0.13,258.24,151.60999999999999,-302.8
278,1715374795050,-0.32,-3.99,-0.13,258.24,151.61,-302.8
279,1715374795060,-0.4325,-3.27,-0.2125,306.5775,104.825,-284.7625
280,1715374795070,-0.47000000000000003,-3.03,-0.24,322.69,89.23,-278.75
281,1715374795080,-0.47,-3.03,-0.24,322.69,89.23,-278.75
282,1715374795090,-0.47,-3.03,-0.24,322.69,89.23,-278.75
283,1715374795100,-0.6275000000000001,-2.645,-0.24875,384.85875,-11.491249999999999,-356.93125000000003
284,1715374795110,-0.65,-2.59,-0.25,393.74000000000007,-25.88,-368.1
285,1715374795120,-0.65,-2.59,-0.25,393.74,-25.88,-368.1
286,1715374795130,-0.65,-2.59,-0.25,393.74,-25.88,-368.1
287,1715374795140,-0.8099999999999999,-2.31,-0.82,386.71999999999997,-85.33,-418.27
288,1715374795150,-0.81,-2.31,-0.82,386.72,-85.33,-418.27
289,1715374795160,-0.8099999999999999,-2.31,-0.82,386.71999999999997,-85.33,-418.27
290,1715374795170,-0.795,-2.2725,-0.8025,386.72,-85.33,-418.27
291,1715374795180,-0.69,-2.01,-0.68,266.42,-91.43,-444.46
292,1715374795190,-0.6900000000000001,-2.01,-0.68,266.42,-91.42999999999999,-444.46
293,1715374795200,-0.69,-2.01,-0.68,266.42,-91.43,-444.46
294,1715374795210,-0.61,-2.0524999999999998,-0.625,266.42,-91.43,-444.46
295,1715374795220,-0.37,-2.18,-0.46,174.44,-141.24,-538.27
296,1715374795230,-0.37,-2.18,-0.46,174.44,-141.24,-538.27
297,1715374795240,-0.37,-2.18,-0.46,174.44,-141.24,-538.27
298,1715374795250,-0.28,-2.3075,-0.35875,155.14625,-86.76375,-503.40999999999997
299,1715374795260,-0.13,-2.52,-0.19,122.99,4.03,-445.31
300,1715374795270,-0.13,-2.52,-0.19,122.99,4.03,-445.31
301,1715374795280,-0.13,-2.52,-0.19,122.99,4.03,-445.31
302,1715374795290,-0.13857142857142857,-2.3485714285714288,-0.29714285714285715,130.70428571428573,22.419999999999998,-407.0942857142857
303,1715374795300,-0.15,-2.12,-0.44,140.99,46.94,-356.14
304,1715374795310,-0.15,-2.12,-0.44,140.99,46.94,-356.14
305,1715374795320,-0.15,-2.12,-0.44,140.99,46.94,-356.14
306,1715374795330,-0.195,-1.685,-0.44,100.0175,23.8625,-402.01
307,1715374795340,-0.21,-1.54,-0.44,86.36,16.17,-417.3
308,1715374795350,-0.21,-1.54,-0.44,86.36,16.17,-417.3
309,1715374795360,-0.21,-1.5400000000000003,-0.44,86.36,16.17,-417.3
310,1715374795370,-1.7675,-0.08750000000000001,-0.88625,54.85125,-14.376249999999999,-462.95750000000004
311,1715374795380,-1.99,0.12,-0.95,50.35,-18.74,-469.48
312,1715374795390,-1.99,0.12,-0.95,50.35,-18.74,-469.48
313,1715374795400,-1.99,0.12,-0.95,50.35,-18.74,-469.48
314,1715374795410,-4.6850000000000005,1.73,-0.6437499999999999,-33.4925,-18.31125,-273.53249999999997
315,1715374795420,-5.07,1.96,-0.6,-45.47,-18.25,-245.54
316,1715374795430,-5.07,1.96,-0.6,-45.47,-18.25,-245.54
317,1715374795440,-5.130000000000001,1.9685714285714284,-0.5557142857142857,-45.46999999999999,-18.25,-245.54
318,1715374795450,-5.49,2.02,-0.29,-41.2625,-29.92,17.395000000000007
319,1715374795460,-5.49,2.02,-0.29,-39.86,-33.81,105.04
320,1715374795470,-5.49,2.02,-0.29,-39.86,-33.81,105.04
321,1715374795480,-5.49,2.02,-0.29,-39.86,-33.81,105.04
322,1715374795490,-3.75,0.93,-0.52,12.39,-224.79,258.54
323,1715374795500,-3.75,0.93,-0.52,12.39,-224.79,258.54
324,1715374795510,-3.75,0.93,-0.52,12.39,-224.79,258.54
325,1715374795520,-2.8062500000000004,0.0049999999999999906,-0.9825,45.465,-247.49,357.8775
326,1715374795530,-2.24,-0.55,-1.26,65.31,-261.11,417.48
327,1715374795540,-2.24,-0.55,-1.26,65.31,-261.11,417.48
328,1715374795550,-2.24,-0.55,-1.26,65.31,-261.11,417.48
329,1715374795560,-0.8614285714285714,-2.085714285714286,-1.3171428571428572,43.86,-150.85285714285715,557.3371428571428
330,1715374795570,-0.31,-2.7,-1.34,35.28,-106.75,613.28
331,1715374795580,-0.31,-2.7,-1.34,35.28,-106.75,613.28
332,1715374795590,-0.31,-2.7,-1.34,35.28,-106.75,613.28
333,1715374795600,0.22375,-3.5575,-0.885,-34.95125,95.8125,712.96125
334,1715374795610,0.3,-3.68,-0.82,-77.09,217.35,772.77
335,1715374795620,0.3,-3.68,-0.82,-77.09,217.35,772.77
336,1715374795630,0.3,-3.68,-0.82,-77.09,217.35,772.7699999999999
337,1715374795640,-0.09375,-3.67125,-0.4,-253.91000000000003,20.81625,455.11
338,1715374795650,-0.15,-3.6699999999999995,-0.34,-279.17,-7.26,409.73
339,1715374795660,-0.15,-3.67,-0.34,-279.17,-7.26,409.73
340,1715374795670,-0.1425,-3.7375,-0.18000000000000002,-276.195,-11.365,394.89125
341,1715374795680,-0.09,-4.21,0.94,-255.37,-40.1,291.02
342,1715374795690,-0.09,-4.21,0.9400000000000001,-255.37000000000003,-40.1,291.02
343,1715374795700,-0.09,-4.21,0.94,-255.37,-40.1,291.02
344,1715374795710,-0.19124999999999998,-3.62875,0.79,-233.94625,-25.75625,297.10749999999996
345,1715374795720,-0.36,-2.66,0.54,-83.98,74.65,339.72
346,1715374795730,-0.36,-2.66,0.54,-83.98,74.65,339.71999999999997
347,1715374795740,-0.36,-2.66,0.54,-83.98,74.65,339.72
348,1715374795750,-0.48,-2.42375,0.405,-101.76625,46.31125,328.96500000000003
349,1715374795760,-0.68,-2.03,0.18,-131.41,-0.92,311.04
350,1715374795770,-0.68,-2.03,0.18,-131.41,-0.92,311.04
351,1715374795780,-0.68,-2.03,0.18,-131.41,-0.92,311.04
352,1715374795790,-0.7050000000000001,-2.03,0.18,-132.20499999999998,-39.185,322.85
353,1715374795800,-0.7299999999999999,-2.03,0.18,-133.0,-77.45,334.66
354,1715374795810,-0.73,-2.03,0.18,-133.0,-77.45,334.66
355,1715374795820,-0.73,-2.03,0.18,-133.0,-77.45,334.66
356,1715374795830,-0.27375,-2.08625,0.205,-140.01874999999998,-115.90625,373.7225
357,1715374795840,0.0,-2.12,0.22,-144.23,-138.98,397.16
358,1715374795850,0.0,-2.12,0.22,-144.23,-138.98,397.16
359,1715374795860,0.0,-2.12,0.22,-144.23,-138.98,397.16
360,1715374795870,1.062857142857143,-2.4171428571428573,-0.13428571428571429,-104.47,-181.80857142857144,384.9485714285715
361,1715374795880,1.86,-2.64,-0.4,-74.65,-213.93,375.79
362,1715374795890,1.86,-2.64,-0.4,-74.65,-213.93,375.79
363,1715374795900,1.86,-2.64,-0.4,-74.65,-213.93,375.79
364,1715374795910,2.65125,-3.2512499999999998,-0.5425,-98.90875,-200.12625,312.9175
365,1715374795920,3.97,-4.27,-0.78,-139.34,-177.12,208.13
366,1715374795930,3.97,-4.27,-0.78,-139.34,-177.12,208.13
367,1715374795940,4.214285714285714,-4.298571428571428,-0.8785714285714287,-128.00571428571428,-157.36285714285714,168.22142857142856
368,1715374795950,5.68,-4.47,-1.47,-60.0,-38.82,-71.23
369,1715374795960,5.68,-4.47,-1.47,-60.0,-38.82,-71.23
370,1715374795970,5.68,-4.47,-1.47,-60.0,-38.82,-71.23
371,1715374795980,5.1875,-4.51875,-1.34875,-52.0425,-12.125,-94.5075
372,1715374795990,1.74,-4.86,-0.5,3.66,174.74,-257.45
373,1715374796000,1.74,-4.86,-0.5,3.66,174.74,-257.45
374,1715374796010,1.74,-4.86,-0.5,3.66,174.74,-257.45
375,1715374796020,1.39125,-4.80375,-0.29375,13.63875,162.51875,-276.81125
376,1715374796030,0.81,-4.71,0.05,30.27,142.15,-309.08
377,1715374796040,0.8099999999999999,-4.71,0.05,30.27,142.15,-309.08
378,1715374796050,0.81,-4.71,0.05,30.27,142.15,-309.08
379,1715374796060,0.66625,-4.35375,0.21875,105.65125,167.44375,-287.98625
380,1715374796070,0.58,-4.14,0.32,150.87999999999997,182.62000000000003,-275.33
381,1715374796080,0.58,-4.14,0.32,150.88,182.62,-275.33
382,1715374796090,0.58,-4.14,0.32,150.88,182.62,-275.33
383,1715374796100,0.37,-3.5957142857142856,0.2942857142857143,188.3114285714286,153.9742857142857,-282.46999999999997
384,1715374796110,0.09,-2.87,0.26,238.22,115.78,-291.99
385,1715374796120,0.09,-2.87,0.26,238.22,115.78,-291.99
386,1715374796130,0.09,-2.87,0.26,238.22,115.78,-291.99
387,1715374796140,0.04625,-2.84,0.23625000000000002,244.52249999999998,102.10125000000001,-302.8775
388,1715374796150,-0.26,-2.63,0.07,288.64,6.35,-379.09
389,1715374796160,-0.26,-2.63,0.07,288.64,6.35,-379.09
390,1715374796170,-0.26,-2.63,0.07,288.64,6.35,-379.09
391,1715374796180,-0.26,-2.63,0.07,288.64,6.35,-379.09
392,1715374796190,-0.3125,-2.6087499999999997,0.026250000000000002,287.89125,2.7562499999999996,-383.80499999999995
393,1715374796200,-0.68,-2.46,-0.28,282.65,-22.4,-416.81
394,1715374796210,-0.68,-2.46,-0.28,282.65,-22.4,-416.81
395,1715374796220,-0.81125,-2.21625,-0.35500000000000004,241.53125,-86.83125,-455.22249999999997
396,1715374796230,-0.89,-2.07,-0.4,216.86,-125.49,-478.27
397,1715374796240,-0.89,-2.07,-0.4,216.86,-125.49,-478.27
398,1715374796250,-0.8214285714285714,-2.037142857142857,-0.3685714285714286,195.26142857142858,-141.99571428571429,-487.9485714285714
399,1715374796260,-0.41,-1.84,-0.18,65.67,-241.03,-546.02
400,1715374796270,-0.41,-1.84,-0.18,65.67,-241.03,-546.02
401,1715374796280,-0.41,-1.8400000000000003,-0.18,65.67,-241.03000000000003,-546.02
402,1715374796290,-0.41,-1.84,-0.18,65.67,-241.03,-546.02
403,1715374796300,-0.08499999999999999,-2.12125,0.0012500000000000028,26.4575,-132.6175,-473.27625
404,1715374796310,0.11,-2.29,0.11,2.93,-67.57,-429.63
405,1715374796320,0.11,-2.29,0.11,2.93,-67.57,-429.63
406,1715374796330,0.165,-2.23,-0.12,6.700000000000001,-42.239999999999995,-421.22249999999997
407,1715374796340,0.22,-2.17,-0.35,18.01,33.75,-396.0
408,1715374796350,0.22,-2.17,-0.35,18.01,33.75,-396.0
409,1715374796360,0.22,-2.17,-0.35,18.01,33.75,-396.0
410,1715374796370,0.11714285714285715,-1.987142857142857,-0.5957142857142858,-48.01285714285715,19.521428571428572,-436.14285714285717
411,1715374796380,0.04,-1.85,-0.78,-97.53,8.85,-466.25
412,1715374796390,0.04,-1.85,-0.78,-97.53,8.85,-466.25
413,1715374796400,0.04,-1.85,-0.78,-97.53,8.85,-466.25
414,1715374796410,-0.49125,-1.33125,-0.8175,-158.38,1.86875,-471.28125
415,1715374796420,-0.81,-1.02,-0.84,-194.89,-2.32,-474.3
416,1715374796430,-0.81,-1.02,-0.84,-194.89,-2.32,-474.3
417,1715374796440,-0.81,-1.02,-0.84,-194.89,-2.32,-474.3
418,1715374796450,-2.2928571428571423,-0.36428571428571427,-0.2057142857142857,-196.43285714285713,5.03,-455.73
419,1715374796460,-4.27,0.51,0.64,-198.49,14.83,-430.97
420,1715374796470,-4.27,0.51,0.64,-198.49,14.83,-430.97
421,1715374796480,-4.27,0.51,0.64,-198.49,14.83,-430.96999999999997
422,1715374796490,-5.86,0.19,1.8,-50.29,-30.58,-132.26
423,1715374796500,-5.86,0.19,1.8,-50.29,-30.58,-132.26
424,1715374796510,-5.86,0.19,1.8,-50.29,-30.580000000000002,-132.26
425,1715374796520,-5.7975,0.1575,1.6525,-6.102500000000001,-63.4025,-80.335
426,1715374796530,-5.61,0.06,1.21,126.46,-161.87,75.44
427,1715374796540,-5.61,0.06,1.2099999999999997,126.46,-161.87000000000003,75.43999999999998
428,1715374796550,-5.61,0.06,1.21,126.46,-161.87,75.44
429,1715374796560,-4.62,-0.36750000000000005,0.6174999999999999,178.165,-192.4025,148.0175
430,1715374796570,-2.97,-1.08,-0.37,264.34,-243.29,268.98
431,1715374796580,-2.97,-1.08,-0.37,264.34,-243.29,268.98
432,1715374796590,-2.97,-1.08,-0.37,264.34,-243.29,268.98
433,1715374796600,-1.7757142857142856,-1.7142857142857142,-1.3128571428571427,269.8514285714285,-239.83571428571426,325.5
434,1715374796610,-0.88,-2.19,-2.02,283.63,-231.2,466.8
435,1715374796620,-0.88,-2.19,-2.02,283.63,-231.2,466.8
436,1715374796630,-0.88,-2.19,-2.02,283.63,-231.2,466.8
437,1715374796640,0.3628571428571429,-2.7685714285714282,-2.1914285714285713,230.30428571428573,-264.96,465.01714285714286
438,1715374796650,0.86,-3.0,-2.26,190.31,-290.28,463.68
439,1715374796660,0.86,-3.0,-2.26,190.31,-290.28,463.68
440,1715374796670,0.86,-3.0,-2.26,190.31,-290.28,463.68
441,1715374796680,1.04125,-3.20625,-2.0662499999999997,193.81625,-243.555,458.76125
442,1715374796690,1.15,-3.3300000000000005,-1.95,195.92,-215.52,455.81
443,1715374796700,1.15,-3.33,-1.95,195.92,-215.52,455.81
444,1715374796710,1.15,-3.33,-1.95,195.92,-215.52,455.81
445,1715374796720,1.09,-3.124285714285714,-1.4185714285714286,187.91428571428574,-94.66285714285713,518.3814285714285
446,1715374796730,1.08,-3.09,-1.33,186.58,-74.52,528.81
447,1715374796740,1.08,-3.09,-1.33,186.58,-74.52,528.81
448,1715374796750,1.08,-3.09,-1.33,186.58,-74.52,528.81
449,1715374796760,0.64,-2.69,-0.75,123.6,-6.589999999999999,495.3
450,1715374796770,0.64,-2.69,-0.75,123.6,-6.59,495.3
451,1715374796780,0.64,-2.69,-0.75,123.6,-6.589999999999999,495.3
452,1715374796790,0.64,-2.69,-0.75,123.6,-6.59,495.3
453,1715374796800,0.32,-2.57,-0.41,82.09,-17.33,460.69
454,1715374796810,0.32,-2.57,-0.41,82.09,-17.33,460.69
455,1715374796820,0.32,-2.57,-0.41,82.09,-17.33,460.69
456,1715374796830,0.3,-2.54,-0.3575,82.09,-17.33,460.69
457,1715374796840,0.24,-2.45,-0.2,72.39,30.76,487.92
458,1715374796850,0.24,-2.45,-0.2,72.39,30.76,487.92
459,1715374796860,0.24,-2.45,-0.2,72.39,30.76,487.92
460,1715374796870,0.3575,-2.4275,-0.18,62.4875,-9.325000000000003,467.65500000000003
461,1715374796880,0.71,-2.36,-0.12,32.78,-129.58,406.86
462,1715374796890,0.71,-2.36,-0.12,32.78,-129.58,406.86
463,1715374796900,0.71,-2.36,-0.12,32.78,-129.58,406.86
464,1715374796910,1.45625,-2.315,-0.49874999999999997,36.715,-118.73000000000002,395.1875
465,1715374796920,2.7,-2.24,-1.13,48.52,-86.18,360.17
466,1715374796930,2.7,-2.24,-1.13,48.52,-86.18,360.17
467,1715374796940,2.7,-2.24,-1.13,48.52,-86.17999999999999,360.17
468,1715374796950,4.225,-3.34625,-0.9612499999999999,-3.7774999999999963,-62.83625000000001,330.575
469,1715374796960,5.14,-4.01,-0.86,-90.93999999999998,-23.93,281.25
470,1715374796970,5.14,-4.01,-0.86,-90.94,-23.93,281.25
471,1715374796980,5.14,-4.01,-0.86,-90.93999999999998,-23.93,281.25
472,1715374796990,5.6575,-4.4075,-1.565,-59.89,-10.2425,213.47
473,1715374797000,5.83,-4.54,-1.8,33.26,30.82,10.13
474,1715374797010,5.83,-4.54,-1.8,33.26,30.82,10.13
475,1715374797020,4.0625,-4.855,-1.7475,23.48625,117.76875,-216.62625
476,1715374797030,3.81,-4.9,-1.74,22.09,130.19,-249.02
477,1715374797040,3.81,-4.9,-1.74,22.09,130.19,-249.02
478,1715374797050,3.81,-4.9,-1.74,22.09,130.19,-249.02
479,1715374797060,1.7,-4.32,-1.31,68.965,135.54500000000002,-310.4975
480,1715374797070,1.7,-4.32,-1.31,84.59,137.33,-330.99000000000007
481,1715374797080,1.7,-4.32,-1.31,84.59,137.33,-330.99
482,1715374797090,1.4949999999999999,-4.0975,-1.2650000000000001,88.6575,134.50750000000002,-340.39750000000004
483,1715374797100,0.88,-3.43,-1.13,117.13,114.75,-406.25
484,1715374797110,0.88,-3.43,-1.13,117.13,114.75,-406.25
485,1715374797120,0.88,-3.43,-1.13,117.13,114.75,-406.25
486,1715374797130,0.74,-3.2985714285714285,-1.012857142857143,124.71571428571428,112.6557142857143,-411.35857142857145
487,1715374797140,0.39,-2.97,-0.72,143.68,107.42,-424.13
488,1715374797150,0.39,-2.97,-0.72,143.68,107.42,-424.13
489,1715374797160,0.39,-2.97,-0.72,143.68,107.42,-424.13
490,1715374797170,0.13285714285714287,-2.7985714285714285,-0.7485714285714286,165.82285714285715,101.42,-462.11285714285714
491,1715374797180,-0.06,-2.67,-0.77,182.43,96.92,-490.6
492,1715374797190,-0.06,-2.67,-0.77,182.43,96.92,-490.6
493,1715374797200,-0.06,-2.67,-0.77,182.43,96.92,-490.6
494,1715374797210,-0.17142857142857143,-2.64,-0.7785714285714286,160.95428571428573,91.48142857142857,-494.8385714285714
495,1715374797220,-0.32,-2.6,-0.79,132.32,84.23,-500.49
496,1715374797230,-0.32,-2.6,-0.79,132.32,84.23,-500.49
497,1715374797240,-0.32,-2.6,-0.79,132.32,84.23,-500.49000000000007
498,1715374797250,-0.245,-2.50625,-0.69625,120.57625,105.13625,-476.2275
499,1715374797260,-0.2,-2.45,-0.64,113.53,117.68,-461.67
500,1715374797270,-0.2,-2.45,-0.64,113.53,117.67999999999999,-461.67
501,1715374797280,-0.2,-2.45,-0.64,113.53,117.68,-461.67
502,1715374797290,0.03,-2.54,-0.51,74.46,100.04,-441.59
503,1715374797300,0.03,-2.54,-0.51,74.46,100.04,-441.59
504,1715374797310,0.03,-2.54,-0.51,74.46,100.04,-441.59
505,1715374797320,0.019999999999999997,-2.52875,-0.5225,77.81,106.25,-436.12
506,1715374797330,-0.05,-2.45,-0.61,101.26,149.72,-397.83
507,1715374797340,-0.05,-2.45,-0.61,101.26,149.72,-397.83
508,1715374797350,-0.05,-2.45,-0.61,101.26,149.72,-397.83
509,1715374797360,-0.10428571428571429,-2.29,-0.6328571428571428,93.32571428571428,145.55142857142857,-393.9042857142857
510,1715374797370,-0.24,-1.89,-0.69,73.49,135.13,-384.09
511,1715374797380,-0.24,-1.89,-0.69,73.49,135.13,-384.09
512,1715374797390,-0.24,-1.89,-0.69,73.49,135.13,-384.09
513,1715374797400,-0.5199999999999999,-1.5642857142857143,-0.71,51.498571428571424,123.81285714285714,-389.6014285714286
514,1715374797410,-1.22,-0.75,-0.76,-3.48,95.52,-403.38
515,1715374797420,-1.22,-0.75,-0.76,-3.48,95.52,-403.38
516,1715374797430,-1.22,-0.75,-0.76,-3.48,95.52,-403.38
517,1715374797440,-1.22,-0.75,-0.76,-3.48,95.52,-403.38
518,1715374797450,-2.145,-0.06,-0.44,-39.370000000000005,31.22,-364.71500000000003
519,1715374797460,-3.07,0.63,-0.12,-75.26,-33.08,-326.05
520,1715374797470,-3.07,0.63,-0.12,-75.26,-33.08,-326.05
521,1715374797480,-3.91375,0.5800000000000001,0.09875,-48.441250000000004,-49.405,-196.08125
522,1715374797490,-4.42,0.55,0.23,-32.35,-59.2,-118.1
523,1715374797500,-4.42,0.55,0.23,-32.35,-59.2,-118.1
524,1715374797510,-4.42,0.55,0.23,-32.35,-59.2,-118.1
525,1715374797520,-4.7,1.12,-0.06,13.907142857142855,-53.228571428571435,-19.835714285714285
526,1715374797530,-4.7,1.12,-0.06,32.41,-50.84,19.47
527,1715374797540,-4.7,1.12,-0.06,32.41,-50.84,19.47
528,1715374797550,-4.7,1.12,-0.06,32.41,-50.839999999999996,19.47
529,1715374797560,-4.7,1.12,-0.06,32.41,-50.84,19.47
530,1715374797570,-4.7,1.12,-0.06,32.41,-50.839999999999996,19.47
531,1715374797580,-4.7,1.12,-0.06,32.41,-50.84,19.47
532,1715374797590,-3.745,0.02874999999999997,-0.14750000000000002,87.36250000000001,-175.85375,188.76749999999998
533,1715374797600,-2.18,-1.32,-0.86,160.52,-183.47,414.06
534,1715374797610,-2.18,-1.32,-0.86,160.52,-183.47,414.06
535,1715374797620,-2.18,-1.32,-0.86,160.52,-183.47,414.06
536,1715374797630,-1.3662500000000002,-1.8900000000000001,-1.18625,149.42000000000002,-167.5175,503.02874999999995
537,1715374797640,-0.01,-2.84,-1.73,130.92,-140.93,651.3100000000001
538,1715374797650,-0.01,-2.84,-1.73,130.92,-140.93,651.31
539,1715374797660,-0.01,-2.84,-1.73,130.92,-140.93,651.31
540,1715374797670,0.75,-3.394285714285714,-1.592857142857143,98.8342857142857,-142.74428571428572,636.3985714285715
541,1715374797680,1.32,-3.81,-1.49,18.62,-147.28,599.12
542,1715374797690,1.32,-3.81,-1.49,18.62,-147.28,599.12
543,1715374797700,1.32,-3.81,-1.49,18.62,-147.28,599.12
544,1715374797710,1.1771428571428573,-3.6957142857142857,-0.8471428571428571,11.29142857142857,-95.65857142857143,501.6842857142857
545,1715374797720,1.12,-3.65,-0.59,8.36,-75.01,462.71
546,1715374797730,1.12,-3.65,-0.59,8.36,-75.01,462.71
547,1715374797740,1.12,-3.65,-0.59,8.36,-75.01,462.71
548,1715374797750,0.5800000000000001,-2.9675000000000002,-0.3875,5.3375,-50.792500000000004,414.4175
549,1715374797760,0.4,-2.74,-0.32,4.33,-42.72,398.32
550,1715374797770,0.4,-2.7399999999999998,-0.32,4.33,-42.71999999999999,398.32
551,1715374797780,0.4,-2.74,-0.32,4.33,-42.72,398.32
552,1715374797790,0.15,-2.53,-0.05,-13.79,-54.44,410.16
553,1715374797800,0.15,-2.53,-0.05,-13.79,-54.44,410.16
554,1715374797810,0.15,-2.53,-0.05,-13.790000000000001,-54.44,410.16
555,1715374797820,0.15,-2.53,-0.05,-13.79,-54.44,410.16
556,1715374797830,-0.12,-2.39,0.05,-4.21,-12.27,460.69
557,1715374797840,-0.12,-2.39,0.05,-4.21,-12.27,460.69
558,1715374797850,-0.12,-2.39,0.05,-4.21,-12.27,460.69
559,1715374797860,-0.1425,-2.44,0.022500000000000003,-14.48,-18.9525,471.3575
560,1715374797870,-0.21,-2.59,-0.06,-45.29,-39.0,503.36
561,1715374797880,-0.21,-2.59,-0.06,-45.29,-39.0,503.36
562,1715374797890,-0.21,-2.59,-0.06,-45.29,-39.0,503.36
563,1715374797900,0.805,-2.525,-0.30000000000000004,-43.735,-68.33,459.565
564,1715374797910,1.82,-2.46,-0.54,-42.18,-97.66,415.77
565,1715374797920,1.82,-2.46,-0.54,-42.18,-97.66,415.77
566,1715374797930,1.82,-2.46,-0.54,-42.18,-97.66,415.77
567,1715374797940,3.1914285714285713,-2.882857142857143,-0.7114285714285715,-103.00285714285714,-141.15142857142857,315.70714285714286
568,1715374797950,4.22,-3.2,-0.84,-148.62,-173.77,240.66
569,1715374797960,4.22,-3.2,-0.84,-148.62000000000003,-173.77,240.66
570,1715374797970,4.22,-3.2,-0.84,-148.62,-173.77,240.66
571,1715374797980,4.7825,-3.6575,-0.21,-37.6575,121.21249999999999,315.0
572,1715374797990,4.97,-3.81,0.0,-0.67,219.54,339.78000000000003
573,1715374798000,4.97,-3.81,0.0,-0.67,219.54,339.78
574,1715374798010,4.97,-3.81,0.0,-0.67,219.54,339.78
575,1715374798020,4.738571428571428,-4.418571428571428,-0.9685714285714285,53.57857142857142,9.23142857142857,-70.47428571428571
576,1715374798030,4.7,-4.52,-1.13,62.62,-25.82,-138.85
577,1715374798040,4.7,-4.52,-1.13,62.62,-25.82,-138.85
578,1715374798050,4.40875,-4.5225,-1.1524999999999999,62.62,-25.82,-138.85
579,1715374798060,2.37,-4.54,-1.31,56.90125,14.161249999999999,-308.79999999999995
580,1715374798070,2.37,-4.54,-1.31,53.46999999999999,38.15,-410.77
581,1715374798080,2.37,-4.54,-1.31,53.47,38.15,-410.77
582,1715374798090,2.1825,-4.465,-1.1800000000000002,53.47,38.15,-410.77
583,1715374798100,1.62,-4.24,-0.79,116.09,242.8,-218.32
584,1715374798110,1.6199999999999999,-4.24,-0.79,116.09,242.8,-218.32
585,1715374798120,1.62,-4.24,-0.79,116.09,242.8,-218.32
586,1715374798130,1.2337500000000001,-3.84625,-0.7675000000000001,138.40625,212.51875,-253.43124999999998
587,1715374798140,0.59,-3.19,-0.7299999999999999,175.6,162.05,-311.95
588,1715374798150,0.59,-3.19,-0.73,175.6,162.05,-311.95
589,1715374798160,0.59,-3.19,-0.73,175.6,162.05,-311.95
590,1715374798170,0.4871428571428571,-2.9971428571428573,-0.6357142857142858,177.69142857142856,117.97142857142858,-356.13142857142856
591,1715374798180,0.35,-2.74,-0.51,180.48,59.2,-415.04
592,1715374798190,0.35,-2.74,-0.51,180.48,59.2,-415.04
593,1715374798200,0.35,-2.74,-0.51,180.48,59.2,-415.04
594,1715374798210,0.16714285714285712,-2.6314285714285717,-0.5499999999999999,206.74285714285716,68.69142857142857,-424.42285714285714
595,1715374798220,0.03,-2.55,-0.58,226.44,75.81,-431.46
596,1715374798230,0.03,-2.55,-0.58,226.44,75.81,-431.46
597,1715374798240,0.03,-2.55,-0.58,226.44,75.81000000000002,-431.46
598,1715374798250,-0.16375,-2.35625,-0.76125,217.01500000000001,68.10375,-446.2975
599,1715374798260,-0.28,-2.24,-0.87,211.36,63.48,-455.2
600,1715374798270,-0.28,-2.24,-0.87,211.36,63.48,-455.2
601,1715374798280,-0.28,-2.24,-0.87,211.35999999999999,63.48,-455.2
602,1715374798290,-0.2575,-2.2325,-0.69,158.125,50.9325,-459.8725
603,1715374798300,-0.25,-2.23,-0.63,140.38,46.75,-461.43
604,1715374798310,-0.25,-2.23,-0.63,140.38,46.75,-461.43
605,1715374798320,-0.25,-2.23,-0.63,140.38,46.75,-461.43
606,1715374798330,-0.28,-2.14,-0.58,138.00857142857143,73.2242857142857,-409.6014285714286
607,1715374798340,-0.28,-2.14,-0.58,136.23,93.08,-370.73
608,1715374798350,-0.28,-2.14,-0.58,136.23,93.08,-370.73
609,1715374798360,-0.2557142857142857,-2.108571428571429,-0.5828571428571429,136.23,93.08,-370.73
610,1715374798370,-0.11,-1.92,-0.6,109.63,83.09625,-331.31125000000003
611,1715374798380,-0.11,-1.92,-0.6,105.83,81.67,-325.68
612,1715374798390,-0.11,-1.92,-0.6,105.83,81.67,-325.68
613,1715374798400,-0.125,-1.7999999999999998,-0.56,97.485,68.44,-333.2175
614,1715374798410,-0.14,-1.68,-0.52,72.45,28.75,-355.83
615,1715374798420,-0.14,-1.68,-0.52,72.45,28.75,-355.83
616,1715374798430,-0.14,-1.68,-0.52,72.45,28.75,-355.83
617,1715374798440,-0.32857142857142857,-1.3757142857142857,-0.48142857142857143,56.730000000000004,23.98857142857143,-354.2357142857143
618,1715374798450,-0.58,-0.97,-0.43,35.77,17.64,-352.11
619,1715374798460,-0.58,-0.97,-0.43,35.77,17.64,-352.11
620,1715374798470,-0.58,-0.97,-0.43,35.77,17.64,-352.11
621,1715374798480,-2.1925,0.46249999999999997,-0.5575,12.420000000000002,-9.735,-376.22
622,1715374798490,-2.73,0.9400000000000001,-0.6,-10.929999999999998,-37.11,-400.33
623,1715374798500,-2.73,0.94,-0.6,-10.93,-37.11,-400.33
624,1715374798510,-2.73,0.94,-0.6,-10.93,-37.11,-400.33
625,1715374798520,-5.339999999999999,1.48,-0.2,-22.13,-12.567142857142857,-233.53
626,1715374798530,-5.34,1.48,-0.2,-26.61,-2.75,-166.81
627,1715374798540,-5.34,1.48,-0.2,-26.61,-2.75,-166.81
628,1715374798550,-5.339999999999999,1.48,-0.2,-26.609999999999996,-2.75,-166.81
629,1715374798560,-5.51,1.74,-0.2,-3.05,-94.06,121.89
630,1715374798570,-5.51,1.74,-0.2,-3.05,-94.06,121.89
631,1715374798580,-5.51,1.74,-0.2,-3.05,-94.06000000000002,121.89
632,1715374798590,-5.32625,1.55875,-0.22375,7.447500000000002,-114.91875,138.43
633,1715374798600,-4.04,0.29,-0.39,80.93,-260.93,254.21
634,1715374798610,-4.04,0.29,-0.39,80.93,-260.93,254.21
635,1715374798620,-4.04,0.29,-0.39,80.92999999999999,-260.93,254.21
636,1715374798630,-3.35,-0.44125,-0.8475,85.10375,-268.49,282.98875
637,1715374798640,-2.2,-1.66,-1.61,114.32,-321.41,484.44
638,1715374798650,-2.2,-1.66,-1.61,114.32000000000001,-321.41,484.44
639,1715374798660,-2.2,-1.66,-1.61,114.32,-321.41,484.44
640,1715374798670,-1.115,-2.675,-1.545,114.32,-321.41,484.44
641,1715374798680,-0.03,-3.69,-1.48,43.69142857142857,-341.98857142857145,521.89
642,1715374798690,-0.03,-3.69,-1.48,15.44,-350.22,536.87
643,1715374798700,-0.03,-3.69,-1.48,15.44,-350.22,536.87
644,1715374798710,-0.03,-3.69,-1.48,15.44,-350.22,536.87
645,1715374798720,-0.03,-3.69,-1.48,15.44,-350.22,536.87
646,1715374798730,-0.03,-3.69,-1.48,15.44,-350.21999999999997,536.87
647,1715374798740,0.26,-3.9074999999999998,-1.325,24.03,-315.0025,541.7975
648,1715374798750,1.1349999999999998,-4.415,-0.77,44.415,-174.59,549.6825
649,1715374798760,1.15,-3.98,-0.5,28.26,-70.31,528.99
650,1715374798770,1.15,-3.98,-0.5,28.26,-70.31,528.99
651,1715374798780,1.15,-3.98,-0.5,28.26,-70.31,528.99
652,1715374798790,0.66,-3.14,-0.04,21.48,-48.89,411.68
653,1715374798800,0.66,-3.14,-0.04,21.48,-48.89,411.68
654,1715374798810,0.66,-3.14,-0.04,21.48,-48.89,411.68
655,1715374798820,0.66,-3.14,-0.04,21.48,-48.89,411.68
656,1715374798830,0.66,-3.14,-0.04,21.48,-48.89,411.68
657,1715374798840,0.66,-3.14,-0.04,21.48,-48.89,411.68
658,1715374798850,0.18857142857142858,-2.6514285714285712,0.07142857142857142,12.510000000000002,-26.08142857142857,411.02857142857147
659,1715374798860,0.05,-2.5175,0.14625,-1.7374999999999998,-4.6850000000000005,420.59625
660,1715374798870,-0.05,-2.43,0.24,-5.55,-19.71,437.99000000000007
661,1715374798880,-0.05,-2.43,0.24,-5.55,-19.71,437.99
662,1715374798890,-0.05,-2.43,0.24,-5.55,-19.71,437.99
663,1715374798900,0.034999999999999996,-2.55,0.275,11.475,-41.41,431.365
664,1715374798910,0.12,-2.6699999999999995,0.31,28.5,-63.11,424.74000000000007
665,1715374798920,0.12,-2.67,0.31,28.5,-63.11,424.74
666,1715374798930,0.12,-2.67,0.31,28.5,-63.11,424.74
667,1715374798940,0.6285714285714287,-2.7785714285714285,-0.01,45.14,-104.16142857142856,422.6485714285714
668,1715374798950,1.01,-2.86,-0.25,57.62,-134.95,421.08
669,1715374798960,1.01,-2.86,-0.25,57.62,-134.95,421.08
670,1715374798970,1.01,-2.86,-0.25,57.62,-134.95,421.08
671,1715374798980,2.017142857142857,-3.1028571428571428,-1.1714285714285713,69.16285714285713,-100.66428571428571,350.9085714285714
672,1715374798990,2.42,-3.2,-1.54,77.82,-74.95,298.28
673,1715374799000,2.42,-3.2,-1.54,77.82,-74.95,298.28
674,1715374799010,2.4199999999999995,-3.2,-1.5400000000000003,77.82000000000001,-74.95,298.28000000000003
675,1715374799020,3.32125,-3.64625,-1.82,44.8125,18.71,255.4325
676,1715374799030,3.45,-3.71,-1.86,33.81,49.93,241.15
677,1715374799040,3.45,-3.71,-1.86,33.81,49.93,241.15
678,1715374799050,3.45,-3.71,-1.86,33.81,49.93,241.15
679,1715374799060,6.02,-4.37,-2.35,20.6325,3.7375,22.112500000000004
680,1715374799070,6.02,-4.37,-2.35,16.24,-11.66,-50.9
681,1715374799080,6.0200000000000005,-4.37,-2.35,16.24,-11.66,-50.9
682,1715374799090,5.52,-4.3725000000000005,-2.29,13.706249999999999,17.5225,-83.67625000000001
683,1715374799100,2.02,-4.39,-1.87,-4.03,221.8,-313.11
684,1715374799110,2.02,-4.39,-1.87,-4.03,221.8,-313.11
685,1715374799120,2.02,-4.39,-1.8699999999999999,-4.03,221.8,-313.11
686,1715374799130,1.525,-4.4575,-1.1875,-6.0425,207.67000000000002,-317.1075
687,1715374799140,0.7,-4.57,-0.05,-12.08,165.28,-329.1
688,1715374799150,0.7,-4.57,-0.05,-12.08,165.28,-329.1
689,1715374799160,0.7,-4.57,-0.05,-12.08,165.28,-329.1
690,1715374799170,0.7114285714285714,-3.9471428571428575,-0.021428571428571432,82.33142857142856,191.05714285714285,-298.0942857142857
691,1715374799180,0.72,-3.48,0.0,153.14,210.39,-274.84
692,1715374799190,0.72,-3.48,0.0,153.14000000000001,210.39000000000001,-274.84
693,1715374799200,0.72,-3.48,0.0,153.14,210.39,-274.84
694,1715374799210,0.5675,-3.33,-0.07,174.77749999999997,194.765,-302.26
695,1715374799220,0.11,-2.88,-0.28,239.69,147.89000000000001,-384.52
696,1715374799230,0.11,-2.88,-0.28,239.69,147.89,-384.52
697,1715374799240,0.11,-2.88,-0.28,239.69,147.89000000000001,-384.52
698,1715374799250,0.007999999999999997,-2.896,-0.366,236.882,133.352,-409.89799999999997
699,1715374799260,-0.4,-2.96,-0.71,225.65,75.2,-511.41
700,1715374799270,-0.4,-2.96,-0.71,225.65,75.2,-511.41
701,1715374799280,-0.4,-2.96,-0.71,225.65,75.2,-511.41
702,1715374799290,-0.48,-2.9,-0.7033333333333333,206.1966666666667,92.53333333333335,-477.31666666666666
703,1715374799300,-0.52,-2.87,-0.7,196.47,101.2,-460.27
704,1715374799310,-0.52,-2.87,-0.7,196.47,101.2,-460.27
705,1715374799320,-0.52,-2.87,-0.7,196.47,101.2,-460.27
706,1715374799330,-0.4675,-2.7212500000000004,-0.84,164.69875,62.1575,-457.00625
707,1715374799340,-0.46,-2.7,-0.86,160.16,56.58,-456.54
708,1715374799350,-0.46,-2.7,-0.86,160.16,56.58,-456.54
709,1715374799360,-0.46,-2.7,-0.86,160.16,56.58,-456.54
710,1715374799370,0.07375,-2.9975,-0.755,132.76375,84.72875,-386.3125
711,1715374799380,0.15,-3.04,-0.74,128.85,88.75,-376.28000000000003
712,1715374799390,0.15,-3.04,-0.74,128.85,88.75,-376.28
713,1715374799400,0.11499999999999999,-3.005,-0.78125,134.27375,101.7575,-380.8125
714,1715374799410,-0.13,-2.7600000000000002,-1.07,172.24,192.81,-412.54
715,1715374799420,-0.13,-2.76,-1.07,172.24,192.81,-412.54
716,1715374799430,-0.13,-2.76,-1.07,172.24,192.81,-412.54
717,1715374799440,-0.22142857142857145,-2.654285714285714,-1.072857142857143,172.24,192.81,-412.54
718,1715374799450,-0.45,-2.39,-1.08,104.49,129.15,-480.22
719,1715374799460,-0.45,-2.39,-1.08,104.49,129.15,-480.21999999999997
720,1715374799470,-0.55,-2.285,-1.03,95.58,123.29,-474.95750000000004
721,1715374799480,-0.85,-1.97,-0.88,68.85,105.71,-459.17
722,1715374799490,-0.85,-1.97,-0.88,68.85,105.71,-459.17
723,1715374799500,-0.85,-1.97,-0.88,68.85,105.71,-459.17
724,1715374799510,-2.01,-1.125,-0.77,68.85,105.71,-459.17
725,1715374799520,-3.17,-0.28,-0.66,115.17,123.78,-411.74
726,1715374799530,-3.17,-0.28,-0.66,115.17,123.78,-411.74
727,1715374799540,-3.17,-0.28,-0.66,115.17,123.78,-411.74
728,1715374799550,-5.677142857142856,1.3557142857142854,-0.76,98.61428571428573,84.85714285714286,-314.8014285714286
729,1715374799560,-6.68,2.01,-0.8,76.54,32.96,-185.55
730,1715374799570,-6.68,2.01,-0.8,76.54,32.96,-185.55
731,1715374799580,-6.68,2.01,-0.8,76.54,32.96,-185.55
732,1715374799590,-6.6987499999999995,2.04125,-1.03125,73.79,-105.5525,1.0312499999999982
733,1715374799600,-6.71,2.06,-1.17,72.14,-188.66,112.98
734,1715374799610,-6.71,2.06,-1.17,72.14,-188.66,112.98
735,1715374799620,-6.71,2.06,-1.17,72.14,-188.66,112.98
736,1715374799630,-4.81125,0.47625,-1.73,56.4425,-295.96250000000003,272.96250000000003
737,1715374799640,-4.54,0.25,-1.81,51.21,-331.73,326.29
738,1715374799650,-4.54,0.25,-1.81,51.21,-331.73,326.29
739,1715374799660,-4.54,0.25,-1.81,51.21,-331.73,326.29
740,1715374799670,-2.01,-2.34,-2.39,30.27,-414.55,493.9
741,1715374799680,-2.01,-2.34,-2.39,30.27,-414.55,493.9
742,1715374799690,-2.01,-2.34,-2.39,30.27,-414.55,493.9
743,1715374799700,-1.545,-2.6875,-2.4000000000000004,30.27,-414.55,493.9
744,1715374799710,-0.15,-3.73,-2.43,-32.9,-346.5,585.33
745,1715374799720,-0.15,-3.73,-2.43,-32.9,-346.5,585.33
746,1715374799730,-0.15,-3.73,-2.43,-32.9,-346.5,585.33
747,1715374799740,0.21857142857142856,-4.094285714285714,-2.117142857142857,-28.58428571428571,-313.8514285714286,571.3071428571428
748,1715374799750,0.71,-4.58,-1.7,-22.83,-270.32,552.61
749,1715374799760,0.71,-4.58,-1.7,-22.83,-270.32,552.61
750,1715374799770,0.71,-4.58,-1.7,-22.83,-270.32,552.61
751,1715374799780,0.51,-4.42,-1.2942857142857143,-0.961428571428571,-159.69142857142856,546.4728571428572
752,1715374799790,0.36,-4.3,-0.99,15.44,-76.72,541.87
753,1715374799800,0.36,-4.3,-0.99,15.44,-76.72,541.87
754,1715374799810,0.36,-4.3,-0.99,15.44,-76.72,541.87
755,1715374799820,0.08499999999999999,-3.98125,-0.57125,10.83875,-54.38125,535.50625
756,1715374799830,-0.08,-3.79,-0.32,3.17,-17.15,524.9
757,1715374799840,-0.08,-3.79,-0.32,3.17,-17.15,524.9
758,1715374799850,-0.08,-3.79,-0.32,3.1699999999999995,-17.15,524.9
759,1715374799860,-0.275,-3.3775000000000004,-0.26,-4.06,-10.2875,508.88
760,1715374799870,-0.34,-3.24,-0.24,-6.47,-8.0,503.54
761,1715374799880,-0.34,-3.2399999999999998,-0.24,-6.47,-8.0,503.54
762,1715374799890,-0.34,-3.24,-0.24,-6.47,-8.0,503.54
763,1715374799900,-0.5800000000000001,-3.2325,-0.24,-49.64,-78.215,473.6975
764,1715374799910,-0.66,-3.23,-0.24,-64.03,-101.62,463.75
765,1715374799920,-0.66,-3.23,-0.24,-64.03,-101.62,463.75
766,1715374799930,-0.66,-3.23,-0.24,-64.03,-101.62,463.75
767,1715374799940,0.08285714285714285,-3.3871428571428575,-0.5828571428571429,-32.55142857142857,-196.39857142857142,456.81428571428575
768,1715374799950,0.38,-3.45,-0.72,-19.96,-234.31,454.04
769,1715374799960,0.38,-3.45,-0.72,-19.96,-234.31,454.04
770,1715374799970,0.6737500000000001,-3.44875,-0.7825,-22.14125,-228.33625,442.21500000000003
771,1715374799980,2.73,-3.44,-1.22,-37.410000000000004,-186.52,359.44
772,1715374799990,2.73,-3.44,-1.22,-37.41,-186.52,359.44
773,1715374800000,2.73,-3.44,-1.22,-37.410000000000004,-186.52,359.44
774,1715374800010,2.73,-3.44,-1.22,-37.410000000000004,-186.52,359.44
775,1715374800020,2.73,-3.44,-1.22,-37.410000000000004,-186.52,359.44
776,1715374800030,2.73,-3.44,-1.22,-37.41,-186.52,359.44
777,1715374800040,2.73,-3.44,-1.22,-37.410000000000004,-186.52,359.44
778,1715374800050,4.7625,-3.5125,-2.0975,36.4275,-160.66,224.58249999999998
779,1715374800060,6.11,-3.4,-2.85,56.5025,-168.10500000000002,0.27500000000000036
780,1715374800070,6.11,-3.4,-2.85,54.99,-173.46,-59.51
781,1715374800080,6.11,-3.4,-2.85,54.99,-173.46,-59.51
782,1715374800090,4.985,-3.8875,-2.4562500000000003,36.27,-51.97125000000001,-142.89125
783,1715374800100,3.11,-4.7,-1.8,5.07,150.51,-281.86
784,1715374800110,3.11,-4.7,-1.8,5.07,150.51,-281.86
785,1715374800120,3.11,-4.7,-1.8,5.07,150.51,-281.86
786,1715374800130,3.11,-4.7,-1.8,5.07,150.51,-281.86
787,1715374800140,1.2671428571428571,-4.691428571428572,-0.8742857142857143,-1.5814285714285714,132.82714285714286,-327.5885714285714
788,1715374800150,0.96,-4.69,-0.72,-2.69,129.88,-335.21
789,1715374800160,0.96,-4.69,-0.72,-2.69,129.88,-335.21
790,1715374800170,0.935,-4.24,-0.40125,30.50375,128.01125,-358.09749999999997
791,1715374800180,0.92,-3.97,-0.21,50.42,126.89,-371.83
792,1715374800190,0.92,-3.97,-0.21,50.42,126.89,-371.83
793,1715374800200,0.92,-3.97,-0.21,50.42,126.89,-371.83
794,1715374800210,0.3775,-3.1999999999999997,0.0,133.19500000000002,157.9175,-363.6575
795,1715374800220,0.3,-3.09,0.03,145.02,162.35,-362.49000000000007
796,1715374800230,0.3,-3.09,0.03,145.02,162.35,-362.49
797,1715374800240,0.3,-3.09,0.03,145.02,162.35,-362.49000000000007
798,1715374800250,-0.12875,-2.6174999999999997,-0.0925,176.28750000000002,98.72,-433.7175
799,1715374800260,-0.19,-2.55,-0.11,186.71,77.51,-457.46
800,1715374800270,-0.19,-2.55,-0.11,186.71,77.51,-457.46
801,1715374800280,-0.19,-2.55,-0.11,186.71,77.51,-457.46
802,1715374800290,-0.47,-2.5,-0.24,166.56,82.95,-469.91
803,1715374800300,-0.47,-2.5,-0.24,166.56,82.95,-469.91
804,1715374800310,-0.47,-2.5,-0.24,166.56,82.95,-469.91
805,1715374800320,-0.47857142857142854,-2.462857142857143,-0.25999999999999995,163.38857142857142,76.47857142857143,-466.6671428571429
806,1715374800330,-0.5,-2.37,-0.31,155.46,60.3,-458.56
807,1715374800340,-0.5,-2.37,-0.31,155.46,60.3,-458.56
808,1715374800350,-0.5,-2.37,-0.31,155.46,60.3,-458.56
809,1715374800360,-0.42000000000000004,-2.355,-0.305,137.91,66.895,-451.57
810,1715374800370,-0.34,-2.34,-0.3,120.36,73.49,-444.58
811,1715374800380,-0.34,-2.34,-0.3,120.36,73.49,-444.58
812,1715374800390,-0.34,-2.34,-0.3,120.36,73.49,-444.58
813,1715374800400,-0.27142857142857146,-2.38,-0.31142857142857144,115.28571428571429,81.33571428571429,-431.92
814,1715374800410,-0.22,-2.41,-0.32,102.6,100.95,-400.27
815,1715374800420,-0.22,-2.41,-0.32,102.6,100.95,-400.27
816,1715374800430,-0.22,-2.41,-0.32,102.6,100.95,-400.27
817,1715374800440,-0.13428571428571429,-2.2814285714285716,-0.4057142857142857,90.82857142857142,112.80714285714285,-389.71999999999997
818,1715374800450,-0.1,-2.23,-0.44,86.12,117.55,-385.5
819,1715374800460,-0.1,-2.23,-0.44,86.12,117.55,-385.5
820,1715374800470,-0.10000000000000002,-2.23,-0.44,86.12,117.55,-385.5
821,1715374800480,-0.38,-1.7049999999999998,-0.6325000000000001,82.83875,116.21875,-372.95
822,1715374800490,-0.42,-1.63,-0.66,80.87,115.42,-365.42
823,1715374800500,-0.42,-1.63,-0.66,80.87,115.42,-365.42
824,1715374800510,-0.42,-1.6300000000000001,-0.66,80.87,115.42,-365.42
825,1715374800520,-2.12,-0.11,-1.06,46.5875,79.6225,-389.8625
826,1715374800530,-2.12,-0.11,-1.06,35.16,67.69,-398.01
827,1715374800540,-2.12,-0.11,-1.06,35.16,67.69,-398.00999999999993
828,1715374800550,-2.7675,0.14,-1.1625,41.81999999999999,63.76875,-378.25
829,1715374800560,-4.71,0.89,-1.47,88.44,36.32,-239.93
830,1715374800570,-4.71,0.89,-1.47,88.43999999999998,36.32,-239.93
831,1715374800580,-4.71,0.89,-1.47,88.44,36.32,-239.93
832,1715374800590,-4.80375,1.205,-1.52625,102.79124999999999,25.99625,-128.07500000000002
833,1715374800600,-4.96,1.73,-1.6199999999999999,126.71,8.79,58.35
834,1715374800610,-4.96,1.73,-1.62,126.71,8.79,58.35
835,1715374800620,-4.96,1.73,-1.62,126.71,8.79,58.35
836,1715374800630,-4.617142857142857,1.4728571428571426,-1.727142857142857,110.99,-40.93714285714286,142.31571428571428
837,1715374800640,-4.16,1.13,-1.87,90.03,-107.24,254.27
838,1715374800650,-4.16,1.13,-1.87,90.03,-107.24,254.27
839,1715374800660,-4.16,1.13,-1.87,90.03,-107.24,254.27
840,1715374800670,-2.9671428571428575,0.2228571428571428,-1.9057142857142857,30.694285714285716,-122.3257142857143,429.8771428571428
841,1715374800680,-2.49,-0.14,-1.92,6.96,-128.36,500.12
842,1715374800690,-2.49,-0.14,-1.92,6.96,-128.36,500.12
843,1715374800700,-2.4899999999999998,-0.14,-1.92,6.96,-128.36,500.12
844,1715374800710,-1.5750000000000002,-2.0075,-1.7249999999999999,-120.34,-129.9975,590.48875
845,1715374800720,-1.27,-2.63,-1.66,-196.72,-130.98,644.71
846,1715374800730,-1.27,-2.63,-1.66,-196.72,-130.98,644.71
847,1715374800740,-1.27,-2.63,-1.66,-196.72,-130.98,644.71
848,1715374800750,0.24375000000000002,-5.08,-0.7675,-254.5575,-160.83499999999998,655.0787499999999
849,1715374800760,0.46,-5.43,-0.64,-262.82,-165.1,656.56
850,1715374800770,0.46,-5.43,-0.64,-262.82,-165.1,656.5600000000001
851,1715374800780,0.46,-5.43,-0.64,-262.82,-165.1,656.56
852,1715374800790,0.43,-4.64,-0.36,-198.185,-28.592499999999998,614.0725
853,1715374800800,0.43,-4.64,-0.36,-176.64000000000001,16.91,599.91
854,1715374800810,0.43,-4.64,-0.36,-176.64,16.91,599.91
855,1715374800820,0.42,-4.5375,-0.22999999999999998,-176.64,16.91,599.91
856,1715374800830,0.39,-4.23,0.16,-190.67,-131.04,415.53000000000003
857,1715374800840,0.39,-4.23,0.16,-190.67,-131.04,415.53
858,1715374800850,0.39,-4.23,0.16,-190.67,-131.04,415.53000000000003
859,1715374800860,0.34500000000000003,-3.995,0.1975,-162.92999999999998,-116.4075,415.78749999999997
860,1715374800870,0.21,-3.29,0.31,-79.71,-72.51,416.56
861,1715374800880,0.21,-3.29,0.31,-79.71,-72.51,416.56
862,1715374800890,0.21,-3.29,0.31,-79.71,-72.51,416.56
863,1715374800900,0.2125,-3.0875,0.28,-72.7675,-66.4975,415.905
864,1715374800910,0.22,-2.48,0.19,-51.94,-48.46,413.94
865,1715374800920,0.22,-2.48,0.19,-51.94,-48.46,413.94
866,1715374800930,0.22,-2.48,0.19,-51.94,-48.46,413.94
867,1715374800940,0.43,-2.31,0.18,-46.175,-35.34,414.03
868,1715374800950,0.64,-2.14,0.17,-40.41,-22.22,414.12
869,1715374800960,0.64,-2.14,0.17,-40.410000000000004,-22.22,414.12
870,1715374800970,0.64,-2.14,0.17,-40.41,-22.22,414.12
871,1715374800980,0.99625,-2.12125,0.095,-45.2,-15.78,400.145
872,1715374800990,1.21,-2.11,0.05,-49.99,-9.34,386.17
873,1715374801000,1.2099999999999997,-2.11,0.05,-49.99,-9.34,386.17
874,1715374801010,2.00375,-2.6350000000000002,-0.11875,-73.10875,-25.665,357.06375
875,1715374801020,2.48,-2.95,-0.22,-86.98,-35.46,339.6
876,1715374801030,2.48,-2.95,-0.22,-86.98,-35.46,339.6
877,1715374801040,2.48,-2.95,-0.22,-86.98,-35.46,339.6
878,1715374801050,3.9275,-4.1575,-0.0475,-79.15,42.9525,265.7625
879,1715374801060,4.41,-4.56,0.01,-76.54,69.09,241.15
880,1715374801070,4.41,-4.56,0.01,-76.54,69.09,241.15
881,1715374801080,4.41,-4.56,0.01,-76.54,69.09,241.15
882,1715374801090,3.67,-5.53,-0.23,-4.821250000000002,38.915,0.8625000000000007
883,1715374801100,3.6699999999999995,-5.53,-0.23,38.21,20.81,-143.31
884,1715374801110,3.6699999999999995,-5.53,-0.23,38.21,20.81,-143.31
885,1715374801120,3.67,-5.53,-0.23,38.21,20.81,-143.31
886,1715374801130,1.28,-4.63,-0.39,148.25,61.77,-300.48
887,1715374801140,1.28,-4.63,-0.39,148.25,61.77,-300.48
888,1715374801150,1.28,-4.63,-0.39,148.25,61.77,-300.48
889,1715374801160,1.20125,-4.52875,-0.3275,151.37875,65.08875,-294.71125
890,1715374801170,0.65,-3.82,0.11,173.28,88.32000000000001,-254.33
891,1715374801180,0.65,-3.82,0.11,173.28,88.32,-254.33
892,1715374801190,0.65,-3.82,0.11,173.28,88.32,-254.33
893,1715374801200,0.6057142857142858,-3.7199999999999998,0.14714285714285716,173.28,88.32000000000001,-254.33
894,1715374801210,0.34,-3.12,0.37,238.4,21.24,-337.65
895,1715374801220,0.34,-3.12,0.37,238.4,21.24,-337.65
896,1715374801230,0.34,-3.12,0.37,238.4,21.24,-337.65
897,1715374801240,0.27375000000000005,-3.0475000000000003,0.325,244.595,17.6925,-344.08124999999995
898,1715374801250,-0.19,-2.54,0.01,287.96,-7.14,-389.1
899,1715374801260,-0.19,-2.54,0.01,287.96,-7.14,-389.1
900,1715374801270,-0.19,-2.54,0.01,287.96,-7.14,-389.1
901,1715374801280,-0.19,-2.54,0.01,287.96,-7.14,-389.1
902,1715374801290,-0.19,-2.54,0.01,287.96,-7.14,-389.1
903,1715374801300,-0.19,-2.54,0.01,287.96,-7.14,-389.1
904,1715374801310,-0.4471428571428571,-2.3771428571428572,-0.3071428571428571,283.04857142857145,-39.31714285714286,-447.2742857142857
905,1715374801320,-0.4775,-2.3625000000000003,-0.37875000000000003,256.36625000000004,-44.86375,-467.6125
906,1715374801330,-0.47,-2.37,-0.39,213.26,-45.17,-485.35
907,1715374801340,-0.47000000000000003,-2.37,-0.39,213.26,-45.17,-485.35
908,1715374801350,-0.47,-2.37,-0.39,213.26,-45.17,-485.35
909,1715374801360,-0.3885714285714285,-2.3871428571428575,-0.38571428571428573,201.87142857142857,-27.34714285714286,-479.85857142857145
910,1715374801370,-0.28,-2.41,-0.38,173.4,17.21,-466.13
911,1715374801380,-0.28,-2.41,-0.38,173.4,17.21,-466.13
912,1715374801390,-0.28,-2.41,-0.38,173.4,17.21,-466.13
913,1715374801400,-0.28,-2.41,-0.38,173.4,17.21,-466.13
914,1715374801410,-0.255,-2.4000000000000004,-0.3775,163.3,31.28,-457.08
915,1715374801420,-0.18,-2.37,-0.37,133.0,73.49,-429.93
916,1715374801430,-0.16999999999999998,-2.334285714285714,-0.37714285714285717,131.21142857142857,75.05857142857143,-424.69
917,1715374801440,-0.11,-2.12,-0.42,120.48,84.47,-393.25
918,1715374801450,-0.11,-2.12,-0.42,120.48,84.47,-393.25
919,1715374801460,-0.11,-2.12,-0.42,120.48,84.47,-393.25
920,1715374801470,-0.155,-1.895,-0.47624999999999995,114.78125,83.77625,-393.62375
921,1715374801480,-0.23,-1.52,-0.57,74.89,78.92,-396.24
922,1715374801490,-0.23,-1.52,-0.57,74.89,78.92,-396.24000000000007
923,1715374801500,-0.23,-1.52,-0.57,74.89,78.92,-396.24
924,1715374801510,-0.5,-1.225,-0.58,52.275,51.51500000000001,-386.535
925,1715374801520,-0.77,-0.93,-0.59,29.66,24.11,-376.83
926,1715374801530,-0.77,-0.93,-0.59,29.66,24.11,-376.83
927,1715374801540,-0.7700000000000001,-0.93,-0.59,29.66,24.109999999999996,-376.83
928,1715374801550,-2.435,0.38249999999999995,-0.5974999999999999,47.2475,-6.37125,-367.52375
929,1715374801560,-2.99,0.82,-0.6,57.8,-24.66,-361.94
930,1715374801570,-2.9899999999999998,0.82,-0.6,57.8,-24.66,-361.94
931,1715374801580,-2.99,0.82,-0.6,57.8,-24.66,-361.94
932,1715374801590,-5.17,1.3,-0.64,34.55,-123.05,-205.99
933,1715374801600,-5.17,1.3,-0.64,34.55,-123.05,-205.99
934,1715374801610,-5.17,1.3,-0.64,34.55,-123.05,-205.99
935,1715374801620,-5.1825,1.27625,-0.65,34.55,-123.05,-205.99
936,1715374801630,-5.27,1.11,-0.72,121.34,-175.42,85.57
937,1715374801640,-5.27,1.11,-0.72,121.34,-175.42,85.57
938,1715374801650,-5.2700000000000005,1.11,-0.72,121.34,-175.42,85.57000000000001
939,1715374801660,-4.3149999999999995,0.5800000000000001,-0.985,122.79,-182.6975,153.2575
940,1715374801670,-3.36,0.05,-1.25,127.14,-204.53,356.32
941,1715374801680,-3.36,0.05,-1.25,127.14,-204.53,356.32
942,1715374801690,-3.36,0.05,-1.25,127.14,-204.53,356.32
943,1715374801700,-2.1314285714285712,-1.2857142857142858,-1.3499999999999999,107.31142857142858,-213.09285714285716,401.2257142857143
944,1715374801710,-1.64,-1.82,-1.39,57.74,-234.5,513.49
945,1715374801720,-1.64,-1.82,-1.39,57.74,-234.5,513.49
946,1715374801730,-1.64,-1.82,-1.39,57.74,-234.5,513.49
947,1715374801740,-0.59,-2.86,-1.2599999999999998,12.36,-245.85,544.0699999999999
948,1715374801750,0.46,-3.9,-1.13,-33.02,-257.2,574.65
949,1715374801760,0.46,-3.9,-1.13,-33.02,-257.2,574.65
950,1715374801770,0.46,-3.9,-1.13,-33.02,-257.2,574.65
951,1715374801780,1.52,-4.31,-0.48,23.5,-212.52,484.25
952,1715374801790,1.52,-4.31,-0.48,23.5,-212.52,484.25
953,1715374801800,1.52,-4.31,-0.48,23.5,-212.52,484.25
954,1715374801810,1.52,-4.31,-0.48,23.5,-212.52,484.25
955,1715374801820,0.83,-3.55,-0.28,72.02,-60.55,503.54
956,1715374801830,0.83,-3.55,-0.28,72.02,-60.55,503.54
957,1715374801840,0.83,-3.55,-0.28,72.02,-60.55,503.54
958,1715374801850,0.7385714285714285,-3.4499999999999997,-0.24285714285714288,65.38428571428571,-68.78,493.5128571428572
959,1715374801860,0.51,-3.2,-0.15,25.57,-118.16,433.35
960,1715374801870,0.51,-3.2,-0.15,25.57,-118.16,433.35
961,1715374801880,0.51,-3.2,-0.15,25.57,-118.16,433.35
962,1715374801890,0.51,-3.2,-0.15,25.57,-118.16,433.35
963,1715374801900,0.45,-2.73,-0.32,50.11,-48.34,491.46
964,1715374801910,0.45,-2.73,-0.32,50.11,-48.34,491.46
965,1715374801920,0.45,-2.73,-0.32,50.11,-48.339999999999996,491.46
966,1715374801930,0.44875,-2.73625,-0.3325,43.70125,-50.45375,488.89625
967,1715374801940,0.44,-2.78,-0.42,-1.16,-65.25,470.95
968,1715374801950,0.44,-2.78,-0.42,-1.16,-65.25,470.95
969,1715374801960,0.44,-2.78,-0.42,-1.16,-65.25,470.95
970,1715374801970,0.835,-2.9299999999999997,-0.265,-1.16,-65.25,470.95
971,1715374801980,1.23,-3.0800000000000005,-0.11,41.99,-26.25,503.11
972,1715374801990,1.23,-3.08,-0.11,41.99,-26.25,503.11
973,1715374802000,1.23,-3.08,-0.11,41.99,-26.25,503.11
974,1715374802010,1.7142857142857142,-3.1614285714285715,-0.7057142857142856,53.65571428571428,-45.08142857142857,475.5142857142858
975,1715374802020,2.36,-3.27,-1.5,69.21,-70.19,438.72
976,1715374802030,2.36,-3.27,-1.5,69.21,-70.19,438.72
977,1715374802040,4.314285714285714,-3.792857142857143,-1.7314285714285715,62.27285714285714,-27.25857142857143,366.56
978,1715374802050,4.64,-3.88,-1.77,57.07,4.94,312.44
979,1715374802060,4.64,-3.88,-1.77,57.07,4.94,312.44
980,1715374802070,4.64,-3.88,-1.77,57.07,4.94,312.44
981,1715374802080,4.92,-4.87,-0.97,158.77714285714288,162.6757142857143,289.11857142857144
982,1715374802090,4.92,-4.87,-0.97,199.46,225.77,279.79
983,1715374802100,4.92,-4.87,-0.97,199.46,225.77,279.79
984,1715374802110,4.92,-4.87,-0.97,199.46,225.77,279.79
985,1715374802120,2.88,-5.041428571428571,-0.3271428571428571,139.46,58.721428571428575,-163.79857142857142
986,1715374802130,2.54,-5.07,-0.22,129.46,30.88,-237.73
987,1715374802140,2.54,-5.07,-0.22,129.46,30.88,-237.73
988,1715374802150,2.3225000000000002,-5.035,-0.135,139.01875,42.385,-244.89375
989,1715374802160,0.8,-4.79,0.46,205.93,122.92,-295.04
990,1715374802170,0.8,-4.79,0.46,205.93,122.92,-295.04
991,1715374802180,0.8,-4.79,0.46,205.93,122.92,-295.04
992,1715374802190,0.5257142857142857,-4.404285714285714,0.48857142857142855,219.07857142857142,100.51142857142858,-315.68857142857144
993,1715374802200,-0.16,-3.44,0.56,251.95,44.49,-367.31
994,1715374802210,-0.16,-3.44,0.56,251.95,44.49,-367.31
995,1715374802220,-0.16,-3.44,0.56,251.95,44.49,-367.31
996,1715374802230,-0.29500000000000004,-3.0575,0.49250000000000005,252.50125,5.148750000000001,-386.8325
997,1715374802240,-0.52,-2.4199999999999995,0.38,253.42,-60.42,-419.37
998,1715374802250,-0.52,-2.42,0.38,253.42,-60.42,-419.37
999,1715374802260,-0.52,-2.4199999999999995,0.38,253.42,-60.42,-419.37
1000,1715374802270,-0.5414285714285715,-2.3428571428571425,0.32857142857142857,242.0142857142857,-76.70857142857143,-434.63
1001,1715374802280,-0.57,-2.24,0.26,213.5,-117.43,-472.78
