id,timestamp,acc_x,acc_y,acc_z,gyro_x,gyro_y,gyro_z
0,1715374698140,0.11,0.23,0.96,0.31,-32.35,-9.77
1,1715374698150,0.18875,0.3175,1.03875,-9.14875,-20.87,25.16
2,1715374698160,0.2,0.33,1.05,-10.5,-19.23,30.15
3,1715374698170,0.2,0.33,1.05,-10.5,-19.23,30.15
4,1715374698180,0.2,0.33,1.05,-10.5,-19.23,30.15
5,1715374698190,0.1825,0.33,1.1199999999999999,-22.59375,-4.005,11.99375
6,1715374698200,0.18,0.33,1.13,-29.85,5.13,1.1
7,1715374698210,0.18,0.33,1.13,-29.85,5.13,1.1
8,1715374698220,0.18,0.33,1.13,-29.85,5.13,1.1
9,1715374698230,0.11875,0.2775,0.92875,-20.8725,-10.78625,-12.095
10,1715374698240,0.11,0.27,0.9,-19.59,-13.06,-13.98
11,1715374698250,0.11,0.27,0.9,-19.59,-13.06,-13.98
12,1715374698260,0.12142857142857143,0.2557142857142857,0.84,-17.044285714285714,-25.617142857142856,-9.271428571428572
13,1715374698270,0.15,0.22,0.69,-10.68,-57.01,2.5
14,1715374698280,0.15,0.22,0.69,-10.68,-57.01,2.5
15,1715374698290,0.15,0.22,0.69,-10.68,-57.01,2.5
16,1715374698300,0.1757142857142857,0.14714285714285716,0.5528571428571428,-30.21857142857143,-44.32,15.73857142857143
17,1715374698310,0.21,0.05,0.37,-56.27,-27.4,33.39
18,1715374698320,0.21,0.05,0.37,-56.27,-27.4,33.39
19,1715374698330,0.21,0.05,0.37,-56.27,-27.4,33.39
20,1715374698340,0.22999999999999998,0.015000000000000001,-0.024999999999999994,-71.35000000000001,-38.815,30.52
21,1715374698350,0.25,-0.02,-0.42000000000000004,-86.43,-50.23,27.65
22,1715374698360,0.25,-0.02,-0.42,-86.43,-50.23,27.65
23,1715374698370,0.25,-0.02,-0.42,-86.43,-50.23,27.65
24,1715374698380,0.28125,-0.33875,-0.6637500000000001,-104.80000000000001,-110.41,25.145
25,1715374698390,0.3,-0.53,-0.81,-123.17,-170.59,22.64
26,1715374698400,0.3,-0.53,-0.81,-123.17,-170.59,22.64
27,1715374698410,0.3,-0.53,-0.8099999999999999,-123.17,-170.59,22.640000000000004
28,1715374698420,0.64125,-0.8712500000000001,-0.6174999999999999,-200.7125,-216.36125,43.902499999999996
29,1715374698430,0.6900000000000001,-0.92,-0.59,-211.79,-222.9,46.94
30,1715374698440,0.69,-0.92,-0.59,-211.79,-222.9,46.94
31,1715374698450,0.69,-0.92,-0.59,-211.79,-222.9,46.94
32,1715374698460,1.032857142857143,-1.5371428571428571,-0.49571428571428566,-292.61857142857144,-229.8785714285714,45.49714285714286
33,1715374698470,1.09,-1.64,-0.48,-324.95,-232.67,44.92
34,1715374698480,1.09,-1.64,-0.48,-324.95,-232.67,44.92
35,1715374698490,1.09,-1.64,-0.48,-324.95,-232.67,44.92
36,1715374698500,1.42,-2.3300000000000005,-0.08,-333.74000000000007,-280.58,72.57
37,1715374698510,1.42,-2.3300000000000005,-0.08,-333.74000000000007,-280.58,72.57
38,1715374698520,1.42,-2.33,-0.08,-333.74,-280.58,72.57
39,1715374698530,1.42,-2.3300000000000005,-0.08,-333.74000000000007,-280.58,72.57
40,1715374698540,2.06,-3.06,-0.03,-356.02,-296.45,142.09
41,1715374698550,2.06,-3.06,-0.03,-356.02,-296.45,142.09
42,1715374698560,2.06,-3.06,-0.03,-356.02,-296.45,142.09
43,1715374698570,2.19625,-3.0975,0.1575,-356.02,-296.45,142.09
44,1715374698580,3.15,-3.36,1.47,-442.08,-181.27,204.41
45,1715374698590,3.15,-3.36,1.47,-442.08,-181.27,204.41
46,1715374698600,3.15,-3.36,1.47,-442.08,-181.27,204.41
47,1715374698610,2.9975,-3.0374999999999996,1.6225,-442.3225,-99.14750000000001,183.565
48,1715374698620,2.54,-2.07,2.08,-443.05,147.22,121.03
49,1715374698630,2.54,-2.07,2.08,-443.05,147.22,121.03
50,1715374698640,2.54,-2.07,2.08,-443.05,147.22,121.03
51,1715374698650,1.715,-1.93,1.9500000000000002,-314.08500000000004,95.58500000000001,46.325
52,1715374698660,0.89,-1.79,1.82,-185.12,43.95000000000001,-28.38
53,1715374698670,0.89,-1.79,1.82,-185.12,43.95,-28.38
54,1715374698680,0.89,-1.79,1.82,-185.12,43.95,-28.38
55,1715374698690,0.81125,-1.415,1.96625,-141.86,64.32,-9.17625
56,1715374698700,0.68,-0.79,2.21,-69.76,98.27,22.830000000000002
57,1715374698710,0.68,-0.79,2.21,-69.76,98.27,22.83
58,1715374698720,0.68,-0.79,2.21,-69.76,98.27,22.83
59,1715374698730,0.45142857142857146,-0.2542857142857143,2.031428571428571,-35.59857142857143,96.25571428571428,6.8999999999999995
60,1715374698740,0.36,-0.04,1.96,9.95,93.57,-14.34
61,1715374698750,0.36,-0.04,1.9599999999999997,9.95,93.57000000000001,-14.34
62,1715374698760,0.36,-0.04,1.96,9.95,93.57,-14.34
63,1715374698770,0.27875,-0.20249999999999999,2.1599999999999997,107.9125,87.0075,-32.42125
64,1715374698780,0.23,-0.3,2.28,166.69,83.07000000000001,-43.27
65,1715374698790,0.23,-0.3,2.28,166.69,83.07,-43.27
66,1715374698800,0.23,-0.3,2.28,166.69,83.07,-43.27
67,1715374698810,0.71,-0.44,1.86,243.64624999999998,141.7125,-26.28625
68,1715374698820,0.71,-0.44,1.86,254.64000000000001,150.09,-23.859999999999996
69,1715374698830,0.71,-0.44,1.86,254.64,150.09,-23.86
70,1715374698840,0.83,-0.6475,1.7875,270.815,162.005,-30.85
71,1715374698850,1.19,-1.27,1.57,319.34,197.75,-51.82
72,1715374698860,1.19,-1.27,1.57,319.34,197.75,-51.82
73,1715374698870,1.19,-1.27,1.57,319.34,197.75,-51.82
74,1715374698880,1.19,-1.27,1.57,319.34,197.75,-51.82
75,1715374698890,1.19,-1.27,1.57,319.34,197.75,-51.82
76,1715374698900,1.4475,-1.4625,1.605,328.9675,220.975,-53.575
77,1715374698910,2.22,-2.04,1.7099999999999997,357.85,290.65,-58.839999999999996
78,1715374698920,2.5057142857142862,-2.6685714285714286,1.807142857142857,323.6671428571429,341.67285714285714,-52.59428571428571
79,1715374698930,2.72,-3.14,1.88,298.03,379.94,-47.91
80,1715374698940,2.72,-3.14,1.88,298.03,379.94,-47.91
81,1715374698950,2.72,-3.14,1.8800000000000001,298.03000000000003,379.94,-47.910000000000004
82,1715374698960,2.72,-3.14,1.88,298.03,379.94,-47.91
83,1715374698970,2.72,-3.14,1.88,298.03,379.94,-47.91
84,1715374698980,2.9285714285714284,-3.197142857142857,1.8657142857142854,366.7214285714286,338.0,-56.629999999999995
85,1715374698990,3.45,-3.34,1.83,538.45,233.15,-78.43
86,1715374699000,3.45,-3.34,1.83,538.45,233.15,-78.43
87,1715374699010,2.404285714285714,-3.031428571428571,0.7928571428571428,486.7128571428571,283.6871428571429,-47.98428571428571
88,1715374699020,2.23,-2.98,0.62,478.09,292.11,-42.91
89,1715374699030,2.23,-2.98,0.62,478.09,292.11,-42.91
90,1715374699040,0.52,-1.73,-1.48,465.52,118.84,18.62
91,1715374699050,0.52,-1.73,-1.48,465.52,118.84,18.62
92,1715374699060,0.52,-1.73,-1.48,465.52,118.84,18.62
93,1715374699070,0.52,-1.73,-1.48,465.52,118.84,18.62
94,1715374699080,-0.97,-0.39,-3.08,403.5,-122.74,-32.04
95,1715374699090,-0.97,-0.39,-3.08,403.5,-122.74,-32.04
96,1715374699100,-0.97,-0.39,-3.08,403.5,-122.74,-32.04
97,1715374699110,-1.1414285714285715,-0.5357142857142857,-3.0828571428571427,279.6171428571428,-130.02857142857144,13.682857142857141
98,1715374699120,-1.57,-0.9,-3.09,-30.09,-148.25,127.99
99,1715374699130,-1.57,-0.9,-3.09,-30.09,-148.25,127.99
100,1715374699140,-1.57,-0.9,-3.09,-30.09,-148.25,127.99
101,1715374699150,-0.7814285714285715,-1.195714285714286,-2.3871428571428575,-158.44714285714284,-166.37857142857143,217.86999999999998
102,1715374699160,0.27,-1.59,-1.45,-329.59,-190.55,337.71
103,1715374699170,0.27,-1.59,-1.45,-329.59,-190.55,337.71
104,1715374699180,0.27,-1.59,-1.45,-329.59,-190.55,337.71
105,1715374699190,1.08,-1.3425,-0.9175,-343.3225,-220.445,333.1275
106,1715374699200,1.35,-1.26,-0.74,-347.9,-230.41,331.6
107,1715374699210,1.35,-1.26,-0.74,-347.9,-230.41,331.6
108,1715374699220,1.35,-1.26,-0.74,-347.9,-230.41,331.6
109,1715374699230,1.26,-1.2075,-0.575,-329.9075,-242.53750000000002,245.1775
110,1715374699240,1.23,-1.19,-0.52,-323.91,-246.58,216.37
111,1715374699250,1.23,-1.19,-0.52,-323.91,-246.58,216.37
112,1715374699260,1.23,-1.19,-0.52,-323.91,-246.58,216.37
113,1715374699270,1.22,-1.43,-0.19,-310.85,-270.87,201.35
114,1715374699280,1.22,-1.43,-0.19,-310.85,-270.87,201.35
115,1715374699290,1.22,-1.43,-0.19,-310.85,-270.87,201.35
116,1715374699300,1.2462499999999999,-1.4324999999999999,-0.16875,-310.85,-270.87,201.35
117,1715374699310,1.43,-1.45,-0.02,-340.45,-250.92,203.8
118,1715374699320,1.43,-1.45,-0.02,-340.45,-250.92,203.8
119,1715374699330,1.43,-1.45,-0.02,-340.45,-250.92,203.8
120,1715374699340,1.4814285714285713,-1.6014285714285712,-0.060000000000000005,-340.45,-250.92,203.8
121,1715374699350,1.61,-1.98,-0.16,-295.59,-226.26,155.21
122,1715374699360,1.61,-1.98,-0.16,-295.59,-226.26,155.21
123,1715374699370,1.61,-1.98,-0.16,-295.59,-226.26,155.21
124,1715374699380,2.132857142857143,-2.4214285714285713,-0.1642857142857143,-292.8528571428571,-233.45285714285714,172.1
125,1715374699390,2.83,-3.01,-0.17,-276.43,-276.61,273.44
126,1715374699400,2.83,-3.01,-0.17,-276.43,-276.61,273.44
127,1715374699410,2.83,-3.01,-0.17,-276.43,-276.61,273.44
128,1715374699420,3.4757142857142855,-2.3728571428571428,0.647142857142857,-267.0128571428572,-247.52142857142857,256.28000000000003
129,1715374699430,5.09,-0.78,2.69,-243.47,-174.8,213.38
130,1715374699440,5.09,-0.78,2.69,-243.47,-174.8,213.38
131,1715374699450,5.09,-0.78,2.69,-243.47,-174.8,213.38
132,1715374699460,3.5242857142857145,-1.5571428571428572,1.8900000000000001,-145.74428571428572,95.87999999999998,29.717142857142854
133,1715374699470,2.35,-2.14,1.29,-72.45,298.89,-108.03
134,1715374699480,2.35,-2.14,1.29,-72.45,298.89,-108.03
135,1715374699490,2.35,-2.14,1.2900000000000003,-72.45,298.89,-108.03
136,1715374699500,2.0125,-1.7200000000000002,0.6075,74.175,190.4025,-42.1575
137,1715374699510,1.9,-1.58,0.38,123.05,154.24,-20.2
138,1715374699520,1.9,-1.58,0.38,123.05,154.24,-20.2
139,1715374699530,1.9,-1.58,0.38,123.05,154.24,-20.2
140,1715374699540,1.9,-1.58,0.38,123.05,154.24,-20.2
141,1715374699550,1.8999999999999997,-1.4933333333333334,0.44,132.785,149.38666666666668,-35.97833333333333
142,1715374699560,1.9,-1.06,0.74,181.46,125.12,-114.87
143,1715374699570,1.9,-1.06,0.74,181.46,125.12,-114.87
144,1715374699580,1.5062499999999999,-0.98125,0.5650000000000001,187.25375,166.9325,-118.07625
145,1715374699590,1.45,-0.97,0.54,190.73,192.02,-120.0
146,1715374699600,1.45,-0.97,0.54,190.73,192.02,-120.0
147,1715374699610,1.4416666666666667,-0.8966666666666666,0.5466666666666667,190.73,192.02,-120.0
148,1715374699620,1.4,-0.53,0.58,186.16,200.56,-139.53
149,1715374699630,1.4,-0.53,0.58,186.16,200.56,-139.53
150,1715374699640,1.4,-0.53,0.58,186.16,200.56,-139.53
151,1715374699650,1.435,-0.5975,0.6174999999999999,194.7575,206.69375,-148.32625000000002
152,1715374699660,1.54,-0.8,0.73,254.94,249.63,-209.9
153,1715374699670,1.54,-0.8,0.73,254.94,249.63,-209.9
154,1715374699680,1.5400000000000003,-0.8,0.7299999999999999,254.94,249.62999999999997,-209.9
155,1715374699690,1.675,-0.7925,0.47875,273.29625,274.87874999999997,-230.2475
156,1715374699700,1.9,-0.78,0.06,303.89,316.96,-264.16
157,1715374699710,1.9,-0.78,0.06,303.89,316.96,-264.16
158,1715374699720,1.9,-0.78,0.06,303.89,316.96,-264.16
159,1715374699730,1.69375,-1.08625,-0.18375000000000002,339.78125,282.71875,-297.3025
160,1715374699740,1.57,-1.27,-0.33,399.6,225.65,-352.54
161,1715374699750,1.57,-1.27,-0.33,399.6,225.65,-352.54
162,1715374699760,1.57,-1.27,-0.33,399.6,225.65,-352.54
163,1715374699770,1.7950000000000002,-1.03,-0.2475,427.5675,164.07500000000002,-411.2275
164,1715374699780,1.87,-0.95,-0.22,436.89,143.55,-430.79
165,1715374699790,1.8699999999999999,-0.95,-0.22,436.89,143.55,-430.79
166,1715374699800,1.87,-0.95,-0.22,436.89,143.55,-430.79
167,1715374699810,1.1700000000000002,-0.80125,-0.50875,319.28375,183.0,-429.41499999999996
168,1715374699820,1.07,-0.78,-0.55,248.72,206.67,-428.59
169,1715374699830,1.07,-0.78,-0.55,248.72,206.67,-428.59
170,1715374699840,0.17857142857142858,-0.5142857142857142,-0.6271428571428572,203.68428571428572,156.00571428571428,-384.4685714285714
171,1715374699850,0.03,-0.47,-0.64,185.67,135.74,-366.82
172,1715374699860,0.03,-0.47000000000000003,-0.64,185.67,135.74,-366.82
173,1715374699870,-0.10125,-0.41624999999999995,-0.6025,185.67,135.74,-366.82
174,1715374699880,-1.02,-0.04,-0.34,129.21,36.13,-234.13
175,1715374699890,-1.02,-0.04,-0.34,129.21,36.13,-234.12999999999997
176,1715374699900,-1.02,-0.04,-0.34,129.21,36.13,-234.13
177,1715374699910,-1.2075,-0.125,-0.325,121.9625,27.806250000000002,-212.34
178,1715374699920,-1.77,-0.38,-0.28,71.23,-30.46,-59.81
179,1715374699930,-1.77,-0.38,-0.28,71.23,-30.46,-59.81
180,1715374699940,-1.77,-0.38,-0.28,71.23,-30.46,-59.81
181,1715374699950,-1.51875,-0.83375,-0.3175,72.435,-42.8575,-14.065000000000005
182,1715374699960,-1.1,-1.59,-0.38,80.87,-129.64,306.15
183,1715374699970,-1.1,-1.59,-0.38,80.87,-129.64,306.15
184,1715374699980,-1.1,-1.59,-0.38,80.87,-129.64,306.15
185,1715374699990,-0.13500000000000006,-1.9,-0.31,16.660000000000004,-82.55,469.085
186,1715374700000,0.83,-2.21,-0.24,-47.55,-35.46,632.02
187,1715374700010,0.83,-2.21,-0.24,-47.55,-35.46,632.0199999999999
188,1715374700020,0.83,-2.21,-0.24,-47.55,-35.46,632.02
189,1715374700030,1.6728571428571428,-2.2885714285714287,-0.6828571428571429,-175.89285714285714,-21.860000000000003,672.7842857142857
190,1715374700040,2.01,-2.32,-0.86,-227.23,-16.42,689.09
191,1715374700050,2.01,-2.32,-0.86,-227.23,-16.42,689.09
192,1715374700060,2.01,-2.32,-0.86,-227.23,-16.42,689.09
193,1715374700070,2.13,-2.2525,-0.6575,-219.755,-80.11000000000001,664.4000000000001
194,1715374700080,2.17,-2.23,-0.59,-212.28,-143.8,639.71
195,1715374700090,2.17,-2.23,-0.59,-212.28,-143.8,639.71
196,1715374700100,2.1,-2.0475,-0.725,-229.08,-146.5625,583.405
197,1715374700110,1.89,-1.5,-1.13,-279.48,-154.85,414.49000000000007
198,1715374700120,1.89,-1.5,-1.13,-279.48,-154.85,414.49
199,1715374700130,1.89,-1.5,-1.13,-279.48,-154.85,414.49
200,1715374700140,1.89,-1.5,-1.13,-279.48,-154.85,414.49000000000007
201,1715374700150,2.23,-2.39,-0.14,-226.7175,-333.6475,401.13750000000005
202,1715374700160,2.23,-2.39,-0.14,-219.18,-359.19,399.23
203,1715374700170,2.23,-2.39,-0.14,-219.18,-359.19,399.23
204,1715374700180,2.23,-2.39,-0.14,-219.18,-359.19,399.23
205,1715374700190,2.5075000000000003,-2.075,0.17500000000000002,-159.85500000000002,-293.77500000000003,417.4475
206,1715374700200,2.6,-1.97,0.28,-140.08,-271.97,423.52
207,1715374700210,2.6,-1.97,0.28,-140.08,-271.97,423.52
208,1715374700220,2.6225,-1.9849999999999999,0.1975,-134.9375,-255.0475,415.0525
209,1715374700230,2.69,-2.03,-0.05,-119.51,-204.28,389.65
210,1715374700240,2.69,-2.03,-0.05,-119.51,-204.28,389.65
211,1715374700250,2.69,-2.03,-0.05,-119.51,-204.28,389.65
212,1715374700260,3.1025,-1.24875,0.6812500000000001,-92.53,-230.52499999999998,377.53499999999997
213,1715374700270,3.35,-0.78,1.12,-65.55,-256.77,365.42
214,1715374700280,3.35,-0.78,1.12,-65.55,-256.77,365.42
215,1715374700290,3.35,-0.78,1.12,-65.55,-256.77,365.42
216,1715374700300,3.35,-0.78,1.12,-65.55,-256.77,365.42
217,1715374700310,3.35,-0.78,1.12,-65.55,-256.77,365.42
218,1715374700320,2.88,-0.29,1.3,81.67,7.32,-100.52
219,1715374700330,2.88,-0.29,1.3,81.67,7.32,-100.52
220,1715374700340,2.88,-0.29,1.3,81.67,7.32,-100.52
221,1715374700350,2.88,-0.29,1.3,81.67,7.32,-100.52
222,1715374700360,2.3625,-1.5575,0.265,92.33500000000001,134.7225,-119.1575
223,1715374700370,2.19,-1.98,-0.08,95.89,177.19,-125.37
224,1715374700380,2.2425,-1.39375,-0.3425,80.44,122.55875,-131.47
225,1715374700390,2.25,-1.31,-0.38,71.17,89.78,-135.13
226,1715374700400,2.25,-1.31,-0.38,71.17,89.78,-135.13
227,1715374700410,2.25,-1.31,-0.38,71.17,89.78,-135.13
228,1715374700420,1.81,-1.19,0.12,63.37375,71.83375,-210.17
229,1715374700430,1.81,-1.19,0.12,62.26,69.27,-220.89
230,1715374700440,1.81,-1.19,0.12,62.26,69.27,-220.89000000000001
231,1715374700450,1.74875,-1.16,0.11624999999999999,65.8375,75.66375,-221.3475
232,1715374700460,1.32,-0.95,0.09,90.88,120.42,-224.55
233,1715374700470,1.32,-0.95,0.09,90.88,120.42,-224.55
234,1715374700480,1.32,-0.95,0.09,90.88,120.42,-224.55
235,1715374700490,1.26375,-0.7625,0.045,99.12,119.0625,-234.72750000000002
236,1715374700500,1.17,-0.45,-0.03,123.84,114.99,-265.26
237,1715374700510,1.17,-0.45,-0.03,123.84,114.99,-265.26
238,1715374700520,1.17,-0.45,-0.03,123.84,114.99,-265.26
239,1715374700530,1.2575,-0.475,-0.01125,140.5725,110.115,-287.53125
240,1715374700540,1.31,-0.48999999999999994,0.0,168.46,101.99,-324.65
241,1715374700550,1.31,-0.49,0.0,168.46,101.99,-324.65
242,1715374700560,1.31,-0.49,0.0,168.46,101.99,-324.65
243,1715374700570,1.41,-0.62125,-0.043750000000000004,158.885,109.465,-355.625
244,1715374700580,1.47,-0.7,-0.07,153.14000000000001,113.95,-374.21
245,1715374700590,1.47,-0.7,-0.07,153.14,113.95,-374.21
246,1715374700600,1.47,-0.7,-0.07,153.14,113.95,-374.21
247,1715374700610,1.8057142857142858,-0.8428571428571429,0.037142857142857144,104.91857142857143,156.37142857142857,-400.6242857142857
248,1715374700620,1.94,-0.9,0.08,85.63,173.34,-411.19
249,1715374700630,1.94,-0.9,0.08,85.63,173.34,-411.19
250,1715374700640,1.94,-0.9,0.08,85.63,173.34,-411.19
251,1715374700650,1.95,-1.27,0.25,115.36571428571429,191.78285714285715,-430.8542857142857
252,1715374700660,1.95,-1.27,0.25,127.26,199.16,-438.72
253,1715374700670,1.95,-1.27,0.25,127.26,199.16,-438.71999999999997
254,1715374700680,1.95,-1.27,0.25,127.26,199.16,-438.72
255,1715374700690,1.31125,-1.1387500000000002,0.0925,174.51875,132.72125,-430.4425
256,1715374700700,1.22,-1.12,0.07,181.27,123.23,-429.26
257,1715374700710,1.22,-1.12,0.07,181.27,123.23,-429.26
258,1715374700720,1.0714285714285714,-1.0514285714285714,0.037142857142857144,175.67285714285714,110.6657142857143,-421.54285714285714
259,1715374700730,0.18,-0.64,-0.16,142.09,35.28,-375.24
260,1715374700740,0.18,-0.64,-0.16,142.09,35.28,-375.24
261,1715374700750,0.18,-0.64,-0.16,142.09,35.28,-375.24
262,1715374700760,-0.22875,-0.67,-0.1525,97.29625,42.4875,-333.51750000000004
263,1715374700770,-0.91,-0.72,-0.14,22.640000000000004,54.5,-263.98
264,1715374700780,-0.91,-0.72,-0.14,22.64,54.5,-263.98
265,1715374700790,-0.91,-0.72,-0.14,22.64,54.5,-263.98
266,1715374700800,-1.0271428571428571,-0.8657142857142857,-0.1942857142857143,-19.454285714285714,58.54571428571428,-169.18285714285716
267,1715374700810,-1.32,-1.23,-0.33,-124.69,68.66,67.81
268,1715374700820,-1.32,-1.23,-0.33,-124.69,68.66,67.81
269,1715374700830,-1.32,-1.23,-0.33,-124.68999999999998,68.66,67.81
270,1715374700840,-0.77,-1.2925,-0.43625,-153.72125,17.697499999999998,242.10375
271,1715374700850,-0.44,-1.33,-0.5,-171.14,-12.88,346.68
272,1715374700860,-0.44,-1.33,-0.5,-171.14,-12.88,346.68
273,1715374700870,-0.44,-1.33,-0.5,-171.14000000000001,-12.88,346.68
274,1715374700880,0.5425,-1.8399999999999999,-0.5599999999999999,-230.7425,-110.47749999999999,446.79
275,1715374700890,0.87,-2.01,-0.58,-250.60999999999999,-143.01,480.16
276,1715374700900,0.87,-2.01,-0.58,-250.61,-143.01,480.16
277,1715374700910,0.87,-2.01,-0.58,-250.61,-143.01,480.16
278,1715374700920,1.92,-2.26,-0.29,-235.17,-267.76,506.1
279,1715374700930,1.92,-2.26,-0.29,-235.17,-267.76,506.1
280,1715374700940,1.92,-2.26,-0.29,-235.17,-267.76,506.1
281,1715374700950,1.92,-2.26,-0.29,-235.17,-267.76,506.1
282,1715374700960,2.515,-2.19875,-0.1325,-226.56875,-320.2075,470.645
283,1715374700970,2.6,-2.19,-0.11,-225.34,-327.7,465.58
284,1715374700980,2.6,-2.19,-0.11,-225.34,-327.7,465.58
285,1715374700990,2.5500000000000003,-2.1271428571428572,-0.09142857142857143,-216.44714285714286,-319.1114285714285,450.0671428571428
286,1715374701000,2.25,-1.75,0.02,-163.09,-267.58,356.99
287,1715374701010,2.25,-1.75,0.02,-163.09,-267.58,356.99
288,1715374701020,2.25,-1.75,0.02,-163.09,-267.58,356.99000000000007
289,1715374701030,2.21,-1.7175,0.03,-160.74,-259.905,359.63
290,1715374701040,2.09,-1.62,0.06,-153.69,-236.88,367.55
291,1715374701050,2.09,-1.62,0.06,-153.69,-236.88,367.55
292,1715374701060,2.09,-1.6199999999999999,0.06,-153.69,-236.87999999999997,367.55
293,1715374701070,2.1725,-1.32,0.16874999999999998,-174.8825,-215.41,364.9875
294,1715374701080,2.31,-0.82,0.35,-238.46,-151.0,357.3
295,1715374701090,2.31,-0.82,0.35,-238.46,-151.0,357.3
296,1715374701100,2.31,-0.82,0.35,-238.46,-151.0,357.3
297,1715374701110,2.325,-0.715,0.6,-228.36,-119.02000000000001,286.165
298,1715374701120,2.34,-0.61,0.85,-218.26,-87.04,215.03
299,1715374701130,2.34,-0.61,0.85,-218.26,-87.04,215.03
300,1715374701140,2.34,-0.61,0.85,-218.26,-87.04,215.03
301,1715374701150,2.1849999999999996,-0.64,0.9199999999999999,-178.04,-14.285000000000004,164.735
302,1715374701160,2.03,-0.67,0.99,-137.82,58.47,114.44
303,1715374701170,2.03,-0.67,0.99,-137.82,58.46999999999999,114.43999999999998
304,1715374701180,2.03,-0.67,0.99,-137.82,58.47,114.44
305,1715374701190,2.105,-0.6825,0.3525,-46.801249999999996,59.769999999999996,51.765
306,1715374701200,2.15,-0.69,-0.03,7.81,60.55,14.16
307,1715374701210,2.15,-0.69,-0.03,7.81,60.55,14.16
308,1715374701220,2.15,-0.6900000000000001,-0.03,7.81,60.55,14.16
309,1715374701230,2.4475000000000002,-0.94375,-0.14375,87.65375,-55.268750000000004,-53.133750000000006
310,1715374701240,2.49,-0.98,-0.16,135.56,-124.76,-93.51
311,1715374701250,2.49,-0.98,-0.16,135.56,-124.76,-93.51
312,1715374701260,2.4899999999999998,-0.9799999999999999,-0.16,135.56,-124.76,-93.51
313,1715374701270,2.71,-1.45,0.47,219.97,-106.81,-231.32
314,1715374701280,2.71,-1.45,0.47,219.97,-106.81,-231.32
315,1715374701290,2.71,-1.45,0.47000000000000003,219.97,-106.81000000000002,-231.32
316,1715374701300,2.66875,-1.48625,0.4425,219.97,-106.81,-231.32
317,1715374701310,2.38,-1.74,0.25,176.07125000000002,102.805,-278.91125
318,1715374701320,2.38,-1.74,0.25,169.8,132.75,-285.71
319,1715374701330,2.38,-1.74,0.25,169.8,132.75,-285.71
320,1715374701340,2.1887499999999998,-1.68375,0.1,151.75,165.0525,-288.455
321,1715374701350,1.87,-1.59,-0.15,97.6,261.96,-296.69
322,1715374701360,1.8699999999999999,-1.59,-0.15,97.6,261.96,-296.69
323,1715374701370,1.7575,-1.56,-0.13999999999999999,105.395,258.54249999999996,-301.4825
324,1715374701380,1.42,-1.47,-0.11,128.78,248.29,-315.86
325,1715374701390,1.42,-1.47,-0.11,128.78,248.29,-315.86
326,1715374701400,1.42,-1.47,-0.11,128.78,248.29,-315.86
327,1715374701410,1.3571428571428572,-1.207142857142857,-0.07571428571428572,135.3457142857143,242.65714285714284,-318.38
328,1715374701420,1.31,-1.01,-0.05,174.74,208.86,-333.5
329,1715374701430,1.31,-1.01,-0.05,174.74,208.86,-333.5
330,1715374701440,1.31,-1.01,-0.05,174.74,208.85999999999999,-333.5
331,1715374701450,1.31,-1.01,-0.05,174.74,208.86,-333.5
332,1715374701460,1.31,-1.01,-0.05,174.74,208.86,-333.5
333,1715374701470,1.7650000000000001,-0.7825,-0.155,153.0575,160.42000000000002,-441.69374999999997
334,1715374701480,1.83,-0.75,-0.17,149.96,153.5,-457.15
335,1715374701490,1.83,-0.75,-0.17,149.96,153.5,-457.15
336,1715374701500,2.07,-1.43,0.43,124.15,196.72,-556.09
337,1715374701510,2.07,-1.43,0.43,124.15,196.72,-556.09
338,1715374701520,2.07,-1.43,0.43,124.15,196.72,-556.09
339,1715374701530,2.07,-1.43,0.43,124.15,196.72,-556.09
340,1715374701540,2.07,-1.43,0.43,124.15000000000002,196.72,-556.09
341,1715374701550,2.07,-1.43,0.43,124.15,196.72,-556.09
342,1715374701560,2.07,-1.43,0.43,124.15,196.72,-556.09
343,1715374701570,1.29625,-1.64625,-0.25125,141.70250000000001,246.51999999999998,-542.3375
344,1715374701580,1.18,-1.64,-0.29,144.9,244.2,-539.37
345,1715374701590,1.18,-1.64,-0.29,144.9,244.2,-539.37
346,1715374701600,0.9724999999999999,-1.5887499999999999,-0.31875,154.86375,229.82625,-527.0175
347,1715374701610,-0.48,-1.23,-0.52,224.60999999999999,129.21,-440.55
348,1715374701620,-0.48,-1.23,-0.52,224.61,129.21,-440.55
349,1715374701630,-0.48,-1.23,-0.52,224.61,129.21,-440.55
350,1715374701640,-0.6714285714285715,-1.197142857142857,-0.5042857142857143,211.7057142857143,122.96714285714287,-403.57142857142856
351,1715374701650,-1.82,-1.0,-0.41,134.28,85.51,-181.7
352,1715374701660,-1.82,-1.0,-0.41,134.28,85.51,-181.7
353,1715374701670,-1.82,-1.0,-0.41,134.28,85.51,-181.7
354,1715374701680,-1.87625,-1.0525,-0.52625,117.89875,87.5475,-134.28375
355,1715374701690,-1.97,-1.14,-0.72,3.23,101.81,197.63
356,1715374701700,-1.97,-1.14,-0.72,3.23,101.81,197.63
357,1715374701710,-1.97,-1.14,-0.72,3.23,101.81000000000002,197.62999999999997
358,1715374701720,-1.41875,-1.32375,-0.77625,10.44125,57.245000000000005,309.83
359,1715374701730,-0.5,-1.63,-0.87,22.46,-17.03,496.83
360,1715374701740,-0.5,-1.6300000000000001,-0.87,22.46,-17.03,496.83
361,1715374701750,-0.5,-1.6300000000000001,-0.87,22.46,-17.03,496.83
362,1715374701760,0.875,-1.98625,-0.80125,-9.54625,-53.536249999999995,620.73
363,1715374701770,1.7,-2.2,-0.76,-28.75,-75.44,695.07
364,1715374701780,1.7,-2.2,-0.76,-28.75,-75.43999999999998,695.07
365,1715374701790,1.7,-2.2,-0.76,-28.75,-75.44,695.07
366,1715374701800,2.6624999999999996,-2.36625,-0.40125,-151.8125,-67.5025,716.08875
367,1715374701810,2.8,-2.39,-0.35,-225.65,-62.74,728.7
368,1715374701820,2.8,-2.39,-0.35,-225.65,-62.74,728.7
369,1715374701830,2.8,-2.39,-0.35,-225.65,-62.74,728.7
370,1715374701840,2.43,-1.91,-0.39,-340.58,-100.95,575.32
371,1715374701850,2.43,-1.91,-0.39,-340.58,-100.95,575.32
372,1715374701860,2.43,-1.91,-0.39,-340.58,-100.95,575.32
373,1715374701870,2.3737500000000002,-1.95,-0.37375,-326.0225,-116.4,567.27125
374,1715374701880,1.98,-2.23,-0.26,-224.12000000000003,-224.55,510.93
375,1715374701890,1.98,-2.23,-0.26,-224.12,-224.55,510.93
376,1715374701900,1.98,-2.23,-0.26,-224.12,-224.55,510.93
377,1715374701910,2.025714285714286,-2.1371428571428575,-0.2285714285714286,-201.21428571428572,-232.17000000000002,510.3014285714286
378,1715374701920,2.3,-1.58,-0.04,-63.78,-277.89,506.53
379,1715374701930,2.3,-1.58,-0.04,-63.78,-277.89,506.53
380,1715374701940,2.3,-1.58,-0.04,-63.78000000000001,-277.89,506.53000000000003
381,1715374701950,2.1912499999999997,-1.46375,-0.17875,-74.7675,-260.71,469.7575
382,1715374701960,2.01,-1.27,-0.41,-107.73,-209.17,359.44
383,1715374701970,2.01,-1.27,-0.41,-107.73,-209.17,359.44
384,1715374701980,2.01,-1.27,-0.41,-107.73,-209.17,359.44
385,1715374701990,2.31,-1.57,-0.33499999999999996,-77.01375,-244.28125,351.35875
386,1715374702000,2.4899999999999998,-1.75,-0.29,-25.82,-302.8,337.89
387,1715374702010,2.49,-1.75,-0.29,-25.82,-302.8,337.89
388,1715374702020,2.49,-1.75,-0.29,-25.82,-302.8,337.89
389,1715374702030,2.7642857142857147,-1.3614285714285717,0.5728571428571428,-102.90714285714286,-197.43571428571428,298.62857142857143
390,1715374702040,2.97,-1.07,1.22,-205.69,-56.95,246.28
391,1715374702050,2.97,-1.07,1.22,-205.69,-56.95,246.28
392,1715374702060,2.97,-1.07,1.22,-205.69,-56.95,246.28
393,1715374702070,2.5700000000000003,-1.0825,1.1325,-220.07125,195.24375,170.97375
394,1715374702080,2.33,-1.09,1.08,-228.7,346.56,125.79
395,1715374702090,2.33,-1.09,1.08,-228.7,346.56,125.79
396,1715374702100,2.3300000000000005,-1.09,1.08,-228.7,346.56,125.79
397,1715374702110,2.47,-1.2825,-0.495,25.995000000000005,235.84625,5.46875
398,1715374702120,2.4899999999999998,-1.31,-0.72,62.38,220.03,-11.72
399,1715374702130,2.49,-1.31,-0.72,62.38,220.03,-11.72
400,1715374702140,2.4899999999999998,-1.31,-0.72,62.38,220.03,-11.72
401,1715374702150,2.2625,-1.135,-0.65,169.34875,-59.17375,-189.5025
402,1715374702160,2.23,-1.11,-0.64,184.62999999999997,-99.06000000000002,-214.9
403,1715374702170,2.23,-1.11,-0.64,184.63,-99.06,-214.9
404,1715374702180,2.23,-1.11,-0.64,184.63,-99.06,-214.9
405,1715374702190,1.93,-0.9214285714285715,0.14857142857142858,162.54999999999998,-51.55714285714286,-231.53714285714287
406,1715374702200,1.88,-0.89,0.28,158.87,-43.64,-234.31
407,1715374702210,1.88,-0.89,0.28,158.87,-43.64,-234.31
408,1715374702220,1.8800000000000001,-0.89,0.28,158.87000000000003,-43.64,-234.31
409,1715374702230,1.66,-0.55,-0.2,82.475,92.3125,-245.2975
410,1715374702240,1.66,-0.55,-0.2,57.01,137.63,-248.96
411,1715374702250,1.66,-0.55,-0.2,57.01,137.63,-248.96
412,1715374702260,1.5999999999999999,-0.5775,-0.21500000000000002,65.89,126.705,-268.98
413,1715374702270,1.42,-0.66,-0.26,92.53,93.93,-329.04
414,1715374702280,1.42,-0.66,-0.26,92.53,93.92999999999999,-329.04
415,1715374702290,1.42,-0.66,-0.26,92.53,93.93,-329.04
416,1715374702300,1.5899999999999999,-0.6825,-0.027499999999999997,97.84,114.22500000000001,-344.68
417,1715374702310,2.1,-0.75,0.67,113.77,175.10999999999999,-391.6
418,1715374702320,2.1,-0.75,0.67,113.77,175.11,-391.6
419,1715374702330,2.1,-0.75,0.67,113.77,175.11,-391.6
420,1715374702340,2.3785714285714286,-0.972857142857143,0.3785714285714286,104.73571428571428,231.55857142857144,-416.6257142857143
421,1715374702350,2.75,-1.27,-0.01,82.15,372.68,-479.19
422,1715374702360,2.75,-1.27,-0.01,82.15,372.68,-479.19
423,1715374702370,2.75,-1.27,-0.01,82.15,372.68,-479.19
424,1715374702380,2.7625,-1.6575,0.3275,109.54,349.5625,-485.5225
425,1715374702390,2.77,-1.89,0.53,191.71,280.21,-504.52
426,1715374702400,2.77,-1.89,0.53,191.71,280.21,-504.52
427,1715374702410,2.77,-1.89,0.53,191.71,280.21,-504.52
428,1715374702420,2.7775,-1.9949999999999999,0.08750000000000001,186.9925,365.68,-479.8
429,1715374702430,2.78,-2.03,-0.06,185.42,394.17,-471.56
430,1715374702440,2.78,-2.03,-0.06,185.42,394.17,-471.56
431,1715374702450,2.78,-2.03,-0.06,185.42,394.17,-471.56
432,1715374702460,1.59,-1.9,-0.52,349.67,181.87999999999997,-544.31
433,1715374702470,1.59,-1.9,-0.52,349.67,181.88,-544.31
434,1715374702480,1.59,-1.9,-0.52,349.67,181.88,-544.31
435,1715374702490,1.59,-1.9,-0.52,349.67,181.87999999999997,-544.31
436,1715374702500,-0.32,-1.06,-1.0,345.34,-73.55,-587.46
437,1715374702510,-0.32,-1.06,-1.0,345.34,-73.55,-587.46
438,1715374702520,-0.32,-1.06,-1.0,345.34,-73.55,-587.46
439,1715374702530,-0.755,-1.15,-0.8674999999999999,317.91999999999996,-118.3175,-518.98
440,1715374702540,-2.06,-1.42,-0.47,235.66,-252.62,-313.54
441,1715374702550,-2.06,-1.42,-0.47000000000000003,235.66,-252.62000000000003,-313.54
442,1715374702560,-2.06,-1.42,-0.47,235.66,-252.62,-313.54
443,1715374702570,-2.0125,-1.4649999999999999,-0.3575,198.8025,-224.445,-248.33125
444,1715374702580,-1.8699999999999999,-1.6,-0.02,-59.2,-27.22,208.12999999999997
445,1715374702590,-1.87,-1.6,-0.02,-59.2,-27.22,208.13
446,1715374702600,-1.44625,-1.6487500000000002,-0.11,-59.2,-27.22,208.13
447,1715374702610,-0.74,-1.73,-0.26,-188.78,55.36,513.43
448,1715374702620,-0.74,-1.73,-0.26,-188.78,55.36,513.43
449,1715374702630,-0.74,-1.73,-0.26,-188.78,55.36,513.43
450,1715374702640,0.485,-2.005,-0.34125,-230.93625000000003,17.55375,620.3925
451,1715374702650,1.22,-2.17,-0.39,-256.23,-5.13,684.57
452,1715374702660,1.22,-2.17,-0.39,-256.23,-5.13,684.57
453,1715374702670,1.22,-2.17,-0.39,-256.23,-5.13,684.57
454,1715374702680,1.6657142857142857,-2.045714285714286,-0.3,-251.18142857142857,-52.47428571428571,665.3442857142857
455,1715374702690,2.26,-1.88,-0.18,-244.45,-115.6,639.71
456,1715374702700,2.26,-1.88,-0.18,-244.45,-115.6,639.71
457,1715374702710,2.26,-1.88,-0.18,-244.45,-115.6,639.71
458,1715374702720,2.26,-1.8800000000000001,-0.18,-244.45,-115.6,639.71
459,1715374702730,2.26,-1.88,-0.18,-244.45,-115.6,639.71
460,1715374702740,1.9625,-1.34625,-0.1975,-191.46875,-177.92625,476.925
461,1715374702750,1.92,-1.27,-0.2,-183.9,-186.83,453.67
462,1715374702760,1.92,-1.27,-0.2,-183.9,-186.83,453.67
463,1715374702770,1.8575,-1.29,-0.2625,-157.1975,-208.315,434.3375
464,1715374702780,1.67,-1.35,-0.45,-77.09,-272.77,376.34
465,1715374702790,1.67,-1.35,-0.45,-77.09,-272.77,376.34
466,1715374702800,1.7037499999999999,-1.30125,-0.33375,-59.761250000000004,-284.46625,378.81125
467,1715374702810,1.76,-1.22,-0.14,-30.88,-303.96,382.93
468,1715374702820,1.76,-1.22,-0.14,-30.88,-303.96,382.93
469,1715374702830,1.76,-1.22,-0.14,-30.88,-303.96,382.93
470,1715374702840,1.76,-1.22,-0.14,-30.88,-303.96,382.93
471,1715374702850,1.76,-1.22,-0.14,-30.88,-303.96,382.93
472,1715374702860,1.752857142857143,-1.1857142857142857,-0.03857142857142859,-48.36285714285714,-278.9528571428571,381.71000000000004
473,1715374702870,1.7125,-1.1675,0.5449999999999999,-179.4125,-84.35249999999999,357.2075
474,1715374702880,1.72,-1.73,0.47,-257.87,49.32,305.66
475,1715374702890,1.72,-1.73,0.47000000000000003,-257.87,49.32,305.66
476,1715374702900,1.72,-1.73,0.47,-257.87,49.32,305.66
477,1715374702910,1.8599999999999999,-1.875,0.3225,-248.625,37.7975,307.50750000000005
478,1715374702920,2.28,-2.31,-0.12,-220.89000000000001,3.23,313.05
479,1715374702930,2.28,-2.31,-0.12,-220.89,3.23,313.05
480,1715374702940,2.28,-2.31,-0.12,-220.89,3.23,313.05
481,1715374702950,2.775,-1.635,0.37,-194.70499999999998,-19.200000000000003,257.355
482,1715374702960,3.27,-0.96,0.86,-168.52,-41.63,201.66
483,1715374702970,3.27,-0.96,0.86,-168.52,-41.63,201.66
484,1715374702980,3.27,-0.96,0.86,-168.52,-41.63,201.66
485,1715374702990,2.8325,-1.30375,0.82875,-104.70125,69.11375,63.37875
486,1715374703000,2.57,-1.51,0.8099999999999999,-66.41,135.56,-19.59
487,1715374703010,2.57,-1.51,0.81,-66.41,135.56,-19.59
488,1715374703020,2.57,-1.51,0.81,-66.41,135.56,-19.59
489,1715374703030,2.28875,-1.2974999999999999,0.12250000000000003,82.4025,88.5975,-66.35875
490,1715374703040,2.12,-1.17,-0.29,171.69,60.42,-94.42
491,1715374703050,2.12,-1.17,-0.29,171.69,60.42,-94.42
492,1715374703060,2.12,-1.17,-0.29,171.69,60.42,-94.42
493,1715374703070,1.8699999999999999,-0.51,-0.21,210.75,-63.05,-177.55
494,1715374703080,1.87,-0.51,-0.21,210.75,-63.05,-177.55
495,1715374703090,1.87,-0.51,-0.21,210.75,-63.05,-177.55
496,1715374703100,1.8699999999999999,-0.51,-0.21,210.75,-63.05,-177.55
497,1715374703110,1.75,-0.32,0.42,128.48,37.72,-216.25
498,1715374703120,1.75,-0.32,0.42,128.48,37.71999999999999,-216.25
499,1715374703130,1.75,-0.32,0.42,128.48,37.72,-216.25
500,1715374703140,1.725,-0.335,0.385,114.54749999999999,72.6175,-228.41
501,1715374703150,1.65,-0.38,0.28,72.75,177.31,-264.89
502,1715374703160,1.65,-0.38,0.28,72.75,177.31,-264.89
503,1715374703170,1.65,-0.38,0.28,72.75,177.31,-264.89
504,1715374703180,1.605,-0.48,0.21500000000000002,91.94749999999999,163.745,-284.4225
505,1715374703190,1.56,-0.58,0.15,149.54,123.05,-343.02
506,1715374703200,1.56,-0.58,0.15,149.54,123.05,-343.02
507,1715374703210,1.56,-0.58,0.15,149.54,123.05,-343.02
508,1715374703220,1.77875,-0.9112500000000001,0.5125,150.20999999999998,162.325,-356.63
509,1715374703230,1.91,-1.11,0.7299999999999999,150.87999999999997,201.6,-370.24000000000007
510,1715374703240,1.91,-1.11,0.73,150.88,201.6,-370.24
511,1715374703250,1.91,-1.11,0.73,150.88,201.6,-370.24
512,1715374703260,2.28,-1.255,0.64,196.015,210.32999999999998,-384.43
513,1715374703270,2.65,-1.4,0.55,241.15,219.06,-398.62
514,1715374703280,2.65,-1.4,0.55,241.15,219.06,-398.62
515,1715374703290,2.65,-1.4,0.55,241.15,219.06,-398.62
516,1715374703300,2.5975,-1.865,0.625,305.3875,192.7725,-489.1825
517,1715374703310,2.58,-2.02,0.65,343.93,177.0,-543.52
518,1715374703320,2.58,-2.02,0.65,343.93,177.0,-543.52
519,1715374703330,2.5800000000000005,-2.02,0.65,343.93,177.0,-543.52
520,1715374703340,1.16,-2.17,-0.39,287.9,239.69,-490.42
521,1715374703350,1.16,-2.17,-0.39,287.9,239.69,-490.42
522,1715374703360,1.16,-2.17,-0.39,287.9,239.69,-490.42
523,1715374703370,0.7575,-1.9324999999999999,-0.4675,275.5725,207.1725,-470.6275
524,1715374703380,-0.45,-1.22,-0.7,238.59,109.62,-411.25
525,1715374703390,-0.45,-1.22,-0.7,238.59,109.62,-411.25
526,1715374703400,-0.45,-1.22,-0.7,238.59,109.62,-411.25
527,1715374703410,-0.7925,-1.0525,-0.7775,220.935,83.3125,-368.74
528,1715374703420,-1.82,-0.55,-1.01,167.97,4.39,-241.21
529,1715374703430,-1.82,-0.55,-1.01,167.97,4.39,-241.21
530,1715374703440,-1.82,-0.55,-1.01,167.97,4.39,-241.21
531,1715374703450,-1.885,-0.7050000000000001,-0.9450000000000001,85.54,-35.74,-60.760000000000005
532,1715374703460,-1.95,-0.86,-0.88,3.11,-75.87,119.69
533,1715374703470,-1.95,-0.86,-0.88,3.11,-75.87,119.68999999999998
534,1715374703480,-1.95,-0.86,-0.88,3.11,-75.87,119.69
535,1715374703490,-0.7875,-1.205,-0.6775,-95.395,-32.932500000000005,343.355
536,1715374703500,-0.4,-1.32,-0.61,-128.23,-18.62,417.91
537,1715374703510,-0.4,-1.32,-0.61,-128.23,-18.62,417.91
538,1715374703520,-0.4,-1.32,-0.61,-128.23,-18.62,417.91
539,1715374703530,1.02,-2.18,-0.5,-210.5442857142857,-16.784285714285716,524.3242857142857
540,1715374703540,1.02,-2.18,-0.5,-243.47,-16.05,566.89
541,1715374703550,1.02,-2.18,-0.5,-243.47,-16.05,566.89
542,1715374703560,1.02,-2.18,-0.5,-243.47,-16.05,566.89
543,1715374703570,1.8425,-2.1975000000000002,-0.19375,-228.25125,-93.64375,574.48375
544,1715374703580,1.96,-2.2,-0.15,-219.12,-140.2,579.04
545,1715374703590,1.9600000000000002,-2.2,-0.15,-219.11999999999998,-140.2,579.04
546,1715374703600,1.92,-2.055,-0.0925,-203.875,-140.6575,552.765
547,1715374703610,1.8,-1.62,0.08,-158.14,-142.03,473.94
548,1715374703620,1.8,-1.62,0.08,-158.14,-142.03,473.94
549,1715374703630,1.8,-1.62,0.08,-158.14,-142.03,473.94
550,1715374703640,1.675,-1.705,-0.065,-150.26749999999998,-138.0775,466.1725
551,1715374703650,1.55,-1.7900000000000003,-0.21,-126.65,-126.22,442.87
552,1715374703660,1.55,-1.79,-0.21,-126.65,-126.22,442.87
553,1715374703670,1.55,-1.79,-0.21,-126.65,-126.22,442.87
554,1715374703680,1.75,-1.5271428571428574,-0.22714285714285712,-84.93571428571428,-174.35142857142858,442.1042857142857
555,1715374703690,1.9,-1.33,-0.24,-53.65,-210.45,441.53
556,1715374703700,1.9,-1.33,-0.24,-53.65,-210.45,441.53
557,1715374703710,1.9,-1.33,-0.24,-53.65,-210.45,441.53000000000003
558,1715374703720,1.8875,-1.06125,-0.0525,-31.6,-195.15,362.5675
559,1715374703730,1.88,-0.9,0.06,-18.37,-185.97,315.19
560,1715374703740,1.88,-0.9,0.06,-18.37,-185.97,315.19
561,1715374703750,1.8800000000000001,-0.9,0.06,-18.37,-185.97,315.19
562,1715374703760,1.95,-1.4425,0.13874999999999998,-117.85750000000002,-76.6075,288.40875
563,1715374703770,1.96,-1.52,0.15,-177.55,-10.99,272.34
564,1715374703780,1.9599999999999997,-1.52,0.15,-177.55,-10.99,272.34
565,1715374703790,1.96,-1.52,0.15,-177.55,-10.99,272.34
566,1715374703800,2.1175,-1.9224999999999999,0.38625,-229.945,42.14875,258.50624999999997
567,1715374703810,2.14,-1.98,0.42,-237.43,49.74,256.53
568,1715374703820,2.14,-1.98,0.42,-237.43,49.74,256.53
569,1715374703830,2.14,-1.98,0.42,-237.43,49.74,256.53
570,1715374703840,2.414285714285714,-1.4571428571428573,0.8314285714285715,-178.62142857142857,116.76,171.57
571,1715374703850,2.46,-1.37,0.9,-168.82,127.93,157.41
572,1715374703860,2.46,-1.37,0.9,-168.82,127.93,157.41
573,1715374703870,2.4314285714285715,-1.4042857142857144,0.8028571428571428,-145.21714285714285,132.29857142857142,136.22142857142856
574,1715374703880,2.26,-1.61,0.22,-3.6,158.51,9.09
575,1715374703890,2.26,-1.61,0.22,-3.6,158.51,9.09
576,1715374703900,2.26,-1.61,0.22,-3.6,158.51,9.09
577,1715374703910,2.1475,-1.4625000000000001,0.165,9.1875,135.9425,-2.1550000000000002
578,1715374703920,1.81,-1.02,0.0,47.55,68.24,-35.89
579,1715374703930,1.81,-1.02,0.0,47.55,68.24,-35.89
580,1715374703940,1.81,-1.02,0.0,47.55,68.24,-35.89
581,1715374703950,1.7875,-0.865,0.0875,56.96375,63.433749999999996,-48.7075
582,1715374703960,1.72,-0.4,0.35,122.86,29.79,-138.43
583,1715374703970,1.72,-0.4,0.35,122.86,29.79,-138.43
584,1715374703980,1.72,-0.4,0.35,122.86,29.79,-138.43
585,1715374703990,1.58,-0.30000000000000004,0.21,112.945,69.005,-159.61
586,1715374704000,1.44,-0.2,0.07,103.03,108.22,-180.79
587,1715374704010,1.44,-0.2,0.07,103.03,108.22,-180.79
588,1715374704020,1.44,-0.2,0.07,103.03,108.22,-180.79
589,1715374704030,1.5699999999999998,-0.07750000000000001,0.030000000000000006,115.64750000000001,101.215,-200.1675
590,1715374704040,1.96,0.29,-0.09,153.5,80.2,-258.3
591,1715374704050,1.9599999999999997,0.29,-0.09,153.5,80.2,-258.3
592,1715374704060,1.96,0.29,-0.09,153.5,80.2,-258.3
593,1715374704070,1.9599999999999997,0.29,-0.09,153.5,80.2,-258.3
594,1715374704080,2.32,-0.3,0.25,94.85,177.61,-384.16
595,1715374704090,2.32,-0.3,0.25,94.85,177.61,-384.16
596,1715374704100,2.32,-0.3,0.25,94.85,177.61,-384.16
597,1715374704110,2.32,-0.3,0.25,94.85,177.60999999999999,-384.16
598,1715374704120,2.32,-0.3,0.25,94.85,177.61,-384.16
599,1715374704130,2.245,-0.52125,0.26125,82.39999999999999,227.9425,-382.34875
600,1715374704140,2.12,-0.89,0.28,61.65,311.83,-379.33
601,1715374704150,2.4,-1.32,0.48999999999999994,162.41,268.62,-442.69
602,1715374704160,2.4,-1.32,0.49,162.41,268.62,-442.69
603,1715374704170,2.4,-1.32,0.49,162.41,268.62,-442.69
604,1715374704180,2.347142857142857,-1.4385714285714286,0.4785714285714286,182.00285714285715,253.45714285714286,-449.0728571428572
605,1715374704190,2.03,-2.15,0.41,299.56,162.48,-487.37
606,1715374704200,2.03,-2.15,0.41,299.56,162.48,-487.37
607,1715374704210,2.03,-2.15,0.41,299.56,162.48,-487.37
608,1715374704220,2.03,-2.15,0.41,299.56,162.48,-487.37
609,1715374704230,1.6625,-1.58125,0.4275,397.02625,-57.1275,-525.9224999999999
610,1715374704240,1.61,-1.5,0.43,410.95,-88.5,-531.43
611,1715374704250,1.61,-1.5,0.43,410.95,-88.5,-531.43
612,1715374704260,1.1600000000000001,-1.30875,0.385,379.34875,-62.2325,-521.6412499999999
613,1715374704270,0.41,-0.99,0.31,158.14,121.64,-453.12
614,1715374704280,0.41,-0.99,0.31,158.14,121.64,-453.12
615,1715374704290,0.41,-0.99,0.31,158.14000000000001,121.64,-453.12
616,1715374704300,-0.48375,-0.80875,-0.29625,76.02,151.185,-295.71500000000003
617,1715374704310,-1.02,-0.7,-0.66,-6.1,180.73,-138.31
618,1715374704320,-1.02,-0.7,-0.66,-6.1,180.73,-138.31
619,1715374704330,-1.02,-0.7,-0.66,-6.1,180.73,-138.31
620,1715374704340,-0.9824999999999999,-0.4975,-0.6074999999999999,-16.3625,87.07374999999999,17.521249999999995
621,1715374704350,-0.97,-0.43,-0.59,-22.52,30.88,111.02
622,1715374704360,-0.97,-0.43,-0.59,-22.52,30.88,111.02
623,1715374704370,-0.97,-0.43,-0.59,-22.52,30.88,111.02
624,1715374704380,-0.51,-0.92,-0.56,-120.24,-29.169999999999998,279.36
625,1715374704390,-0.51,-0.92,-0.56,-120.24,-29.17,279.36
626,1715374704400,-0.51,-0.92,-0.56,-120.24,-29.17,279.36
627,1715374704410,-0.51,-0.92,-0.56,-120.24,-29.169999999999998,279.36
628,1715374704420,0.32,-2.03,-0.42,-174.07,-109.62,408.02
629,1715374704430,0.32,-2.03,-0.42,-174.07,-109.62,408.02
630,1715374704440,0.39125,-2.0237499999999997,-0.39249999999999996,-174.07,-109.62,408.02
631,1715374704450,0.89,-1.98,-0.2,-106.08250000000001,-169.54,465.21875
632,1715374704460,0.89,-1.98,-0.2,-96.37,-178.1,473.39
633,1715374704470,0.89,-1.98,-0.2,-96.37,-178.1,473.39
634,1715374704480,0.91,-1.94125,-0.20125,-91.09875000000001,-177.54375,474.48125
635,1715374704490,1.05,-1.67,-0.21,-54.2,-173.65,482.12
636,1715374704500,1.05,-1.67,-0.21,-54.2,-173.65,482.12
637,1715374704510,1.05,-1.67,-0.21,-54.2,-173.65,482.12
638,1715374704520,1.05,-1.67,-0.21,-54.2,-173.65,482.12
639,1715374704530,1.11875,-1.6575,-0.2225,-41.1125,-178.9875,476.08875
640,1715374704540,1.16,-1.65,-0.23,-33.26,-182.19,472.46999999999997
641,1715374704550,1.16,-1.65,-0.23,-33.26,-182.19,472.47
642,1715374704560,1.2762499999999999,-1.635,-0.16625,-21.482499999999998,-180.39,475.66
643,1715374704570,1.47,-1.61,-0.06,13.85,-174.99,485.23
644,1715374704580,1.47,-1.61,-0.06,13.85,-174.99,485.23
645,1715374704590,1.47,-1.61,-0.06,13.85,-174.99,485.23
646,1715374704600,1.575,-1.5550000000000002,-0.12,23.62,-145.57,471.04
647,1715374704610,1.68,-1.5,-0.18,33.39,-116.15,456.85
648,1715374704620,1.68,-1.5,-0.18,33.39,-116.15,456.85
649,1715374704630,1.68,-1.5,-0.18,33.39,-116.15,456.85
650,1715374704640,1.8285714285714285,-2.14,-0.2942857142857143,-5.118571428571428,-109.17285714285715,419.53000000000003
651,1715374704650,1.94,-2.62,-0.38,-34.0,-103.94,391.54
652,1715374704660,1.94,-2.62,-0.38,-34.0,-103.94,391.54
653,1715374704670,1.94,-2.62,-0.38,-34.0,-103.94,391.54
654,1715374704680,2.94,-2.684285714285714,-0.3085714285714286,-15.25,-142.00428571428571,424.4971428571429
655,1715374704690,3.34,-2.71,-0.28,-7.75,-157.23,437.68
656,1715374704700,3.34,-2.71,-0.28,-7.75,-157.23,437.68
657,1715374704710,3.34,-2.71,-0.28,-7.75,-157.23,437.68
658,1715374704720,4.0225,-0.84625,0.40249999999999997,-102.27625,-18.638749999999998,220.75
659,1715374704730,4.12,-0.58,0.5,-115.78,1.16,189.76
660,1715374704740,4.12,-0.58,0.5,-115.78,1.16,189.76
661,1715374704750,4.12,-0.58,0.5,-115.78,1.16,189.76
662,1715374704760,3.117142857142857,-1.2142857142857142,0.4571428571428572,-62.50857142857143,119.13142857142857,-40.51857142857143
663,1715374704770,2.95,-1.32,0.45,-41.2,166.32,-132.63
664,1715374704780,2.95,-1.32,0.45,-41.2,166.32,-132.63
665,1715374704790,2.95,-1.32,0.45,-41.2,166.32,-132.63
666,1715374704800,2.0757142857142856,-1.2342857142857144,-0.5357142857142857,57.988571428571426,153.8657142857143,-184.5814285714286
667,1715374704810,1.93,-1.22,-0.7,74.52,151.79,-193.24
668,1715374704820,1.93,-1.22,-0.7,74.52,151.79,-193.24
669,1715374704830,1.8775,-1.18125,-0.70375,71.74374999999999,136.54749999999999,-200.1825
670,1715374704840,1.51,-0.91,-0.73,52.31,29.85,-248.78
671,1715374704850,1.51,-0.91,-0.7299999999999999,52.31,29.85,-248.78
672,1715374704860,1.51,-0.91,-0.73,52.31,29.85,-248.78
673,1715374704870,1.4975,-0.85375,-0.65875,58.41375,11.615000000000002,-253.655
674,1715374704880,1.41,-0.46,-0.16,101.14,-116.03,-287.78
675,1715374704890,1.41,-0.46,-0.16,101.14,-116.03,-287.78
676,1715374704900,1.41,-0.46,-0.16,101.14,-116.03,-287.78
677,1715374704910,1.4949999999999999,-0.43000000000000005,-0.027500000000000004,76.175,-89.7375,-307.7075
678,1715374704920,1.75,-0.34,0.37,1.28,-10.86,-367.49
679,1715374704930,1.75,-0.34,0.37,1.28,-10.86,-367.49000000000007
680,1715374704940,1.75,-0.34,0.37,1.28,-10.86,-367.49
681,1715374704950,1.7425,-0.6175,0.31,-13.3675,42.957499999999996,-381.91
682,1715374704960,1.73,-1.08,0.21,-57.31,204.41,-425.17
683,1715374704970,1.73,-1.08,0.21,-57.31,204.41,-425.17
684,1715374704980,1.73,-1.08,0.21,-57.31,204.41,-425.17
685,1715374704990,1.7128571428571429,-1.2742857142857142,0.07857142857142856,-14.09857142857143,245.31857142857143,-428.38142857142856
686,1715374705000,1.7,-1.42,-0.02,18.31,276.0,-430.79
687,1715374705010,1.7,-1.42,-0.02,18.31,276.0,-430.79
688,1715374705020,1.7,-1.42,-0.02,18.31,276.0,-430.79
689,1715374705030,1.8062500000000001,-1.4575,0.005,56.341249999999995,246.4375,-452.53375
690,1715374705040,1.87,-1.48,0.02,79.16,228.7,-465.58
691,1715374705050,1.87,-1.48,0.02,79.16,228.7,-465.58
692,1715374705060,1.7914285714285716,-1.6514285714285715,-0.05142857142857143,167.66,155.06428571428572,-480.7085714285714
693,1715374705070,1.76,-1.72,-0.08,203.06,125.61,-486.76
694,1715374705080,1.76,-1.72,-0.08,203.06,125.61,-486.76
695,1715374705090,1.76,-1.72,-0.08,203.06,125.61,-486.76
696,1715374705100,2.257142857142857,-0.6742857142857143,0.47714285714285715,198.72285714285712,-2.0957142857142848,-481.1028571428572
697,1715374705110,2.34,-0.5,0.57,198.0,-23.38,-480.16
698,1715374705120,2.34,-0.5,0.57,198.0,-23.38,-480.16
699,1715374705130,2.34,-0.5,0.57,198.0,-23.38,-480.16
700,1715374705140,1.1485714285714284,-0.8771428571428571,0.3814285714285714,98.77142857142857,54.705714285714286,-515.5171428571429
701,1715374705150,0.95,-0.9400000000000001,0.35,59.08,85.93999999999998,-529.66
702,1715374705160,0.95,-0.94,0.35,59.08,85.94,-529.66
703,1715374705170,0.95,-0.94,0.35,59.08,85.94,-529.66
704,1715374705180,-0.73,-0.9624999999999999,-0.29500000000000004,46.1275,39.567499999999995,-407.0275
705,1715374705190,-1.2900000000000003,-0.97,-0.51,41.81,24.109999999999996,-366.15
706,1715374705200,-1.29,-0.97,-0.51,41.81,24.11,-366.15
707,1715374705210,-1.4100000000000001,-0.9824999999999999,-0.195,53.74250000000001,-32.9725,-286.29999999999995
708,1715374705220,-1.77,-1.02,0.75,89.54,-204.22,-46.75
709,1715374705230,-1.77,-1.02,0.75,89.54,-204.22,-46.75
710,1715374705240,-1.77,-1.02,0.75,89.54,-204.22,-46.75
711,1715374705250,-1.5942857142857143,-1.2771428571428574,0.5357142857142857,57.31142857142857,-90.53714285714285,114.06714285714285
712,1715374705260,-1.36,-1.62,0.25,14.34,61.04,328.49
713,1715374705270,-1.36,-1.62,0.25,14.34,61.04,328.49
714,1715374705280,-1.36,-1.6199999999999999,0.25,14.34,61.04,328.49000000000007
715,1715374705290,-0.7525000000000001,-1.905,-0.05000000000000002,14.34,61.04,328.49
716,1715374705300,0.26,-2.38,-0.55,14.34,61.04,328.49
717,1715374705310,0.26,-2.38,-0.55,65.77250000000001,-9.677500000000002,534.42125
718,1715374705320,0.26,-2.38,-0.55,73.12,-19.78,563.84
719,1715374705330,0.42000000000000004,-2.3449999999999998,-0.5487500000000001,80.42875000000001,-23.372500000000002,571.0500000000001
720,1715374705340,1.5400000000000003,-2.1,-0.54,131.59,-48.52,621.5199999999999
721,1715374705350,1.54,-2.1,-0.54,131.59,-48.52,621.52
722,1715374705360,1.54,-2.1,-0.54,131.59,-48.52,621.52
723,1715374705370,1.54,-2.1,-0.54,131.59,-48.52,621.52
724,1715374705380,1.54,-2.1,-0.54,131.59,-48.52,621.52
725,1715374705390,1.5400000000000003,-2.1,-0.54,131.59,-48.52,621.5199999999999
726,1715374705400,1.545,-1.82,-0.5700000000000001,76.385,-24.475,597.96
727,1715374705410,1.425,-1.3775,-0.5812499999999999,-24.4825,8.838750000000001,532.3625
728,1715374705420,1.35,-1.28,-0.57,-51.88,14.4,507.14
729,1715374705430,1.35,-1.28,-0.57,-51.88,14.4,507.14
730,1715374705440,1.3714285714285717,-1.2857142857142858,-0.5142857142857142,-51.88,14.4,507.14
731,1715374705450,1.5,-1.32,-0.18,-43.33125,-50.16625,478.09
732,1715374705460,1.5,-1.32,-0.18,-42.11,-59.39,473.94
733,1715374705470,1.5,-1.32,-0.18,-42.11,-59.39,473.94
734,1715374705480,1.535,-1.2975,-0.1275,-52.7,-50.905,458.97
735,1715374705490,1.64,-1.23,0.03,-84.47,-25.45,414.06
736,1715374705500,1.64,-1.23,0.03,-84.47,-25.45,414.06
737,1715374705510,1.64,-1.23,0.03,-84.47,-25.45,414.06
738,1715374705520,1.7374999999999998,-1.86,-0.015,-92.57249999999999,-18.08,406.34000000000003
739,1715374705530,1.9,-2.91,-0.09,-116.88,4.03,383.18
740,1715374705540,1.9,-2.91,-0.09,-116.88,4.03,383.18
741,1715374705550,1.9,-2.91,-0.09,-116.88,4.03,383.18
742,1715374705560,2.3228571428571425,-2.6271428571428572,-0.13,-92.69428571428571,-32.03285714285714,405.90285714285716
743,1715374705570,3.38,-1.92,-0.23,-32.23,-122.19,462.71
744,1715374705580,3.38,-1.92,-0.23,-32.23,-122.19,462.71
745,1715374705590,3.38,-1.92,-0.23,-32.23,-122.18999999999998,462.71
746,1715374705600,3.4925,-0.77625,0.5075,-37.98625,-74.2025,231.9975
747,1715374705610,3.56,-0.09,0.95,-41.44,-45.41,93.57
748,1715374705620,3.56,-0.09,0.95,-41.44,-45.41,93.57
749,1715374705630,3.56,-0.09,0.95,-41.44,-45.410000000000004,93.57000000000001
750,1715374705640,2.825,-1.5375,0.44,-3.5424999999999995,126.4825,-147.3525
751,1715374705650,2.58,-2.02,0.27,9.09,183.78,-227.66
752,1715374705660,2.5800000000000005,-2.02,0.27,9.09,183.78,-227.66
753,1715374705670,2.58,-2.02,0.27,9.09,183.78,-227.66
754,1715374705680,1.64,-1.49,-0.81,-28.93,200.74,-143.01
755,1715374705690,1.64,-1.49,-0.81,-28.93,200.74,-143.01
756,1715374705700,1.64,-1.49,-0.8099999999999999,-28.93,200.74,-143.01
757,1715374705710,1.6175,-1.4125,-0.7662500000000001,-30.05125,187.92375,-149.64749999999998
758,1715374705720,1.46,-0.87,-0.46,-37.9,98.21,-196.11
759,1715374705730,1.4599999999999997,-0.87,-0.46,-37.9,98.21,-196.10999999999999
760,1715374705740,1.46,-0.87,-0.46,-37.9,98.21,-196.11
761,1715374705750,1.417142857142857,-0.7785714285714286,-0.28285714285714286,-21.245714285714286,85.68714285714285,-197.20714285714286
762,1715374705760,1.31,-0.55,0.16,20.39,54.38,-199.95
763,1715374705770,1.31,-0.55,0.16,20.39,54.38,-199.95
764,1715374705780,1.31,-0.55,0.16,20.390000000000004,54.38,-199.95
765,1715374705790,1.3587500000000001,-0.385,0.23125,23.43375,55.2425,-203.48999999999998
766,1715374705800,1.44,-0.11,0.35,44.74,61.28,-228.27
767,1715374705810,1.44,-0.11,0.35,44.74,61.28,-228.27
768,1715374705820,1.44,-0.11,0.35,44.74,61.28000000000001,-228.27
769,1715374705830,1.6099999999999999,-0.24,0.41,82.795,77.485,-289.245
770,1715374705840,1.78,-0.37,0.47,120.85,93.69,-350.22
771,1715374705850,1.78,-0.37,0.47000000000000003,120.85,93.68999999999998,-350.21999999999997
772,1715374705860,1.78,-0.37,0.47,120.85,93.69,-350.22
773,1715374705870,1.8514285714285712,-0.7628571428571428,0.4414285714285714,94.47142857142856,186.64000000000001,-366.92
774,1715374705880,1.88,-0.92,0.43,83.92,223.82,-373.6
775,1715374705890,1.88,-0.92,0.43,83.92,223.82,-373.6
776,1715374705900,1.8800000000000001,-0.92,0.43,83.92,223.82,-373.6
777,1715374705910,2.0374999999999996,-1.13,0.32499999999999996,133.63750000000002,223.865,-410.905
778,1715374705920,2.09,-1.2,0.29,150.21,223.88,-423.34
779,1715374705930,2.09,-1.2,0.29,150.21,223.87999999999997,-423.34
780,1715374705940,2.0925,-1.2574999999999998,0.29625,155.92375,221.2175,-430.54249999999996
781,1715374705950,2.11,-1.66,0.34,195.92,202.58,-480.96
782,1715374705960,2.11,-1.66,0.34,195.92,202.58,-480.96
783,1715374705970,2.11,-1.66,0.34,195.92,202.58,-480.96
784,1715374705980,2.0237499999999997,-1.64875,0.29750000000000004,195.92,202.58,-480.96
785,1715374705990,1.42,-1.57,0.0,273.74,123.17,-489.2
786,1715374706000,1.42,-1.57,0.0,273.74,123.17,-489.2
787,1715374706010,1.42,-1.57,0.0,273.74,123.17,-489.2
788,1715374706020,1.22875,-1.3075,0.10500000000000001,269.83375,108.49125000000001,-483.09625
789,1715374706030,0.9099999999999999,-0.8699999999999999,0.28,242.49,5.74,-440.37
790,1715374706040,0.91,-0.87,0.28,242.49,5.74,-440.37
791,1715374706050,0.91,-0.87,0.28,242.49,5.74,-440.37
792,1715374706060,0.32142857142857145,-0.7442857142857143,0.07428571428571429,180.18142857142857,58.037142857142854,-392.3957142857143
793,1715374706070,-0.12,-0.65,-0.08,24.41,188.78,-272.46
794,1715374706080,-0.12,-0.65,-0.08,24.41,188.78,-272.46
795,1715374706090,-0.12,-0.65,-0.08,24.41,188.78,-272.46
796,1715374706100,-0.6950000000000001,-0.4625,-0.46124999999999994,-7.311249999999999,173.83625,-184.845
797,1715374706110,-1.04,-0.35,-0.69,-60.18,148.93,-38.82
798,1715374706120,-1.04,-0.35,-0.6900000000000001,-60.18,148.93,-38.82
799,1715374706130,-1.04,-0.35,-0.69,-60.18,148.93,-38.82
800,1715374706140,-1.17125,-0.49875,-0.8212499999999999,-76.16125,53.06125,83.24875
801,1715374706150,-1.19,-0.52,-0.84,-85.75,-4.46,156.49
802,1715374706160,-1.19,-0.52,-0.84,-85.75,-4.46,156.49
803,1715374706170,-1.19,-0.52,-0.84,-85.75,-4.46,156.49
804,1715374706180,-0.45499999999999996,-1.45625,-0.90125,-156.51999999999998,-81.57375,332.19875
805,1715374706190,-0.35,-1.59,-0.91,-166.63,-92.59,357.3
806,1715374706200,-0.35,-1.59,-0.91,-166.63,-92.59,357.3
807,1715374706210,-0.14285714285714282,-1.6414285714285715,-0.87,-172.60285714285715,-102.17285714285715,377.6857142857143
808,1715374706220,1.1,-1.95,-0.63,-208.44,-159.67,500.0
809,1715374706230,1.1,-1.95,-0.63,-208.44,-159.67,500.0
810,1715374706240,1.1,-1.95,-0.63,-208.44,-159.67,500.0
811,1715374706250,1.1,-1.9500000000000002,-0.63,-208.44,-159.67,500.0
812,1715374706260,1.417142857142857,-1.77,-0.26999999999999996,-243.54,-184.67285714285714,462.74857142857144
813,1715374706270,1.47,-1.74,-0.21,-249.39000000000001,-188.84,456.54
814,1715374706280,1.47,-1.74,-0.21,-249.39,-188.84,456.54
815,1715374706290,1.4437499999999999,-1.635,-0.09375,-246.59625,-183.395,443.61
816,1715374706300,1.4,-1.46,0.1,-241.94,-174.32,422.06
817,1715374706310,1.4,-1.4599999999999997,0.1,-241.94,-174.32,422.06
818,1715374706320,1.4,-1.46,0.1,-241.94,-174.32,422.06
819,1715374706330,1.40625,-1.29125,0.16875,-228.02124999999998,-144.63875,399.51625
820,1715374706340,1.41,-1.19,0.21,-219.67,-126.83,385.99
821,1715374706350,1.41,-1.19,0.21,-219.67,-126.83,385.99000000000007
822,1715374706360,1.41,-1.19,0.21,-219.67,-126.83,385.99
823,1715374706370,1.2,-1.21625,0.105,-178.51,-139.37,345.9325
824,1715374706380,1.17,-1.22,0.09,-164.79,-143.55,332.58
825,1715374706390,1.17,-1.22,0.09,-164.79,-143.55,332.58
826,1715374706400,1.17,-1.22,0.09,-164.79,-143.55,332.58
827,1715374706410,1.3071428571428572,-1.6657142857142857,-0.055714285714285716,-210.7242857142857,-118.23,292.86857142857144
828,1715374706420,1.33,-1.74,-0.08,-218.38,-114.01,286.25
829,1715374706430,1.33,-1.74,-0.08,-218.37999999999997,-114.01,286.25
830,1715374706440,1.33,-1.74,-0.08,-218.38,-114.01,286.25
831,1715374706450,2.28,-3.51,-0.11,-254.94,-174.8,327.94
832,1715374706460,2.28,-3.5100000000000002,-0.11,-254.94,-174.8,327.94
833,1715374706470,2.28,-3.51,-0.11,-254.94,-174.8,327.94
834,1715374706480,2.517142857142857,-3.2357142857142853,0.07857142857142856,-240.4842857142857,-176.28285714285715,328.6471428571428
835,1715374706490,3.94,-1.59,1.21,-153.75,-185.18,332.89
836,1715374706500,3.94,-1.59,1.21,-153.75,-185.18,332.89
837,1715374706510,3.94,-1.59,1.2099999999999997,-153.75,-185.18,332.89
838,1715374706520,3.6925,-1.35375,1.36,-157.48125,-55.61,212.155
839,1715374706530,3.28,-0.96,1.61,-163.7,160.34,10.93
840,1715374706540,3.28,-0.96,1.61,-163.7,160.34,10.929999999999998
841,1715374706550,3.28,-0.96,1.61,-163.7,160.34,10.93
842,1715374706560,3.28,-0.96,1.61,-163.7,160.34,10.93
843,1715374706570,2.4425,-1.7725,0.6475000000000001,-58.449999999999996,262.49625000000003,-24.51375
844,1715374706580,1.94,-2.26,0.07,4.7,323.79,-45.78000000000001
845,1715374706590,1.94,-2.26,0.07,4.7,323.79,-45.78
846,1715374706600,1.835,-1.395,-0.135,4.7,323.79,-45.78
847,1715374706610,1.73,-0.53,-0.34,36.22142857142857,254.95428571428573,-35.70857142857143
848,1715374706620,1.73,-0.53,-0.34,48.83,227.42,-31.68
849,1715374706630,1.73,-0.53,-0.34,48.83,227.42,-31.68
850,1715374706640,1.73,-0.53,-0.34,48.83,227.42,-31.68
851,1715374706650,1.73,-0.53,-0.34,48.83,227.42,-31.68
852,1715374706660,1.4728571428571426,-0.45285714285714285,0.10571428571428572,49.77285714285714,155.95142857142855,-136.73142857142858
853,1715374706670,1.43,-0.44,0.18,49.93,144.04,-154.24
854,1715374706680,1.1814285714285713,-0.43142857142857144,0.5828571428571429,55.61285714285714,150.29999999999998,-156.15714285714284
855,1715374706690,1.14,-0.43,0.65,69.82,165.95,-160.95
856,1715374706700,1.14,-0.43,0.65,69.82,165.95,-160.95
857,1715374706710,1.14,-0.43,0.65,69.82,165.95,-160.95
858,1715374706720,1.0875000000000001,-0.35125,0.47500000000000003,146.35625,149.71875,-202.92374999999998
859,1715374706730,1.08,-0.34,0.45,157.29,147.4,-208.92
860,1715374706740,1.08,-0.34,0.45,157.29,147.4,-208.92
861,1715374706750,1.08,-0.34,0.45,157.29,147.4,-208.92
862,1715374706760,0.95,-0.65,0.57,324.95,71.41,-277.4
863,1715374706770,0.95,-0.65,0.57,324.95,71.41,-277.4
864,1715374706780,0.95,-0.65,0.57,324.95,71.41,-277.4
865,1715374706790,1.00125,-0.665,0.5599999999999999,320.3425,83.60249999999999,-277.35499999999996
866,1715374706800,1.36,-0.77,0.49,288.09,168.95,-277.04
867,1715374706810,1.36,-0.77,0.49,288.09,168.95,-277.04
868,1715374706820,1.36,-0.77,0.49,288.09,168.95,-277.04
869,1715374706830,1.69,-0.845,0.585,288.09,168.95,-277.04
870,1715374706840,2.02,-0.92,0.68,256.65,213.68,-331.6
871,1715374706850,2.02,-0.92,0.68,256.65,213.68,-331.6
872,1715374706860,2.02,-0.92,0.68,256.65,213.68,-331.6
873,1715374706870,2.414285714285714,-0.9942857142857143,1.1371428571428572,194.6385714285714,317.33714285714285,-299.7942857142857
874,1715374706880,2.71,-1.05,1.48,148.13,395.08,-275.94
875,1715374706890,2.71,-1.05,1.48,148.13,395.08,-275.94
876,1715374706900,2.71,-1.05,1.48,148.13,395.08,-275.94
877,1715374706910,2.0242857142857145,-1.1642857142857144,0.7157142857142856,220.56285714285715,371.4614285714286,-299.09142857142854
878,1715374706920,1.75,-1.21,0.41,317.14,339.97,-329.96
879,1715374706930,1.75,-1.21,0.41,317.14,339.97,-329.96
880,1715374706940,1.75,-1.21,0.41,317.14,339.97,-329.96
881,1715374706950,0.7428571428571429,-0.91,-0.3614285714285715,315.56857142857143,244.97,-331.70285714285717
882,1715374706960,0.34,-0.79,-0.67,314.94,206.97,-332.4
883,1715374706970,0.34,-0.79,-0.67,314.94,206.97,-332.4
884,1715374706980,0.34,-0.79,-0.67,314.94,206.97,-332.4
885,1715374706990,-1.1,-0.41,-1.14,94.32625,72.49125000000001,-218.43125
886,1715374707000,-1.1,-0.41,-1.14,62.81,53.28000000000001,-202.15
887,1715374707010,-1.1,-0.41,-1.14,62.81,53.28,-202.15
888,1715374707020,-1.10375,-0.5075,-1.08625,46.337500000000006,36.09125,-172.6925
889,1715374707030,-1.13,-1.19,-0.71,-68.97,-84.23,33.51
890,1715374707040,-1.13,-1.19,-0.71,-68.97,-84.23,33.51
891,1715374707050,-1.13,-1.19,-0.71,-68.97,-84.23,33.51
892,1715374707060,-0.977142857142857,-1.2014285714285715,-0.7257142857142858,-66.35428571428572,-96.25428571428571,73.97571428571428
893,1715374707070,-0.06,-1.27,-0.82,-50.66,-168.4,316.77
894,1715374707080,-0.06,-1.27,-0.82,-50.66,-168.4,316.77
895,1715374707090,-0.06,-1.27,-0.82,-50.660000000000004,-168.4,316.77
896,1715374707100,0.37125,-1.36375,-0.84625,-85.92875000000001,-181.46875,356.0925
897,1715374707110,1.09,-1.52,-0.89,-144.71,-203.25,421.63
898,1715374707120,1.09,-1.52,-0.89,-144.71,-203.25,421.63
899,1715374707130,1.09,-1.52,-0.89,-144.71,-203.25,421.63
900,1715374707140,1.2185714285714286,-1.5342857142857143,-0.7828571428571429,-166.31857142857143,-193.44,417.18142857142857
901,1715374707150,1.27,-1.54,-0.74,-195.13,-180.36,411.25
902,1715374707160,1.27,-1.54,-0.74,-195.13,-180.36,411.25
903,1715374707170,1.27,-1.5400000000000003,-0.74,-195.12999999999997,-180.35999999999999,411.25
904,1715374707180,1.31375,-1.3475000000000001,-1.1775,-250.61375,-245.99375,374.9375
905,1715374707190,1.32,-1.32,-1.24,-258.54,-255.37,369.75
906,1715374707200,1.32,-1.32,-1.24,-258.54,-255.37,369.75
907,1715374707210,1.32,-1.32,-1.24,-258.54,-255.37000000000003,369.75
908,1715374707220,1.5675,-1.5975,-0.6325,-333.0675,-274.5475,341.8725
909,1715374707230,1.65,-1.69,-0.43,-357.91,-280.94,332.58
910,1715374707240,1.65,-1.69,-0.43,-357.91,-280.94,332.58
911,1715374707250,1.65,-1.69,-0.43,-357.91,-280.94,332.58
912,1715374707260,1.86,-1.53,0.01,-275.7,-258.42,296.94
913,1715374707270,1.86,-1.53,0.01,-275.7,-258.42,296.94
914,1715374707280,1.86,-1.53,0.01,-275.7,-258.42,296.94
915,1715374707290,1.86,-1.53,0.01,-275.7,-258.42,296.94
916,1715374707300,1.81,-2.1,-0.3,-253.23,-240.11,232.79
917,1715374707310,1.81,-2.1,-0.3,-253.23,-240.10999999999999,232.79
918,1715374707320,1.81,-2.1,-0.3,-253.23,-240.11,232.79
919,1715374707330,1.90875,-2.1550000000000002,-0.27999999999999997,-247.66875,-242.48250000000002,237.695
920,1715374707340,2.6,-2.54,-0.14,-208.74,-259.09,272.03
921,1715374707350,2.6,-2.54,-0.14,-208.74,-259.09,272.03
922,1715374707360,2.6,-2.54,-0.14,-208.74,-259.09,272.03
923,1715374707370,2.685,-2.4375,0.02499999999999998,-211.18125,-240.635,265.69
924,1715374707380,3.28,-1.72,1.18,-228.27,-111.45,221.31
925,1715374707390,3.28,-1.72,1.18,-228.27,-111.45,221.31
926,1715374707400,3.28,-1.72,1.18,-228.27,-111.45,221.31
927,1715374707410,2.86,-1.63,1.16,-169.92000000000002,-1.2199999999999989,143.645
928,1715374707420,2.44,-1.5400000000000003,1.14,-111.57000000000001,109.01,65.98
929,1715374707430,2.44,-1.54,1.14,-111.57,109.01,65.98
930,1715374707440,2.44,-1.54,1.14,-111.57,109.01,65.98
931,1715374707450,2.337142857142857,-1.4085714285714286,0.3628571428571428,-4.662857142857141,78.74428571428572,20.650000000000002
932,1715374707460,2.26,-1.31,-0.22,137.88,38.39,-39.79
933,1715374707470,2.26,-1.31,-0.22,137.88,38.39,-39.79
934,1715374707480,2.26,-1.31,-0.22,137.88,38.39,-39.79
935,1715374707490,2.1475,-0.9425,0.0275,140.9475,12.485,-116.515
936,1715374707500,2.11,-0.82,0.11,141.97,3.85,-142.09
937,1715374707510,2.11,-0.82,0.11,141.97,3.85,-142.09
938,1715374707520,1.7874999999999999,-0.865,0.33499999999999996,114.1825,81.4825,-145.84
939,1715374707530,1.68,-0.88,0.41,104.92,107.36,-147.09
940,1715374707540,1.68,-0.88,0.41,104.92,107.36,-147.09
941,1715374707550,1.68,-0.88,0.41,104.92,107.36,-147.09
942,1715374707560,1.43,-0.62,0.23,113.83,167.3,-159.35999999999999
943,1715374707570,1.43,-0.62,0.23,113.83,167.3,-159.36
944,1715374707580,1.43,-0.62,0.23,113.83,167.3,-159.36
945,1715374707590,1.3875,-0.625,0.23500000000000001,120.84125,161.63125000000002,-167.95875
946,1715374707600,1.09,-0.66,0.27,169.92,121.95,-228.15
947,1715374707610,1.09,-0.66,0.27,169.92,121.95,-228.15
948,1715374707620,1.09,-0.66,0.27,169.92,121.95,-228.15
949,1715374707630,1.1085714285714288,-0.6728571428571428,0.31285714285714283,184.53428571428572,118.38285714285715,-233.25
950,1715374707640,1.22,-0.75,0.57,272.22,96.98,-263.85
951,1715374707650,1.22,-0.75,0.57,272.22,96.98,-263.85
952,1715374707660,1.22,-0.75,0.57,272.22,96.98,-263.85
953,1715374707670,1.22,-0.75,0.57,272.22,96.98,-263.85
954,1715374707680,1.79,-0.96,0.68,287.9,199.77,-315.92
955,1715374707690,1.7900000000000003,-0.96,0.68,287.9,199.77,-315.92
956,1715374707700,1.79,-0.96,0.68,287.9,199.77,-315.92
957,1715374707710,2.0587500000000003,-1.24125,0.58625,220.575,325.8075,-284.945
958,1715374707720,2.22,-1.41,0.53,180.18,401.43,-266.36
959,1715374707730,2.22,-1.41,0.53,180.18,401.43,-266.36
960,1715374707740,2.22,-1.41,0.53,180.18,401.43,-266.36
961,1715374707750,2.1900000000000004,-1.725,0.3875,267.2925,367.4175,-296.57
962,1715374707760,2.18,-1.83,0.34,296.33,356.08,-306.64
963,1715374707770,2.18,-1.83,0.34,296.33,356.08,-306.64
964,1715374707780,2.18,-1.83,0.34,296.33,356.08,-306.64
965,1715374707790,1.7857142857142858,-1.7785714285714285,0.2285714285714286,342.0185714285714,307.7571428571428,-338.0828571428571
966,1715374707800,1.72,-1.77,0.21,456.24,186.95,-416.69
967,1715374707810,1.72,-1.77,0.21,456.24,186.95,-416.69
968,1715374707820,1.72,-1.77,0.21,456.24,186.95,-416.69
969,1715374707830,0.78,-1.09,-0.27,424.5,52.8,-452.82
970,1715374707840,0.78,-1.09,-0.27,424.5,52.8,-452.82
971,1715374707850,0.78,-1.09,-0.27,424.5,52.8,-452.82
972,1715374707860,0.78,-1.09,-0.27,424.5,52.8,-452.82
973,1715374707870,0.78,-1.09,-0.27,424.5,52.8,-452.82
974,1715374707880,0.78,-1.09,-0.27,424.5,52.8,-452.82
975,1715374707890,-0.3514285714285714,-0.55,-0.4585714285714286,348.90000000000003,-88.25142857142858,-437.7
976,1715374707900,-0.915,-0.505,-0.48624999999999996,244.2225,-99.4675,-334.21875
977,1715374707910,-1.5400000000000003,-0.58,-0.48,90.76,-78.98,-165.95
978,1715374707920,-1.54,-0.58,-0.48,90.76,-78.98,-165.95
979,1715374707930,-1.54,-0.58,-0.48,90.76,-78.98,-165.95
980,1715374707940,-1.4114285714285715,-0.7214285714285714,-0.46714285714285714,-14.31714285714285,-23.210000000000004,3.3700000000000045
981,1715374707950,-1.24,-0.91,-0.45,-154.42,51.15,229.13
982,1715374707960,-1.24,-0.91,-0.45,-154.42,51.15,229.13
983,1715374707970,-1.24,-0.91,-0.45,-154.42,51.15,229.13
984,1715374707980,-1.0842857142857143,-1.0257142857142856,-0.4857142857142857,-164.57714285714286,41.94142857142857,262.60285714285715
985,1715374707990,-0.15,-1.72,-0.7,-225.52,-13.31,463.44
986,1715374708000,-0.15,-1.72,-0.7,-225.52,-13.31,463.44
987,1715374708010,-0.15,-1.72,-0.7,-225.52,-13.31,463.44
988,1715374708020,0.036250000000000004,-1.7687499999999998,-0.6799999999999999,-224.68875,-28.12625,476.34125
989,1715374708030,1.34,-2.11,-0.54,-218.87,-131.84,566.65
990,1715374708040,1.34,-2.11,-0.54,-218.87000000000003,-131.84,566.65
991,1715374708050,1.34,-2.11,-0.54,-218.87,-131.84,566.65
992,1715374708060,1.55875,-1.795,-0.18125000000000002,-229.8125,-137.8775,517.81
993,1715374708070,1.59,-1.75,-0.13,-233.46,-139.89,501.53
994,1715374708080,1.59,-1.75,-0.13,-233.46,-139.89,501.53000000000003
995,1715374708090,1.57375,-1.74125,-0.12125,-233.46,-139.89,501.53
996,1715374708100,1.46,-1.68,-0.06,-217.53,-140.38,469.91
997,1715374708110,1.46,-1.68,-0.06,-217.53,-140.38,469.91
998,1715374708120,1.4599999999999997,-1.68,-0.06,-217.53,-140.38,469.91
999,1715374708130,1.5025,-1.65,-0.105,-214.02,-148.81875,465.23375000000004
1000,1715374708140,1.63,-1.5599999999999998,-0.24,-189.44999999999996,-207.89,432.5
