id,timestamp,acc_x,acc_y,acc_z,gyro_x,gyro_y,gyro_z
0,1715374683490,0.0,0.17,1.13,12.51,-10.74,-5.68
1,1715374683500,-0.0225,0.155,1.145,37.005,-18.795,6.455
2,1715374683510,-0.03,0.15,1.15,45.17,-21.48,10.5
3,1715374683520,-0.03,0.15,1.15,45.17,-21.48,10.5
4,1715374683530,-0.03,0.15,1.15,45.17,-21.48,10.5
5,1715374683540,-0.012499999999999999,0.1925,1.1549999999999998,40.805,-18.017500000000002,9.92
6,1715374683550,0.04,0.32,1.17,27.71,-7.63,8.18
7,1715374683560,0.04,0.32,1.17,27.71,-7.63,8.18
8,1715374683570,0.025,0.29500000000000004,1.165,17.855,-3.815,5.615
9,1715374683580,0.01,0.27,1.16,8.0,0.0,3.05
10,1715374683590,0.0071428571428571435,0.24714285714285714,1.1485714285714284,5.331428571428572,1.9000000000000001,4.307142857142857
11,1715374683600,0.0,0.19,1.12,-1.34,6.65,7.45
12,1715374683610,0.0,0.19,1.12,-1.34,6.65,7.45
13,1715374683620,0.0,0.19,1.12,-1.34,6.65,7.45
14,1715374683630,-0.005,0.195,1.1225,-1.22625,7.1537500000000005,8.85375
15,1715374683640,-0.02,0.21,1.13,-0.43,10.68,18.68
16,1715374683650,-0.02,0.21,1.13,-0.43,10.679999999999998,18.68
17,1715374683660,-0.01375,0.27875,1.14875,-12.86125,13.848749999999999,24.8175
18,1715374683670,-0.01,0.32,1.16,-20.32,15.75,28.5
19,1715374683680,-0.01,0.32,1.16,-20.32,15.75,28.5
20,1715374683690,-0.01,0.32,1.16,-20.32,15.75,28.5
21,1715374683700,0.005,0.2225,1.1075,-24.1675,4.0725,16.83
22,1715374683710,0.01,0.19,1.09,-25.45,0.18,12.94
23,1715374683720,0.01,0.19,1.09,-25.45,0.18,12.94
24,1715374683730,0.0075,0.1925,1.085,-25.45,0.18,12.94
25,1715374683740,-0.01,0.21,1.05,40.34,-18.86,18.92
26,1715374683750,-0.01,0.21,1.05,40.339999999999996,-18.859999999999996,18.919999999999998
27,1715374683760,-0.01,0.21,1.05,40.34,-18.86,18.92
28,1715374683770,-0.01,0.21,1.05,40.339999999999996,-18.859999999999996,18.919999999999998
29,1715374683780,0.03,0.29,0.99,43.09,-26.18,4.33
30,1715374683790,0.03,0.29,0.99,43.09,-26.18,4.33
31,1715374683800,0.03,0.29,0.99,43.089999999999996,-26.18,4.33
32,1715374683810,0.0275,0.27249999999999996,0.9575,43.09,-26.18,4.33
33,1715374683820,0.02,0.22,0.86,49.44,-26.79,7.51
34,1715374683830,0.02,0.22,0.86,49.44,-26.79,7.51
35,1715374683840,0.02,0.22,0.86,49.44,-26.79,7.51
36,1715374683850,0.02375,0.235,0.75875,43.2375,-33.65625,8.67625
37,1715374683860,0.03,0.26,0.59,32.9,-45.1,10.62
38,1715374683870,0.03,0.26,0.59,32.9,-45.1,10.62
39,1715374683880,0.03,0.26,0.59,32.9,-45.1,10.62
40,1715374683890,0.08142857142857142,0.20285714285714285,0.45285714285714285,11.004285714285713,-55.85285714285715,11.040000000000001
41,1715374683900,0.12,0.16,0.35,-18.19,-70.19,11.6
42,1715374683910,0.12,0.16,0.35,-18.19,-70.19,11.6
43,1715374683920,0.12,0.16,0.35,-18.19,-70.19,11.6
44,1715374683930,0.24857142857142858,-0.011428571428571429,0.05714285714285714,-74.99714285714286,-103.28285714285714,17.349999999999998
45,1715374683940,0.3,-0.08,-0.06,-97.72,-116.52,19.65
46,1715374683950,0.3,-0.08,-0.06,-97.72,-116.52,19.65
47,1715374683960,0.3,-0.08,-0.06,-97.72,-116.52,19.65
48,1715374683970,0.43125,-0.5525,-0.2525,-166.50375000000003,-169.01125,25.5825
49,1715374683980,0.45,-0.62,-0.28,-176.33,-176.51,26.43
50,1715374683990,0.45,-0.62,-0.28,-176.33,-176.51,26.43
51,1715374684000,0.45,-0.62,-0.28,-176.33,-176.51,26.43
52,1715374684010,0.59,-0.9962500000000001,-0.27125,-250.88875000000002,-205.51624999999999,43.67625
53,1715374684020,0.61,-1.05,-0.27,-261.54,-209.66,46.14
54,1715374684030,0.61,-1.05,-0.27,-261.54,-209.66,46.14
55,1715374684040,0.64375,-1.0825,-0.26125000000000004,-269.83250000000004,-214.42,45.355000000000004
56,1715374684050,0.88,-1.31,-0.2,-327.88,-247.74,39.86
57,1715374684060,0.88,-1.31,-0.2,-327.88,-247.74,39.86
58,1715374684070,0.88,-1.31,-0.2,-327.88,-247.74,39.86
59,1715374684080,0.93,-1.3425,-0.095,-317.0475,-265.18,34.7625
60,1715374684090,1.08,-1.44,0.22,-284.55,-317.5,19.47
61,1715374684100,1.08,-1.44,0.22,-284.55,-317.5,19.47
62,1715374684110,1.08,-1.44,0.22,-284.55,-317.5,19.47
63,1715374684120,1.0857142857142859,-1.3657142857142859,0.3628571428571429,-254.62428571428572,-291.7628571428571,40.92142857142857
64,1715374684130,1.09,-1.31,0.47,-232.18,-272.46,57.01
65,1715374684140,1.09,-1.31,0.47,-232.18,-272.46,57.01
66,1715374684150,1.09,-1.31,0.47,-232.18,-272.46,57.01
67,1715374684160,1.1328571428571428,-1.3457142857142856,0.29857142857142854,-247.35142857142858,-187.05285714285714,87.26714285714286
68,1715374684170,1.15,-1.36,0.23,-253.42,-152.89,99.37
69,1715374684180,1.15,-1.36,0.23,-253.42,-152.89,99.37
70,1715374684190,1.15,-1.36,0.23,-253.42,-152.89,99.37
71,1715374684200,1.41,-1.97,-0.1,-285.64,-156.68,109.56000000000002
72,1715374684210,1.41,-1.97,-0.1,-285.64,-156.68,109.56
73,1715374684220,1.41,-1.97,-0.1,-285.64,-156.68,109.56
74,1715374684230,1.5125,-2.015,-0.04000000000000001,-286.47249999999997,-162.6,113.565
75,1715374684240,2.23,-2.3300000000000005,0.38,-292.3,-204.04,141.6
76,1715374684250,2.23,-2.33,0.38,-292.3,-204.04,141.6
77,1715374684260,2.23,-2.33,0.38,-292.3,-204.04,141.6
78,1715374684270,2.30375,-2.2575000000000003,0.58875,-297.54125,-179.39,136.34375
79,1715374684280,2.82,-1.75,2.05,-334.23,-6.84,99.55
80,1715374684290,2.82,-1.75,2.05,-334.23,-6.839999999999999,99.55
81,1715374684300,2.82,-1.75,2.05,-334.23,-6.84,99.55
82,1715374684310,2.265,-1.70125,2.14375,-301.0425,50.1525,84.6275
83,1715374684320,1.34,-1.62,2.3,-201.48,221.13,39.86
84,1715374684330,1.34,-1.6199999999999999,2.3,-201.48,221.12999999999997,39.86
85,1715374684340,1.34,-1.6199999999999999,2.3,-201.48,221.12999999999997,39.86
86,1715374684350,1.12,-1.3050000000000002,1.5,-9.429999999999993,112.17999999999999,24.475
87,1715374684360,0.9,-0.99,0.7,182.62,3.23,9.09
88,1715374684370,0.9,-0.99,0.7,182.62000000000003,3.23,9.09
89,1715374684380,0.9,-0.99,0.7,182.62,3.23,9.09
90,1715374684390,1.1785714285714286,-0.4042857142857143,0.8714285714285713,237.9842857142857,-51.34857142857144,-39.12428571428571
91,1715374684400,1.29,-0.17,0.94,260.13,-73.18,-58.41
92,1715374684410,1.29,-0.17,0.94,260.13,-73.18,-58.41
93,1715374684420,1.2900000000000003,-0.17,0.9400000000000001,260.13,-73.17999999999999,-58.410000000000004
94,1715374684430,1.1025,-0.16375,1.04,216.94875,4.407499999999998,-73.1725
95,1715374684440,0.99,-0.16,1.1,191.04,50.96,-82.03
96,1715374684450,0.99,-0.16,1.1,191.04,50.96,-82.03
97,1715374684460,0.99,-0.16,1.1,191.04,50.96,-82.03
98,1715374684470,1.0075,-0.37875,0.9337500000000001,217.6275,82.05375,-103.62375
99,1715374684480,1.01,-0.41,0.91,233.58,100.71,-116.58
100,1715374684490,1.01,-0.41,0.91,233.58,100.71,-116.58
101,1715374684500,1.01,-0.41,0.91,233.58,100.71,-116.58
102,1715374684510,2.04,-1.03,1.57,331.24000000000007,151.18,-196.04
103,1715374684520,2.04,-1.03,1.57,331.24,151.18,-196.04
104,1715374684530,2.04,-1.03,1.57,331.24,151.18,-196.04
105,1715374684540,2.204285714285714,-1.2042857142857142,1.5514285714285714,331.24000000000007,151.18,-196.04
106,1715374684550,3.19,-2.25,1.44,315.5971428571429,387.2285714285714,-249.45714285714286
107,1715374684560,3.19,-2.25,1.44,312.99,426.57,-258.36
108,1715374684570,3.19,-2.25,1.44,312.99,426.57,-258.36
109,1715374684580,3.1825,-2.3,1.305,337.02250000000004,406.5525,-246.20000000000002
110,1715374684590,3.16,-2.45,0.9,409.12,346.5,-209.72
111,1715374684600,3.16,-2.45,0.9,409.12,346.5,-209.72
112,1715374684610,3.16,-2.45,0.9,409.12,346.5,-209.72
113,1715374684620,3.105,-2.40625,0.89875,410.93625,342.5625,-212.00125
114,1715374684630,2.72,-2.1,0.89,423.65,315.0,-227.97
115,1715374684640,2.72,-2.1,0.89,423.65,315.0,-227.97
116,1715374684650,2.72,-2.1,0.89,423.65,315.0,-227.97
117,1715374684660,2.17625,-1.94625,0.53,418.54249999999996,276.25124999999997,-215.265
118,1715374684670,1.27,-1.69,-0.07,410.03000000000003,211.67,-194.09
119,1715374684680,1.27,-1.69,-0.07,410.03000000000003,211.67,-194.09
120,1715374684690,1.27,-1.69,-0.07,410.03,211.67,-194.09
121,1715374684700,0.685,-1.3900000000000001,-0.5850000000000001,391.845,101.53,-187.65
122,1715374684710,0.1,-1.09,-1.1,373.66,-8.61,-181.21
123,1715374684720,0.1,-1.09,-1.1,373.66,-8.61,-181.21
124,1715374684730,0.1,-1.09,-1.1,373.66,-8.61,-181.21
125,1715374684740,-0.26571428571428574,-1.072857142857143,-0.9171428571428571,268.95714285714286,-63.644285714285715,-162.79857142857145
126,1715374684750,-0.54,-1.06,-0.78,190.43,-104.92,-148.99
127,1715374684760,-0.54,-1.06,-0.78,190.43,-104.92,-148.99
128,1715374684770,-0.54,-1.06,-0.78,190.43,-104.92,-148.99
129,1715374684780,-0.86,-1.14,-0.89,51.794285714285714,-114.03428571428572,5.03857142857143
130,1715374684790,-0.86,-1.14,-0.89,-3.66,-117.68,66.65
131,1715374684800,-0.86,-1.14,-0.89,-3.66,-117.68,66.65
132,1715374684810,-0.86,-1.14,-0.89,-3.66,-117.68,66.65
133,1715374684820,-0.86,-1.14,-0.89,-3.66,-117.67999999999999,66.65
134,1715374684830,-0.7742857142857142,-1.157142857142857,-0.8614285714285714,-26.922857142857143,-118.44714285714285,93.61
135,1715374684840,-0.26,-1.26,-0.69,-166.5,-123.05,255.37
136,1715374684850,-0.26,-1.26,-0.69,-166.5,-123.05,255.37
137,1715374684860,-0.17500000000000002,-1.2375,-0.6875,-172.8325,-127.57374999999999,262.46500000000003
138,1715374684870,0.42,-1.08,-0.67,-217.16,-159.24,312.13
139,1715374684880,0.42,-1.08,-0.67,-217.16,-159.24,312.13
140,1715374684890,0.42,-1.08,-0.67,-217.16,-159.24,312.13
141,1715374684900,0.42,-1.08,-0.67,-217.16,-159.24,312.13
142,1715374684910,0.42,-1.08,-0.67,-217.16,-159.24,312.13
143,1715374684920,0.44625,-1.06125,-0.6687500000000001,-209.54625,-169.41750000000002,310.6425
144,1715374684930,0.815,-0.845,-0.575,-169.86,-242.70499999999998,308.745
145,1715374684940,1.0,-0.76,-0.48999999999999994,-183.47,-244.75,317.25999999999993
146,1715374684950,1.0,-0.76,-0.49,-183.47,-244.75,317.26
147,1715374684960,1.0,-0.76,-0.49,-183.47,-244.75,317.26
148,1715374684970,1.102857142857143,-0.78,-0.43571428571428567,-199.6357142857143,-240.75571428571428,308.6114285714285
149,1715374684980,1.36,-0.83,-0.3,-240.05,-230.77,286.99
150,1715374684990,1.36,-0.83,-0.3,-240.05,-230.77,286.99
151,1715374685000,1.36,-0.83,-0.3,-240.05,-230.77,286.99
152,1715374685010,1.9528571428571428,-1.2657142857142856,0.09285714285714286,-266.88714285714286,-205.32142857142858,285.65285714285716
153,1715374685020,2.19,-1.44,0.25,-302.67,-171.39,283.87
154,1715374685030,2.19,-1.44,0.25,-302.67,-171.39,283.87
155,1715374685040,2.19,-1.44,0.25,-302.67,-171.39,283.87
156,1715374685050,2.85,-2.4,-0.09,-433.88142857142856,-118.16714285714285,280.52714285714285
157,1715374685060,2.85,-2.4,-0.09,-532.29,-78.25,278.02
158,1715374685070,2.85,-2.4,-0.09,-532.29,-78.25,278.02
159,1715374685080,2.85,-2.4,-0.09,-532.29,-78.25,278.02
160,1715374685090,4.752857142857144,-1.4314285714285713,2.5928571428571425,-184.43285714285713,-313.1928571428571,132.92714285714285
161,1715374685100,5.07,-1.27,3.04,-45.29,-407.17,74.89
162,1715374685110,5.07,-1.27,3.04,-45.29,-407.17,74.89
163,1715374685120,5.07,-1.27,3.04,-45.29,-407.17,74.89
164,1715374685130,3.13,-1.4,2.63,-72.69,155.7,6.35
165,1715374685140,3.13,-1.4,2.63,-72.69,155.7,6.35
166,1715374685150,3.13,-1.4,2.63,-72.69,155.7,6.35
167,1715374685160,2.9074999999999998,-1.3074999999999999,2.06,-72.69,155.7,6.35
168,1715374685170,2.24,-1.03,0.35,107.42,219.24,12.94
169,1715374685180,2.24,-1.03,0.35,107.42,219.24,12.94
170,1715374685190,2.1225,-0.93,0.3075,146.62,175.35500000000002,-9.917499999999999
171,1715374685200,1.77,-0.63,0.18,264.22,43.7,-78.49
172,1715374685210,1.77,-0.63,0.18,264.22,43.7,-78.49
173,1715374685220,1.77,-0.63,0.18,264.22,43.7,-78.49
174,1715374685230,1.66875,-0.52875,0.29625,240.3025,76.79750000000001,-74.71375
175,1715374685240,1.5,-0.36,0.49,200.44,131.96,-68.42
176,1715374685250,1.5,-0.36,0.49,200.44,131.96,-68.42
177,1715374685260,1.5,-0.36,0.48999999999999994,200.44,131.96,-68.42
178,1715374685270,1.4625,-0.22874999999999998,0.45999999999999996,189.995,145.92125000000001,-67.985
179,1715374685280,1.4,-0.01,0.41,116.88,243.65,-64.94
180,1715374685290,1.4,-0.01,0.41,116.88,243.65,-64.94
181,1715374685300,1.4,-0.01,0.41,116.88,243.65,-64.94
182,1715374685310,1.3657142857142859,-0.19,0.4485714285714285,141.3642857142857,259.24142857142857,-76.73857142857142
183,1715374685320,1.32,-0.43,0.5,174.01,280.03,-92.47
184,1715374685330,1.32,-0.43,0.5,174.01,280.03,-92.47
185,1715374685340,1.32,-0.43,0.5,174.01,280.03,-92.47
186,1715374685350,1.40125,-0.605,0.48124999999999996,229.20999999999998,268.54875,-123.17625
187,1715374685360,1.45,-0.71,0.47,262.33,261.66,-141.6
188,1715374685370,1.45,-0.71,0.47000000000000003,262.33,261.66,-141.6
189,1715374685380,1.45,-0.71,0.47,262.33,261.66,-141.6
190,1715374685390,1.47625,-1.165,0.60125,266.68,296.79125,-167.2
191,1715374685400,1.48,-1.23,0.62,269.29,317.87,-182.56
192,1715374685410,1.48,-1.23,0.62,269.29,317.87,-182.56
193,1715374685420,1.48,-1.23,0.62,269.29,317.87,-182.56
194,1715374685430,1.197142857142857,-1.2985714285714285,0.3457142857142857,325.5785714285715,277.85,-187.50142857142856
195,1715374685440,0.82,-1.39,-0.02,400.63,224.49,-194.09
196,1715374685450,0.82,-1.39,-0.02,400.63,224.49,-194.09
197,1715374685460,0.82,-1.39,-0.02,400.63,224.49,-194.09
198,1715374685470,0.09,-0.86,-0.71,469.85,-4.94,-219.24
199,1715374685480,0.09,-0.86,-0.71,469.85,-4.94,-219.24
200,1715374685490,0.09,-0.86,-0.71,469.85,-4.94,-219.24
201,1715374685500,-0.052857142857142846,-0.7285714285714285,-0.7071428571428571,426.74142857142857,-49.68857142857143,-204.26000000000002
202,1715374685510,-0.41,-0.4,-0.7,318.97,-161.56,-166.81
203,1715374685520,-0.41,-0.4,-0.7,318.97,-161.56,-166.81
204,1715374685530,-0.41,-0.4,-0.7,318.97,-161.56,-166.81
205,1715374685540,-0.44,-0.47714285714285715,-0.5199999999999999,318.96999999999997,-161.56,-166.81
206,1715374685550,-0.48,-0.58,-0.28,247.4225,-159.6525,-123.78
207,1715374685560,-0.48,-0.58,-0.28,32.78,-153.93,5.31
208,1715374685570,-0.48,-0.58,-0.28,32.78,-153.93,5.31
209,1715374685580,-0.31,-0.9299999999999999,-0.24000000000000002,-80.2,-108.52000000000001,98.54
210,1715374685590,-0.14,-1.28,-0.2,-193.18,-63.11,191.77
211,1715374685600,-0.14,-1.28,-0.2,-193.18,-63.11,191.77
212,1715374685610,-0.14,-1.28,-0.2,-193.18,-63.11,191.77
213,1715374685620,0.26,-1.6925,-0.30625,-239.82999999999998,-88.86,311.62625
214,1715374685630,0.5,-1.94,-0.37,-267.82,-104.31000000000002,383.54
215,1715374685640,0.5,-1.94,-0.37,-267.82,-104.31,383.54
216,1715374685650,0.5,-1.94,-0.37,-267.82,-104.31000000000002,383.54
217,1715374685660,1.4075,-1.6025,-0.4525,-238.67624999999998,-192.46625,415.32125
218,1715374685670,1.71,-1.49,-0.48,-221.19,-245.36,434.39
219,1715374685680,1.7099999999999997,-1.49,-0.48,-221.19,-245.35999999999999,434.39
220,1715374685690,1.71,-1.49,-0.48,-221.19,-245.36,434.39
221,1715374685700,1.7975,-1.47125,-0.26125,-149.28375,-343.55375000000004,357.8275
222,1715374685710,1.85,-1.46,-0.13,-106.14,-402.47,311.89
223,1715374685720,1.85,-1.4599999999999997,-0.13,-106.14,-402.46999999999997,311.89
224,1715374685730,1.85,-1.46,-0.13,-106.14,-402.47,311.89
225,1715374685740,1.8937499999999998,-1.10125,0.2025,-42.8325,-328.0325,349.93
226,1715374685750,1.9,-1.05,0.25,-21.73,-303.22,362.61
227,1715374685760,1.9,-1.05,0.25,-21.73,-303.21999999999997,362.61
228,1715374685770,1.8699999999999999,-0.9525,0.20500000000000002,-21.73,-303.22,362.61
229,1715374685780,1.78,-0.66,0.07,-101.68,-116.33,403.14
230,1715374685790,1.78,-0.66,0.07,-101.68,-116.33,403.14
231,1715374685800,1.78,-0.66,0.07,-101.67999999999999,-116.33,403.14
232,1715374685810,1.7575,-0.61,0.0575,-107.9075,-101.7575,374.7125
233,1715374685820,1.69,-0.46,0.02,-126.59,-58.04,289.43
234,1715374685830,1.69,-0.46,0.02,-126.59,-58.04,289.43
235,1715374685840,1.69,-0.46,0.02,-126.59,-58.04,289.43
236,1715374685850,1.74625,-0.83875,0.057499999999999996,-139.92625,-56.13375,277.33
237,1715374685860,1.84,-1.47,0.12,-233.28,-42.79,192.63
238,1715374685870,1.84,-1.47,0.12,-233.28,-42.79,192.62999999999997
239,1715374685880,1.84,-1.47,0.12,-233.28,-42.79,192.63
240,1715374685890,2.0275,-1.495,0.51375,-230.79875,-24.89625,187.5925
241,1715374685900,2.14,-1.51,0.75,-229.31,-14.16,184.57
242,1715374685910,2.14,-1.51,0.75,-229.31,-14.16,184.57
243,1715374685920,2.14,-1.51,0.75,-229.31,-14.16,184.57
244,1715374685930,2.3275,-1.335,0.9874999999999999,-203.485,93.60249999999999,119.60749999999999
245,1715374685940,2.44,-1.23,1.13,-187.99,158.26,80.63
246,1715374685950,2.44,-1.23,1.13,-187.99,158.26,80.63
247,1715374685960,2.44,-1.23,1.13,-187.99,158.26,80.63
248,1715374685970,2.2542857142857144,-1.4157142857142857,0.6085714285714285,-81.91857142857144,172.34571428571425,41.08714285714286
249,1715374685980,2.18,-1.49,0.4,-39.49,177.98,25.27
250,1715374685990,2.18,-1.49,0.4,-39.49,177.98,25.27
251,1715374686000,2.18,-1.49,0.4,-39.49,177.98,25.27
252,1715374686010,1.97,-0.79,0.13,73.94571428571429,100.15857142857143,-33.36571428571428
253,1715374686020,1.97,-0.79,0.13,119.32,69.03,-56.82
254,1715374686030,1.97,-0.79,0.13,119.32,69.03,-56.82
255,1715374686040,1.97,-0.79,0.13,119.32000000000001,69.03,-56.82
256,1715374686050,1.48,-0.41,-0.04,173.05374999999998,10.86875,-118.5075
257,1715374686060,1.48,-0.41,-0.04,180.73,2.56,-127.32
258,1715374686070,1.48,-0.41,-0.04,180.73,2.56,-127.32000000000001
259,1715374686080,1.48,-0.41,-0.04,180.73,2.56,-127.32
260,1715374686090,1.48,-0.41,-0.04,180.73,2.56,-127.32
261,1715374686100,1.48,-0.41,-0.04,180.73,2.56,-127.32
262,1715374686110,1.48,-0.41,-0.04,180.73,2.56,-127.32000000000001
263,1715374686120,1.2925,-0.255,-0.045,187.015,-10.6375,-137.7425
264,1715374686130,0.73,0.21,-0.06,205.87,-50.23,-169.01
265,1715374686140,0.7299999999999999,0.21,-0.06,205.87000000000003,-50.23,-169.01
266,1715374686150,0.73,0.21,-0.06,205.87,-50.23,-169.01
267,1715374686160,0.90625,0.18,0.10875000000000001,189.3925,-38.87875,-191.78375
268,1715374686170,1.2,0.13,0.39,161.93,-19.96,-229.74
269,1715374686180,1.2,0.13,0.39,161.93,-19.96,-229.74
270,1715374686190,1.2,0.13,0.39,161.93,-19.96,-229.74
271,1715374686200,1.2,0.13,0.39,161.93,-19.96,-229.74
272,1715374686210,1.2,0.13,0.39,161.93,-19.96,-229.74
273,1715374686220,1.475,-0.135,0.465,105.255,83.005,-253.695
274,1715374686230,1.75,-0.4,0.54,48.58,185.97,-277.65
275,1715374686240,2.035,-0.6950000000000001,0.62,71.685,196.865,-317.69
276,1715374686250,2.32,-0.99,0.7,94.79,207.76,-357.73
277,1715374686260,2.32,-0.99,0.7,94.79,207.76,-357.73
278,1715374686270,2.32,-0.99,0.7,94.79,207.76,-357.73
279,1715374686280,1.795,-1.1525,0.325,176.88375,89.1225,-384.84875
280,1715374686290,1.48,-1.25,0.1,226.14,17.94,-401.12
281,1715374686300,1.48,-1.25,0.1,226.14,17.94,-401.12
282,1715374686310,1.48,-1.25,0.1,226.14000000000001,17.94,-401.12
283,1715374686320,1.085,-1.115,0.09,225.40499999999997,-60.765,-402.555
284,1715374686330,0.69,-0.98,0.08,224.67,-139.47,-403.99
285,1715374686340,0.69,-0.98,0.08,224.67,-139.47,-403.99
286,1715374686350,0.6900000000000001,-0.9799999999999999,0.08,224.67,-139.47,-403.99000000000007
287,1715374686360,0.23249999999999998,-1.235,-0.04,165.16,-119.11,-329.13
288,1715374686370,0.08,-1.32,-0.08,105.65,-98.75,-254.27
289,1715374686380,0.08,-1.32,-0.08,105.65,-98.75,-254.27
290,1715374686390,0.08,-1.32,-0.08,105.65,-98.75,-254.27
291,1715374686400,-0.0075,-1.39,0.08625,58.900000000000006,-59.475,-123.135
292,1715374686410,-0.02,-1.4,0.11,12.15,-20.2,8.0
293,1715374686420,-0.02,-1.4,0.11,12.15,-20.2,8.0
294,1715374686430,0.18,-1.2,0.09,-39.55,50.66,184.88
295,1715374686440,0.18,-1.2,0.09,-39.55,50.66,184.88
296,1715374686450,0.18,-1.2,0.09,-39.55,50.66,184.88
297,1715374686460,0.26285714285714284,-1.2142857142857142,0.012857142857142857,-50.99,65.65714285714286,219.51142857142855
298,1715374686470,0.47,-1.25,-0.18,-79.59,103.15,306.09
299,1715374686480,0.47,-1.25,-0.18,-79.59,103.15,306.09
300,1715374686490,0.47000000000000003,-1.25,-0.18,-79.59,103.15,306.09
301,1715374686500,0.63875,-1.2125,-0.30374999999999996,-75.53,81.665,328.185
302,1715374686510,0.92,-1.15,-0.51,-63.35,17.21,394.47
303,1715374686520,0.92,-1.15,-0.51,-63.35,17.21,394.46999999999997
304,1715374686530,0.92,-1.15,-0.51,-63.35,17.21,394.47
305,1715374686540,1.0025,-0.89125,-0.5475,-41.6525,-31.176249999999996,372.40500000000003
306,1715374686550,1.14,-0.46,-0.61,-5.49,-111.82000000000001,335.63
307,1715374686560,1.14,-0.46,-0.61,-5.49,-111.82,335.63
308,1715374686570,1.14,-0.46,-0.61,-5.49,-111.82,335.63
309,1715374686580,0.99,-0.36250000000000004,-0.4,2.43,-117.445,292.145
310,1715374686590,0.94,-0.33,-0.33,5.07,-119.32,277.65
311,1715374686600,0.9400000000000001,-0.33,-0.33,5.07,-119.32000000000001,277.65
312,1715374686610,0.94,-0.33,-0.33,5.07,-119.32,277.65
313,1715374686620,0.8,-0.18125,-0.085,-57.948750000000004,-65.87625,273.71875
314,1715374686630,0.78,-0.16,-0.05,-95.76,-33.81,271.36
315,1715374686640,0.78,-0.16,-0.05,-95.76,-33.81,271.36
316,1715374686650,0.7925,-0.21125,-0.045000000000000005,-110.43125,-23.915000000000003,266.90500000000003
317,1715374686660,0.88,-0.57,-0.01,-213.12999999999997,45.35,235.72
318,1715374686670,0.88,-0.57,-0.01,-213.13,45.35,235.72
319,1715374686680,0.88,-0.57,-0.01,-213.13,45.35,235.72
320,1715374686690,0.95,-0.77,-0.0425,-207.20999999999998,31.77,230.105
321,1715374686700,1.16,-1.3699999999999999,-0.14,-189.45,-8.97,213.26
322,1715374686710,1.16,-1.37,-0.14,-189.45,-8.97,213.26
323,1715374686720,1.16,-1.37,-0.14,-189.45,-8.97,213.26
324,1715374686730,1.3375,-1.4925000000000002,-0.12250000000000001,-175.67249999999999,-37.0475,216.01999999999998
325,1715374686740,1.8699999999999999,-1.86,-0.07,-134.34,-121.28,224.3
326,1715374686750,1.87,-1.86,-0.07,-134.34,-121.28,224.3
327,1715374686760,1.8699999999999999,-1.86,-0.07,-134.34,-121.28,224.3
328,1715374686770,2.164285714285714,-1.7228571428571429,0.14999999999999997,-128.25428571428571,-114.00857142857141,203.06
329,1715374686780,2.9,-1.38,0.7,-113.04,-95.83,149.96
330,1715374686790,2.9,-1.38,0.7,-113.04,-95.83,149.96
331,1715374686800,2.9,-1.3800000000000001,0.7,-113.04,-95.83,149.96
332,1715374686810,2.7,-1.41,0.865,-90.48500000000001,7.259999999999998,69.305
333,1715374686820,2.5,-1.44,1.03,-67.93,110.35,-11.35
334,1715374686830,2.5,-1.44,1.03,-67.93,110.35,-11.35
335,1715374686840,2.5,-1.44,1.03,-67.93,110.35,-11.35
336,1715374686850,1.94375,-1.34625,0.47375,13.588749999999997,160.975,-46.29375
337,1715374686860,1.61,-1.2900000000000003,0.14,62.5,191.35,-67.26
338,1715374686870,1.61,-1.29,0.14,62.5,191.35,-67.26
339,1715374686880,1.61,-1.2900000000000003,0.14,62.5,191.35,-67.26
340,1715374686890,1.27875,-0.94625,-0.016249999999999994,97.66875,134.775,-86.02875
341,1715374686900,1.08,-0.74,-0.11,118.77,100.83,-97.29
342,1715374686910,1.08,-0.74,-0.11,118.77,100.83,-97.29
343,1715374686920,1.08,-0.74,-0.11,118.77,100.83,-97.29
344,1715374686930,0.8,-0.36,0.16,145.75,54.32,-113.04
345,1715374686940,0.8,-0.36,0.16,145.75,54.32,-113.04
346,1715374686950,0.8,-0.36,0.16,145.75,54.32,-113.04
347,1715374686960,0.8,-0.215,0.175,145.75,54.32,-113.04
348,1715374686970,0.8,0.22,0.22,146.42,72.88,-129.52
349,1715374686980,0.8,0.22,0.22,146.42,72.88,-129.52
350,1715374686990,0.8,0.22,0.22,146.42,72.88,-129.52
351,1715374687000,0.8428571428571429,0.18285714285714286,0.22571428571428573,143.8742857142857,79.85428571428572,-151.89142857142858
352,1715374687010,0.95,0.09,0.24,137.51,97.29,-207.82
353,1715374687020,0.95,0.09,0.24,137.51,97.29,-207.82
354,1715374687030,0.95,0.09,0.24,137.51,97.29,-207.82
355,1715374687040,0.9199999999999999,0.014999999999999998,0.19874999999999998,137.70125,100.89875,-212.98624999999998
356,1715374687050,0.87,-0.11,0.13,139.04,126.16,-249.15
357,1715374687060,0.87,-0.11,0.13,139.04,126.16,-249.15
358,1715374687070,0.87,-0.11,0.13,139.04,126.16,-249.15
359,1715374687080,0.945,-0.095,0.0925,137.64999999999998,126.6325,-257.54
360,1715374687090,1.17,-0.05,-0.02,133.48,128.05,-282.71
361,1715374687100,1.17,-0.05,-0.02,133.48,128.05,-282.71
362,1715374687110,1.17,-0.05,-0.02,133.48,128.05,-282.71
363,1715374687120,1.27875,-0.11750000000000001,-0.03875000000000001,107.06875,125.7625,-308.2775
364,1715374687130,1.4599999999999997,-0.23,-0.07,63.05,121.95,-350.89
365,1715374687140,1.4599999999999997,-0.23,-0.07,63.05,121.95,-350.89
366,1715374687150,1.4599999999999997,-0.23,-0.07,63.05,121.95,-350.89
367,1715374687160,2.46,-0.24875000000000003,0.88625,-26.63125,145.6375,-335.4775
368,1715374687170,3.06,-0.26,1.4599999999999997,-80.43999999999998,159.85,-326.23
369,1715374687180,3.06,-0.26,1.46,-80.44,159.85,-326.23
370,1715374687190,3.06,-0.26,1.4599999999999997,-80.43999999999998,159.85,-326.23
371,1715374687200,3.4275,-0.8987499999999999,1.48625,-228.91,473.2925,-395.23249999999996
372,1715374687210,3.48,-0.99,1.49,-250.12,518.07,-405.09
373,1715374687220,3.48,-0.99,1.49,-250.12000000000003,518.07,-405.09
374,1715374687230,3.21125,-1.0225,1.49625,-203.9775,480.12125000000003,-384.68874999999997
375,1715374687240,1.33,-1.25,1.54,119.02,214.48,-241.88
376,1715374687250,1.33,-1.25,1.54,119.02,214.48,-241.88
377,1715374687260,1.33,-1.25,1.5400000000000003,119.02,214.48,-241.87999999999997
378,1715374687270,0.93,-1.0925,1.155,140.03,195.1,-207.7925
379,1715374687280,-0.27,-0.62,0.0,203.06,136.96,-105.53
380,1715374687290,-0.27,-0.62,0.0,203.06,136.96,-105.53
381,1715374687300,-0.27,-0.62,0.0,203.06,136.96,-105.53
382,1715374687310,-0.825,-0.5700000000000001,-0.795,203.06,136.96,-105.53
383,1715374687320,-1.3800000000000001,-0.52,-1.59,193.88857142857142,61.45142857142857,-50.49571428571429
384,1715374687330,-1.38,-0.52,-1.59,187.01,4.82,-9.22
385,1715374687340,-1.38,-0.52,-1.59,187.01,4.82,-9.22
386,1715374687350,-1.3800000000000001,-0.52,-1.59,187.01,4.82,-9.22
387,1715374687360,-1.38,-0.52,-1.59,187.01,4.82,-9.22
388,1715374687370,-1.3800000000000001,-0.52,-1.59,187.01,4.82,-9.22
389,1715374687380,-1.3525,-0.6425000000000001,-1.6025,156.5375,-35.875,39.655
390,1715374687390,-1.05,-1.065,-1.5525,20.167500000000004,-154.8325,219.865
391,1715374687400,-0.39,-1.23,-1.29,-114.69,-145.45,320.62
392,1715374687410,-0.39,-1.23,-1.2900000000000003,-114.68999999999998,-145.45,320.62
393,1715374687420,-0.39,-1.23,-1.29,-114.69,-145.45,320.62
394,1715374687430,0.3975,-0.7575,-1.185,-147.52875,-146.57,340.70125
395,1715374687440,0.51,-0.6900000000000001,-1.17,-152.22,-146.73,343.57
396,1715374687450,0.51,-0.69,-1.17,-152.22,-146.73,343.57
397,1715374687460,0.51,-0.69,-1.17,-152.22,-146.73,343.57
398,1715374687470,0.5357142857142857,-0.6885714285714285,-1.1071428571428572,-168.99571428571429,-153.17285714285714,329.0514285714286
399,1715374687480,0.69,-0.68,-0.73,-269.65,-191.83,241.94
400,1715374687490,0.6900000000000001,-0.68,-0.7299999999999999,-269.65,-191.83,241.94
401,1715374687500,0.69,-0.68,-0.73,-269.65,-191.83,241.94
402,1715374687510,0.99,-1.13,-0.02,-280.43875,-198.6725,263.57000000000005
403,1715374687520,0.99,-1.13,-0.02,-281.98,-199.65,266.66
404,1715374687530,0.99,-1.13,-0.02,-281.98,-199.65,266.66
405,1715374687540,1.08375,-1.18,-0.02125,-281.98,-199.65,266.66
406,1715374687550,1.74,-1.53,-0.03,-196.78,-250.18,213.56
407,1715374687560,1.74,-1.53,-0.03,-196.78,-250.18,213.56
408,1715374687570,1.74,-1.53,-0.03,-196.78,-250.18,213.56
409,1715374687580,1.81125,-1.69875,-0.0475,-190.0125,-255.68125,218.50375
410,1715374687590,2.31,-2.88,-0.17,-142.64,-294.19,253.11
411,1715374687600,2.31,-2.88,-0.17,-142.64,-294.19,253.10999999999999
412,1715374687610,2.31,-2.88,-0.17,-142.64,-294.19,253.11
413,1715374687620,2.89125,-2.67375,-0.008750000000000008,-137.92624999999998,-294.6025,297.7425
414,1715374687630,3.86,-2.33,0.26,-130.07,-295.29,372.13
415,1715374687640,3.86,-2.3300000000000005,0.26,-130.07,-295.29,372.13
416,1715374687650,3.96875,-1.8050000000000002,0.5,-117.97,-273.89750000000004,330.9325
417,1715374687660,4.15,-0.93,0.9,-81.67,-209.72,207.34
418,1715374687670,4.15,-0.93,0.9,-81.67,-209.72,207.34
419,1715374687680,4.15,-0.93,0.9,-81.67,-209.72,207.34
420,1715374687690,2.9875000000000003,-1.3575,1.32,-177.475,43.74249999999999,75.1825
421,1715374687700,2.6,-1.5,1.4599999999999997,-209.41,128.23,31.13
422,1715374687710,2.6,-1.5,1.46,-209.41,128.23,31.13
423,1715374687720,2.6,-1.5,1.46,-209.41,128.23,31.13
424,1715374687730,2.2350000000000003,-1.26,1.0,-91.645,154.845,24.965
425,1715374687740,1.8699999999999999,-1.02,0.54,26.12,181.46,18.8
426,1715374687750,1.87,-1.02,0.54,26.12,181.46,18.8
427,1715374687760,1.8699999999999999,-1.02,0.54,26.12,181.46,18.8
428,1715374687770,1.7125,-0.37250000000000005,0.505,72.23875,140.11,-48.875
429,1715374687780,1.69,-0.28,0.5,99.91,115.3,-89.48
430,1715374687790,1.69,-0.28,0.5,99.91,115.3,-89.48
431,1715374687800,1.6175,-0.30500000000000005,0.51125,99.91,115.3,-89.48
432,1715374687810,1.11,-0.48,0.59,124.81857142857143,147.94,-139.39142857142858
433,1715374687820,1.11,-0.48,0.59,128.97,153.38,-147.71
434,1715374687830,1.11,-0.48,0.59,128.97,153.38,-147.71
435,1715374687840,1.0471428571428572,-0.3514285714285714,0.4728571428571428,128.97,153.37999999999997,-147.71
436,1715374687850,0.89,-0.03,0.18,223.70625,58.958749999999995,-189.89374999999998
437,1715374687860,0.89,-0.03,0.18,237.24,45.47,-195.92
438,1715374687870,0.89,-0.03,0.18,237.24,45.46999999999999,-195.92
439,1715374687880,1.0625,-0.06375,0.375,243.33625,34.07125,-212.5675
440,1715374687890,1.35,-0.12,0.7,286.01,-45.72,-329.1
441,1715374687900,1.35,-0.12,0.7,286.01,-45.72,-329.1
442,1715374687910,1.35,-0.12,0.7,286.01,-45.71999999999999,-329.1
443,1715374687920,1.38125,-0.37625000000000003,0.63125,268.8425,-3.0299999999999976,-339.51375
444,1715374687930,1.4,-0.53,0.59,240.23,68.12,-356.87
445,1715374687940,1.4,-0.53,0.59,240.23,68.12,-356.87
446,1715374687950,1.4,-0.53,0.59,240.23,68.12,-356.87
447,1715374687960,2.165,-0.5975,0.6725,183.83749999999998,138.89,-369.83
448,1715374687970,2.42,-0.62,0.7,165.04,162.48,-374.15
449,1715374687980,2.4199999999999995,-0.62,0.7,165.04,162.48,-374.15
450,1715374687990,2.42,-0.62,0.7,165.04,162.48,-374.15
451,1715374688000,2.5687499999999996,-1.1099999999999999,0.735,202.765,181.78,-425.875
452,1715374688010,2.59,-1.18,0.74,225.4,193.36,-456.91
453,1715374688020,2.59,-1.18,0.74,225.4,193.35999999999999,-456.91
454,1715374688030,2.59,-1.18,0.74,225.4,193.36,-456.91
455,1715374688040,1.71,-1.2,0.14,271.85,120.06,-464.48
456,1715374688050,1.71,-1.2,0.14,271.85,120.06,-464.48
457,1715374688060,1.7099999999999997,-1.2,0.14,271.85,120.06000000000002,-464.48
458,1715374688070,1.4925,-1.21125,0.052500000000000005,267.57750000000004,111.29375,-459.345
459,1715374688080,-0.03,-1.2900000000000003,-0.56,237.67,49.93,-423.4
460,1715374688090,-0.03,-1.29,-0.56,237.67,49.93,-423.4
461,1715374688100,-0.03,-1.29,-0.56,237.67,49.93,-423.4
462,1715374688110,-0.42000000000000004,-1.2375,-0.615,205.36749999999998,14.972499999999998,-356.3225
463,1715374688120,-1.59,-1.08,-0.78,108.46,-89.9,-155.09
464,1715374688130,-1.59,-1.08,-0.78,108.46,-89.9,-155.09
465,1715374688140,-1.59,-1.08,-0.78,108.46,-89.9,-155.09
466,1715374688150,-1.5350000000000001,-1.465,-0.51,74.94999999999999,-77.14500000000001,12.575000000000003
467,1715374688160,-1.48,-1.85,-0.24,41.44,-64.39,180.24
468,1715374688170,-1.48,-1.85,-0.24,41.44,-64.39,180.24
469,1715374688180,-1.48,-1.85,-0.24,41.44,-64.39,180.24
470,1715374688190,-0.38,-1.93125,-0.215,2.807499999999999,-22.48375,318.6675
471,1715374688200,0.28,-1.98,-0.2,-61.58,47.36,549.38
472,1715374688210,0.28,-1.98,-0.2,-61.58,47.36,549.38
473,1715374688220,0.28,-1.98,-0.2,-61.58,47.36,549.38
474,1715374688230,1.42625,-1.875,-0.2875,-137.61124999999998,71.09125,632.23625
475,1715374688240,1.59,-1.86,-0.3,-183.23,85.33,681.95
476,1715374688250,1.59,-1.86,-0.3,-183.23,85.33,681.95
477,1715374688260,1.59,-1.86,-0.3,-183.23,85.33,681.95
478,1715374688270,1.6585714285714286,-1.4314285714285717,-0.2914285714285714,-179.03857142857143,-48.290000000000006,529.8157142857143
479,1715374688280,1.67,-1.36,-0.29,-178.34,-70.56,504.46
480,1715374688290,1.67,-1.36,-0.29,-178.34,-70.56,504.46
481,1715374688300,1.6512499999999999,-1.4125,-0.26625,-178.34,-70.56,504.46
482,1715374688310,1.52,-1.78,-0.1,-133.3,-197.94,409.24
483,1715374688320,1.52,-1.78,-0.1,-133.3,-197.94,409.24000000000007
484,1715374688330,1.52,-1.78,-0.1,-133.3,-197.94,409.24
485,1715374688340,1.5875,-1.7275,-0.11000000000000001,-97.44250000000001,-208.4675,414.29
486,1715374688350,1.79,-1.57,-0.14,10.13,-240.05,429.44
487,1715374688360,1.79,-1.57,-0.14,10.13,-240.05,429.44
488,1715374688370,1.7900000000000003,-1.57,-0.14,10.13,-240.05,429.44
489,1715374688380,1.83125,-1.28125,-0.1775,12.1525,-232.56625000000003,422.41375
490,1715374688390,1.9,-0.8,-0.24,26.31,-180.18,373.23
491,1715374688400,1.9,-0.8,-0.24,26.31,-180.18,373.23
492,1715374688410,1.9,-0.8,-0.24,26.31,-180.18,373.23
493,1715374688420,2.03125,-0.8562500000000001,-0.37125,-2.3775000000000004,-165.53,329.6675
494,1715374688430,2.11,-0.89,-0.45,-19.59,-156.74,303.53000000000003
495,1715374688440,2.11,-0.89,-0.45,-19.59,-156.74,303.53000000000003
496,1715374688450,2.11,-0.89,-0.45,-19.59,-156.74,303.53
497,1715374688460,2.1975,-0.99,0.012499999999999983,-75.93375,-105.69624999999999,222.23624999999998
498,1715374688470,2.25,-1.05,0.29,-109.74,-75.07,173.46
499,1715374688480,2.25,-1.05,0.29,-109.74,-75.07000000000001,173.46
500,1715374688490,2.25,-1.05,0.29,-109.74,-75.07,173.46
501,1715374688500,2.1374999999999997,-1.15625,0.6775,-192.14000000000001,102.8425,149.81
502,1715374688510,2.07,-1.22,0.91,-241.58,209.59,135.62
503,1715374688520,2.07,-1.22,0.91,-241.58,209.59,135.62
504,1715374688530,2.07,-1.22,0.91,-241.58,209.59,135.62
505,1715374688540,2.20125,-1.28125,0.16625,-168.6225,299.96000000000004,75.7
506,1715374688550,2.22,-1.2900000000000003,0.06,-158.2,312.87,67.14
507,1715374688560,2.22,-1.29,0.06,-158.2,312.87,67.14
508,1715374688570,2.22,-1.2900000000000003,0.06,-158.2,312.87,67.14
509,1715374688580,2.2025,-1.1675,-0.35124999999999995,-75.80125,190.72875,-8.215
510,1715374688590,2.2,-1.15,-0.41,-64.03,173.28,-18.98
511,1715374688600,2.2,-1.15,-0.41,-64.03,173.28,-18.98
512,1715374688610,2.14,-1.0499999999999998,-0.23249999999999998,-53.057500000000005,160.89,-37.3225
513,1715374688620,1.96,-0.75,0.3,-20.14,123.72,-92.35
514,1715374688630,1.9599999999999997,-0.75,0.3,-20.140000000000004,123.72,-92.35
515,1715374688640,1.96,-0.75,0.3,-20.14,123.72,-92.35
516,1715374688650,1.96,-0.75,0.3,-20.14,123.72,-92.35
517,1715374688660,1.7475,-0.5875,0.13125,13.772499999999997,153.2075,-117.06875
518,1715374688670,1.6199999999999999,-0.48999999999999994,0.03,34.12,170.9,-131.9
519,1715374688680,1.62,-0.49,0.03,34.12,170.9,-131.9
520,1715374688690,1.425,-0.37,-0.065,67.2,143.035,-156.28
521,1715374688700,1.23,-0.25,-0.16,100.28,115.17,-180.66
522,1715374688710,1.23,-0.25,-0.16,100.28,115.17,-180.66
523,1715374688720,1.23,-0.25,-0.16,100.28,115.17,-180.66
524,1715374688730,1.23,-0.25,-0.16,100.28,115.17,-180.66
525,1715374688740,1.23,-0.25,-0.16,100.28,115.17,-180.66
526,1715374688750,1.23,-0.25,-0.16,100.28,115.17,-180.66
527,1715374688760,1.23,-0.25,-0.16,100.28,115.17,-180.66
528,1715374688770,1.205,-0.06875,0.28500000000000003,159.48624999999998,43.4575,-266.37874999999997
529,1715374688780,1.27,-0.03,0.51,195.01,0.43,-317.81
530,1715374688790,1.27,-0.03,0.51,195.01,0.43,-317.81
531,1715374688800,1.27,-0.03,0.51,195.01,0.43,-317.81
532,1715374688810,1.8442857142857143,-0.42428571428571427,0.7071428571428572,113.65857142857142,163.6557142857143,-321.3671428571428
533,1715374688820,1.94,-0.49,0.74,100.1,190.86,-321.96
534,1715374688830,1.94,-0.49,0.74,100.1,190.86,-321.96
535,1715374688840,2.26,-0.5225,0.7525,100.1,190.86,-321.96
536,1715374688850,3.22,-0.62,0.79,133.1,215.48250000000002,-411.7725
537,1715374688860,3.22,-0.62,0.79,144.1,223.69,-441.71
538,1715374688870,3.22,-0.62,0.79,144.1,223.69,-441.71
539,1715374688880,3.1900000000000004,-0.905,0.8,165.31,222.15,-466.0775
540,1715374688890,3.1,-1.76,0.83,228.94,217.53,-539.18
541,1715374688900,3.1,-1.76,0.83,228.94,217.53,-539.18
542,1715374688910,3.1,-1.76,0.83,228.94,217.53,-539.18
543,1715374688920,2.8525,-1.7275,0.6825,230.8175,209.04500000000002,-526.5474999999999
544,1715374688930,2.11,-1.6300000000000001,0.24,236.45,183.59,-488.65
545,1715374688940,2.11,-1.63,0.24,236.45,183.59,-488.65
546,1715374688950,2.11,-1.63,0.24,236.45,183.59,-488.65
547,1715374688960,2.11,-1.6300000000000001,0.24,236.45,183.59,-488.65
548,1715374688970,0.6,-1.4,-0.31,204.77,178.41,-369.26
549,1715374688980,0.6,-1.4,-0.31,204.77,178.41,-369.26
550,1715374688990,-0.10285714285714287,-1.2114285714285715,-0.5957142857142858,202.6442857142857,110.33,-282.1742857142857
551,1715374689000,-0.63,-1.07,-0.8099999999999999,201.05,59.27,-216.85999999999999
552,1715374689010,-0.63,-1.07,-0.8099999999999999,201.05,59.27,-216.85999999999999
553,1715374689020,-0.63,-1.07,-0.8099999999999999,201.05,59.27,-216.85999999999999
554,1715374689030,-0.8375,-1.0025,-0.845,187.44,37.722500000000004,-163.775
555,1715374689040,-1.46,-0.8,-0.95,146.61,-26.920000000000005,-4.52
556,1715374689050,-1.46,-0.8,-0.95,146.61,-26.92,-4.52
557,1715374689060,-1.46,-0.8,-0.95,146.61,-26.92,-4.52
558,1715374689070,-1.3571428571428572,-1.3142857142857143,-0.7699999999999999,21.224285714285717,12.322857142857142,193.45142857142855
559,1715374689080,-1.34,-1.4,-0.74,-28.93,28.02,272.64
560,1715374689090,-1.34,-1.4,-0.74,-28.93,28.02,272.64
561,1715374689100,-1.34,-1.4,-0.74,-28.93,28.02,272.64
562,1715374689110,0.35,-1.77,-0.48,-92.54714285714286,48.00428571428572,398.80285714285714
563,1715374689120,0.35,-1.77,-0.48,-177.37,74.65,567.02
564,1715374689130,0.35,-1.77,-0.48,-177.37,74.65,567.02
565,1715374689140,0.5,-1.73,-0.49124999999999996,-190.5225,69.91125000000001,569.6825
566,1715374689150,1.55,-1.45,-0.57,-282.59,36.74,588.32
567,1715374689160,1.55,-1.45,-0.57,-282.59,36.74,588.32
568,1715374689170,1.55,-1.45,-0.57,-282.59,36.74,588.32
569,1715374689180,1.54,-1.3225,-0.46249999999999997,-272.4425,4.3000000000000025,547.365
570,1715374689190,1.51,-0.9400000000000001,-0.14,-242.0,-93.02,424.5
571,1715374689200,1.51,-0.94,-0.14,-242.0,-93.02,424.5
572,1715374689210,1.51,-0.94,-0.14,-242.0,-93.02,424.5
573,1715374689220,1.407142857142857,-0.9942857142857141,-0.15142857142857144,-230.2657142857143,-110.51142857142857,400.60857142857145
574,1715374689230,1.15,-1.13,-0.18,-200.93,-154.24,340.88
575,1715374689240,1.15,-1.13,-0.18,-200.93,-154.24,340.88
576,1715374689250,1.15,-1.13,-0.18,-200.93,-154.24,340.88
577,1715374689260,1.205,-1.1349999999999998,-0.08499999999999999,-186.14375,-165.1875,337.9425
578,1715374689270,1.26,-1.14,0.01,-82.64,-241.82,317.38
579,1715374689280,1.26,-1.14,0.01,-82.64,-241.82,317.38
580,1715374689290,1.345,-1.045,0.085,-90.025,-205.015,323.21000000000004
581,1715374689300,1.43,-0.95,0.16,-97.41,-168.21,329.04
582,1715374689310,1.43,-0.95,0.16,-97.41,-168.21,329.04
583,1715374689320,1.43,-0.95,0.16,-97.41,-168.21,329.04
584,1715374689330,1.53,-1.5,-0.11500000000000002,-110.06625,-156.88125,310.02
585,1715374689340,1.59,-1.83,-0.28,-131.16,-138.0,278.32
586,1715374689350,1.59,-1.83,-0.28,-131.16,-138.0,278.32
587,1715374689360,1.59,-1.83,-0.28,-131.16,-138.0,278.32
588,1715374689370,2.2837500000000004,-2.08,-0.39875,-75.39125,-220.74374999999998,321.77
589,1715374689380,2.7,-2.23,-0.47,-41.93,-270.39,347.84
590,1715374689390,2.7,-2.23,-0.47000000000000003,-41.93,-270.39,347.84
591,1715374689400,2.7,-2.23,-0.47,-41.93,-270.39,347.84
592,1715374689410,3.91625,-0.445,0.965,-154.14,-82.92999999999999,233.285
593,1715374689420,4.09,-0.19,1.17,-170.17,-56.15,216.92
594,1715374689430,4.09,-0.19,1.17,-170.17,-56.15,216.92
595,1715374689440,4.09,-0.19,1.17,-170.17,-56.15,216.92
596,1715374689450,2.77,-1.66,1.2,-174.62,326.05,-117.55
597,1715374689460,2.77,-1.66,1.2,-174.62000000000003,326.05,-117.55
598,1715374689470,2.77,-1.66,1.2,-174.62,326.05,-117.55
599,1715374689480,2.70125,-1.6837499999999999,1.01375,-174.62,326.05,-117.55
600,1715374689490,2.22,-1.85,-0.29,120.73,284.48,-107.12
601,1715374689500,2.22,-1.85,-0.29,120.73,284.48,-107.12
602,1715374689510,2.22,-1.85,-0.29,120.73,284.48,-107.12
603,1715374689520,2.17875,-1.7237500000000001,-0.3075,127.5575,258.44125,-117.27375
604,1715374689530,1.89,-0.84,-0.43,175.35,76.17,-188.35
605,1715374689540,1.89,-0.84,-0.43,175.35,76.17,-188.35
606,1715374689550,1.89,-0.84,-0.43,175.35,76.17,-188.35
607,1715374689560,1.8512499999999998,-0.83,-0.33875,186.13125,57.1125,-199.20749999999998
608,1715374689570,1.58,-0.76,0.3,261.6,-76.29,-275.21
609,1715374689580,1.58,-0.76,0.3,261.6,-76.29,-275.21
610,1715374689590,1.58,-0.76,0.3,261.6,-76.29,-275.21
611,1715374689600,1.655,-0.63625,0.33375,237.31500000000003,-49.81125,-304.20875
612,1715374689610,1.78,-0.43,0.39,196.84,-5.68,-352.54
613,1715374689620,1.78,-0.43,0.39,196.84,-5.68,-352.54
614,1715374689630,1.78,-0.43,0.39,196.84,-5.68,-352.54
615,1715374689640,1.7875,-0.6325,0.38625,165.0925,40.50875,-382.66
616,1715374689650,1.8,-0.97,0.38,112.18,117.49,-432.86
617,1715374689660,1.8,-0.97,0.38,112.18,117.49,-432.86
618,1715374689670,1.8,-0.97,0.38,112.17999999999999,117.49,-432.86
619,1715374689680,1.96,-1.105,0.28,79.17625000000001,199.36374999999998,-425.675
620,1715374689690,2.12,-1.24,0.18,24.17,335.82,-413.7
621,1715374689700,2.12,-1.24,0.18,24.17,335.82,-413.7
622,1715374689710,2.12,-1.24,0.18,24.169999999999998,335.82,-413.7
623,1715374689720,1.8725,-1.5474999999999999,-0.2475,97.8725,317.0025,-443.865
624,1715374689730,1.79,-1.65,-0.39,122.44,310.73,-453.92
625,1715374689740,1.79,-1.65,-0.39,122.44,310.73,-453.92
626,1715374689750,1.7475,-1.6575,-0.395,122.44,310.73,-453.92
627,1715374689760,1.45,-1.7099999999999997,-0.43,221.3114285714286,214.85857142857142,-479.7271428571429
628,1715374689770,1.45,-1.71,-0.43,260.86,176.51,-490.05
629,1715374689780,1.45,-1.7099999999999997,-0.43,260.86,176.51,-490.05
630,1715374689790,1.35125,-1.66125,-0.4475,260.86,176.51,-490.05
631,1715374689800,0.66,-1.32,-0.57,241.37375,105.00500000000001,-456.51125
632,1715374689810,0.66,-1.32,-0.57,238.59,94.79,-451.72
633,1715374689820,0.66,-1.32,-0.57,238.59,94.79,-451.71999999999997
634,1715374689830,0.35250000000000004,-1.06,-0.585,220.905,94.36250000000001,-433.685
635,1715374689840,-0.57,-0.28,-0.63,167.85,93.08,-379.58
636,1715374689850,-0.57,-0.28,-0.63,167.85,93.08,-379.58
637,1715374689860,-0.57,-0.28,-0.63,167.85,93.08,-379.58
638,1715374689870,-1.315,-0.30500000000000005,-0.8500000000000001,117.28,91.89,-307.03999999999996
639,1715374689880,-2.06,-0.33,-1.07,66.71,90.7,-234.5
640,1715374689890,-2.06,-0.33,-1.07,66.71,90.7,-234.5
641,1715374689900,-2.06,-0.33,-1.07,66.71,90.7,-234.5
642,1715374689910,-2.1514285714285717,-0.41000000000000003,-0.9900000000000001,66.71,90.7,-234.5
643,1715374689920,-2.22,-0.47,-0.93,66.71,90.7,-234.5
644,1715374689930,-2.22,-0.47,-0.93,66.71,90.7,-234.5
645,1715374689940,-2.22,-0.47000000000000003,-0.93,66.71,90.7,-234.5
646,1715374689950,-1.36,-0.85,-0.755,3.7699999999999987,-52.275000000000006,191.2975
647,1715374689960,-0.5,-1.23,-0.58,-37.29,-110.9,427.12
648,1715374689970,-0.5,-1.23,-0.58,-37.29,-110.9,427.12
649,1715374689980,-0.5,-1.23,-0.58,-37.29,-110.9,427.12
650,1715374689990,0.59375,-1.8175,-0.36125,-163.97750000000002,-51.737500000000004,517.87625
651,1715374690000,1.25,-2.17,-0.23,-239.99,-16.24,572.33
652,1715374690010,1.25,-2.17,-0.23,-239.99,-16.24,572.33
653,1715374690020,1.25,-2.17,-0.23,-239.99,-16.24,572.33
654,1715374690030,1.25,-2.17,-0.23,-239.99,-16.24,572.33
655,1715374690040,1.6925000000000001,-2.6725,-0.08,-371.645,-9.1375,585.9200000000001
656,1715374690050,1.84,-2.84,-0.03,-415.53,-6.77,590.45
657,1715374690060,1.84,-2.84,-0.03,-415.53,-6.77,590.45
658,1715374690070,1.92,-2.91,-0.02,-523.8375000000001,-54.8375,540.65
659,1715374690080,1.92,-2.91,-0.02,-559.94,-70.86,524.05
660,1715374690090,1.92,-2.91,-0.02,-559.94,-70.86,524.05
661,1715374690100,1.92875,-2.935,-0.0075,-542.2625,-91.71875,505.78499999999997
662,1715374690110,1.99,-3.11,0.08,-418.52,-237.73,377.93
663,1715374690120,1.99,-3.11,0.08,-418.52,-237.73,377.93
664,1715374690130,1.99,-3.11,0.08,-418.52,-237.73,377.93
665,1715374690140,2.1914285714285713,-3.1914285714285713,0.12285714285714286,-318.65000000000003,-322.56142857142856,396.0585714285714
666,1715374690150,2.46,-3.3,0.18,-185.49,-435.67,420.23
667,1715374690160,2.46,-3.3,0.18,-185.49,-435.67,420.23
668,1715374690170,2.46,-3.3,0.18,-185.49,-435.67,420.23
669,1715374690180,2.75,-2.605,0.33499999999999996,-144.0,-437.27250000000004,432.1775
670,1715374690190,3.04,-1.91,0.48999999999999994,-19.53,-442.08,468.02
671,1715374690200,3.04,-1.91,0.49,-19.53,-442.08,468.02
672,1715374690210,2.815,-1.2449999999999999,0.685,-42.785000000000004,-323.61,402.59000000000003
673,1715374690220,2.59,-0.58,0.88,-66.04,-205.14000000000001,337.16
674,1715374690230,2.59,-0.58,0.88,-66.04,-205.14,337.16
675,1715374690240,2.59,-0.58,0.88,-66.04,-205.14,337.16
676,1715374690250,2.04625,-0.87375,0.8175,-87.74625,-52.552499999999995,223.36625
677,1715374690260,1.72,-1.05,0.78,-100.77,39.0,155.09
678,1715374690270,1.72,-1.05,0.78,-100.77,39.0,155.09
679,1715374690280,1.72,-1.05,0.78,-100.77,39.0,155.09
680,1715374690290,1.54,-1.545,0.3375,-89.7825,95.76249999999999,159.70875
681,1715374690300,1.48,-1.7099999999999997,0.19,-83.18999999999998,129.82,162.48
682,1715374690310,1.48,-1.71,0.19,-83.19,129.82,162.48
683,1715374690320,1.48,-1.71,0.19,-83.19,129.82,162.48
684,1715374690330,2.04875,-1.29875,-0.13374999999999998,-69.0025,90.0325,145.31125
685,1715374690340,2.13,-1.24,-0.18,-60.49,66.16,135.01
686,1715374690350,2.13,-1.24,-0.18,-60.49,66.16,135.01
687,1715374690360,2.17,-1.245,-0.13624999999999998,-60.49,66.16,135.01
688,1715374690370,2.45,-1.28,0.17,22.96142857142857,-107.06000000000002,0.875714285714284
689,1715374690380,2.45,-1.28,0.17,36.87,-135.93,-21.48
690,1715374690390,2.45,-1.28,0.17,36.87,-135.93,-21.48
691,1715374690400,2.4450000000000003,-1.1300000000000001,0.305,60.122499999999995,-131.70250000000001,-58.4525
692,1715374690410,2.43,-0.68,0.71,129.88,-119.02,-169.37000000000003
693,1715374690420,2.43,-0.68,0.71,129.88,-119.02,-169.37
694,1715374690430,2.43,-0.68,0.71,129.88,-119.02,-169.37
695,1715374690440,2.3712500000000003,-0.71875,0.65875,122.21249999999999,-92.08,-187.60500000000002
696,1715374690450,1.9599999999999997,-0.99,0.3,68.54,96.5,-315.25
697,1715374690460,1.96,-0.99,0.3,68.54,96.5,-315.25
698,1715374690470,1.96,-0.99,0.3,68.54,96.5,-315.25
699,1715374690480,1.6475,-1.1775,0.1625,78.45875,132.54375,-337.83125
700,1715374690490,1.4599999999999997,-1.2900000000000003,0.08,84.41,154.17,-351.38
701,1715374690500,1.4599999999999997,-1.2900000000000003,0.08,84.41,154.17,-351.38
702,1715374690510,1.46,-1.29,0.08,84.41,154.17,-351.38
703,1715374690520,1.41,-1.2525,0.26125,141.89749999999998,124.345,-365.64875
704,1715374690530,1.3800000000000001,-1.23,0.37,176.39000000000001,106.45,-374.21
705,1715374690540,1.3800000000000001,-1.23,0.37,176.39000000000001,106.45,-374.21
706,1715374690550,1.38,-1.23,0.37,176.39,106.45,-374.21
707,1715374690560,1.6512499999999999,-1.475,0.475,192.6825,166.73749999999998,-385.26124999999996
708,1715374690570,1.69,-1.51,0.48999999999999994,195.01,175.35,-386.84
709,1715374690580,1.69,-1.51,0.49,195.01,175.35,-386.84
710,1715374690590,1.69,-1.51,0.49,195.01,175.35,-386.84
711,1715374690600,1.88,-1.68,0.26,206.76125,195.70250000000001,-405.64374999999995
712,1715374690610,1.8800000000000001,-1.68,0.26,208.44,198.60999999999999,-408.33
713,1715374690620,1.88,-1.68,0.26,208.44,198.61,-408.33
714,1715374690630,1.9925,-1.7075,0.315,208.44,198.61,-408.33
715,1715374690640,2.3300000000000005,-1.7900000000000003,0.48,191.77,252.56,-457.7
716,1715374690650,2.33,-1.79,0.48,191.77,252.56,-457.7
717,1715374690660,2.33,-1.79,0.48,191.77,252.56,-457.7
718,1715374690670,2.2271428571428573,-1.965714285714286,0.4714285714285714,197.90000000000003,252.3685714285714,-462.7485714285714
719,1715374690680,2.09,-2.2,0.46,234.68,251.22,-493.04
720,1715374690690,2.09,-2.2,0.46,234.68,251.22,-493.04
721,1715374690700,2.09,-2.2,0.46,234.68,251.22,-493.04
722,1715374690710,1.8028571428571427,-1.9514285714285715,0.2885714285714286,238.83714285714288,251.66571428571427,-463.61428571428576
723,1715374690720,1.42,-1.62,0.06,244.38,252.26,-424.38
724,1715374690730,1.42,-1.62,0.06,244.38,252.26,-424.38
725,1715374690740,1.42,-1.6199999999999999,0.06,244.37999999999997,252.26,-424.38
726,1715374690750,0.30124999999999996,-1.22,-0.30875,309.27375,27.497499999999995,-455.84875
727,1715374690760,-0.37,-0.9799999999999999,-0.53,348.21,-107.36,-474.73
728,1715374690770,-0.37,-0.98,-0.53,348.21,-107.36,-474.73
729,1715374690780,-0.37,-0.98,-0.53,348.21,-107.36,-474.73
730,1715374690790,-1.1328571428571428,-0.6285714285714284,-0.34142857142857147,317.13,-186.9485714285714,-349.79857142857145
731,1715374690800,-1.26,-0.57,-0.31,293.82,-246.64,-256.1
732,1715374690810,-1.26,-0.57,-0.31,293.82,-246.64,-256.1
733,1715374690820,-1.26,-0.57,-0.31,293.82,-246.64,-256.1
734,1715374690830,-1.22,-0.7700000000000001,0.38,114.56000000000002,-97.6,58.589999999999996
735,1715374690840,-1.22,-0.77,0.38,114.56,-97.6,58.59
736,1715374690850,-1.22,-0.77,0.38,114.56,-97.6,58.59
737,1715374690860,-1.035,-0.925,0.26,114.56,-97.6,58.59
738,1715374690870,-0.48,-1.39,-0.1,-132.2,196.17,414.12
739,1715374690880,-0.48,-1.39,-0.1,-132.2,196.17,414.12
740,1715374690890,-0.48,-1.39,-0.1,-132.2,196.17,414.12
741,1715374690900,-0.48,-1.39,-0.1,-132.2,196.17,414.12
742,1715374690910,0.6514285714285714,-1.827142857142857,-0.8114285714285715,-244.68285714285713,139.45285714285714,579.702857142857
743,1715374690920,0.84,-1.9,-0.93,-263.43,130.0,607.3
744,1715374690930,0.84,-1.9,-0.93,-263.43,130.0,607.3
745,1715374690940,1.2042857142857142,-1.6257142857142857,-0.7714285714285715,-252.52142857142857,96.78857142857143,591.1342857142856
746,1715374690950,1.69,-1.26,-0.56,-187.07,-102.48,494.14
747,1715374690960,1.69,-1.26,-0.56,-187.07,-102.48,494.14
748,1715374690970,1.69,-1.26,-0.56,-187.07,-102.48,494.14
749,1715374690980,1.6375,-1.36875,-0.51125,-209.54749999999999,-131.08875,458.365
750,1715374690990,1.55,-1.55,-0.43,-247.01,-178.77,398.74
751,1715374691000,1.55,-1.55,-0.43,-247.01,-178.77,398.74000000000007
752,1715374691010,1.55,-1.55,-0.43,-247.01,-178.77,398.74
753,1715374691020,1.65,-1.55,-0.42374999999999996,-243.32375,-198.09,379.42375000000004
754,1715374691030,1.71,-1.55,-0.42,-237.18,-230.29,347.23
755,1715374691040,1.7099999999999997,-1.55,-0.42,-237.18,-230.29,347.23
756,1715374691050,1.71,-1.55,-0.42,-237.18,-230.29,347.23
757,1715374691060,1.5,-1.48,0.07,-263.485,-211.125,323.515
758,1715374691070,1.47,-1.47,0.14,-289.79,-191.96,299.8
759,1715374691080,1.47,-1.47,0.14,-289.79,-191.96,299.8
760,1715374691090,1.4525,-1.4925,0.15500000000000003,-289.79,-191.96,299.8
761,1715374691100,1.33,-1.65,0.26,-337.4,-99.24,314.82
762,1715374691110,1.33,-1.65,0.26,-337.4,-99.24,314.82
763,1715374691120,1.33,-1.65,0.26,-337.4,-99.24,314.82
764,1715374691130,1.425,-1.8074999999999999,0.2825,-334.745,-82.80749999999999,329.225
765,1715374691140,1.7099999999999997,-2.28,0.35,-326.78000000000003,-33.51,372.44
766,1715374691150,1.71,-2.28,0.35,-326.78,-33.51,372.44
767,1715374691160,1.71,-2.28,0.35,-326.78,-33.51,372.44
768,1715374691170,2.1085714285714285,-2.142857142857143,0.07142857142857142,-290.44571428571425,-40.86,365.2442857142857
769,1715374691180,2.64,-1.96,-0.3,-242.0,-50.66,355.65
770,1715374691190,2.64,-1.96,-0.3,-242.0,-50.66,355.65
771,1715374691200,2.64,-1.96,-0.3,-242.0,-50.66,355.65
772,1715374691210,2.64,-1.9599999999999997,-0.3,-242.0,-50.660000000000004,355.65
773,1715374691220,2.83,-1.885,-0.20249999999999999,-220.775,-81.4525,326.965
774,1715374691230,3.4,-1.66,0.09,-157.1,-173.83,240.91
775,1715374691240,3.2642857142857147,-1.5814285714285714,0.79,-131.25,-120.07285714285715,137.41
776,1715374691250,3.21,-1.55,1.07,-120.91,-98.57,96.01
777,1715374691260,3.21,-1.55,1.07,-120.91,-98.57,96.01
778,1715374691270,3.21,-1.55,1.07,-120.91,-98.57000000000001,96.01
779,1715374691280,2.37,-1.165,0.88625,28.46,20.950000000000003,-3.8299999999999983
780,1715374691290,2.25,-1.11,0.86,78.25,60.79,-37.11
781,1715374691300,2.25,-1.11,0.86,78.25,60.79,-37.11
782,1715374691310,2.25,-1.11,0.86,78.25,60.79,-37.11
783,1715374691320,2.25,-1.11,0.86,78.25,60.79,-37.11
784,1715374691330,1.7,-0.63,-0.2,187.26,62.07,-125.31
785,1715374691340,1.7,-0.63,-0.2,187.26,62.07,-125.31
786,1715374691350,1.7,-0.63,-0.2,187.26,62.07,-125.31
787,1715374691360,1.2900000000000003,-0.37,0.09,149.41,19.71,-173.03
788,1715374691370,1.29,-0.37,0.09,149.41,19.71,-173.03
789,1715374691380,1.29,-0.37,0.09,149.41,19.71,-173.03
790,1715374691390,1.2585714285714287,-0.36,0.1357142857142857,147.99,28.31714285714286,-176.36999999999998
791,1715374691400,1.07,-0.3,0.41,139.47,79.96,-196.41
792,1715374691410,1.07,-0.3,0.41,139.47,79.96,-196.41
793,1715374691420,1.07,-0.3,0.41,139.47,79.96,-196.41
794,1715374691430,1.1042857142857143,-0.24285714285714285,0.3557142857142857,144.68142857142857,84.77142857142857,-213.27285714285716
795,1715374691440,1.19,-0.1,0.22,157.71,96.8,-255.43
796,1715374691450,1.19,-0.1,0.22,157.71,96.8,-255.43
797,1715374691460,1.19,-0.1,0.22,157.71,96.8,-255.43
798,1715374691470,1.40875,-0.39999999999999997,0.1825,207.035,65.98125,-323.7925
799,1715374691480,1.5400000000000003,-0.58,0.16,236.62999999999997,47.49,-364.81
800,1715374691490,1.54,-0.58,0.16,236.63,47.49,-364.81
801,1715374691500,1.54,-0.58,0.16,236.63,47.49,-364.81
802,1715374691510,1.8175,-0.7,0.2725,167.14499999999998,141.97,-356.355
803,1715374691520,1.91,-0.74,0.31,97.66,236.45,-347.9
804,1715374691530,1.91,-0.74,0.31,97.66,236.45,-347.9
805,1715374691540,1.91,-0.74,0.31,97.66,236.45,-347.9
806,1715374691550,2.0825,-0.8899999999999999,0.0625,104.6575,260.0225,-360.89750000000004
807,1715374691560,2.14,-0.9400000000000001,-0.02,106.99,267.88,-365.23
808,1715374691570,2.14,-0.94,-0.02,106.99,267.88,-365.23
809,1715374691580,2.14,-0.94,-0.02,106.99,267.88,-365.23
810,1715374691590,2.48,-1.2900000000000003,0.33,173.8685714285714,232.30857142857144,-409.18
811,1715374691600,2.48,-1.29,0.33,200.62,218.08,-426.76
812,1715374691610,2.48,-1.29,0.33,200.62,218.08,-426.76
813,1715374691620,2.48,-1.2900000000000003,0.33,200.62000000000003,218.08,-426.75999999999993
814,1715374691630,2.18,-1.03,0.24,204.65,139.16,-396.73
815,1715374691640,2.18,-1.03,0.24,204.65,139.16,-396.73
816,1715374691650,2.18,-1.03,0.24,204.65,139.16,-396.73
817,1715374691660,1.9257142857142857,-0.9071428571428571,0.25142857142857145,185.39857142857142,133.98,-383.0414285714286
818,1715374691670,1.29,-0.6,0.28,137.27,121.03,-348.82
819,1715374691680,1.2900000000000003,-0.6,0.28,137.27,121.03,-348.82
820,1715374691690,1.29,-0.6,0.28,137.27,121.03,-348.82
821,1715374691700,0.9225,-0.56625,0.21250000000000002,104.31125,122.245,-290.1775
822,1715374691710,0.31,-0.51,0.1,49.38,124.27,-192.44
823,1715374691720,0.31,-0.51,0.1,49.38,124.27,-192.44
824,1715374691730,0.31,-0.51,0.1,49.38,124.27,-192.44
825,1715374691740,-0.10714285714285714,-0.4471428571428571,-0.10571428571428572,36.43714285714286,129.32714285714286,-93.46285714285715
826,1715374691750,-0.42,-0.4,-0.26,26.73,133.12,-19.23
827,1715374691760,-0.42,-0.4,-0.26,26.73,133.12,-19.23
828,1715374691770,-0.42,-0.4,-0.26,26.73,133.12,-19.23
829,1715374691780,-0.84,-0.8714285714285713,-0.8942857142857142,-14.858571428571427,70.39428571428572,133.84714285714287
830,1715374691790,-0.91,-0.95,-1.0,-21.79,59.94,159.36
831,1715374691800,-0.91,-0.95,-1.0,-21.79,59.94,159.36
832,1715374691810,-0.91,-0.95,-1.0,-21.79,59.94,159.35999999999999
833,1715374691820,-0.28750000000000003,-1.1825,-0.8500000000000001,-74.815,-2.0912500000000023,280.55375
834,1715374691830,-0.08,-1.26,-0.8,-106.63,-39.31,353.27
835,1715374691840,-0.08,-1.26,-0.8,-106.63,-39.31,353.27
836,1715374691850,-0.08,-1.26,-0.8,-106.63,-39.31,353.27
837,1715374691860,0.44,-1.36,-0.76,-127.26,-95.28,401.0
838,1715374691870,0.44,-1.36,-0.76,-127.26,-95.28,401.0
839,1715374691880,0.44,-1.36,-0.76,-127.26,-95.28,401.0
840,1715374691890,0.53375,-1.315,-0.6925,-123.3225,-100.445,399.55
841,1715374691900,0.69,-1.24,-0.58,-95.76,-136.6,389.4
842,1715374691910,0.69,-1.24,-0.58,-95.76,-136.6,389.4
843,1715374691920,0.6900000000000001,-1.24,-0.58,-95.76,-136.6,389.4
844,1715374691930,0.9249999999999999,-1.06,-0.53,-168.79874999999998,-91.645,382.3275
845,1715374691940,1.16,-0.88,-0.48,-290.53,-16.72,370.54
846,1715374691950,1.16,-0.88,-0.48,-290.53,-16.72,370.54
847,1715374691960,1.16,-0.88,-0.48,-290.53,-16.72,370.54
848,1715374691970,1.1300000000000001,-1.06,-0.39749999999999996,-344.27,-23.71,297.88
849,1715374691980,1.12,-1.12,-0.37,-398.01,-30.7,225.22
850,1715374691990,1.12,-1.12,-0.37,-398.00999999999993,-30.7,225.22
851,1715374692000,1.12,-1.12,-0.37,-398.01,-30.7,225.22
852,1715374692010,1.26,-1.54875,-0.125,-312.6825,-122.20750000000001,201.7825
853,1715374692020,1.28,-1.61,-0.09,-284.24,-152.71,193.97
854,1715374692030,1.28,-1.61,-0.09,-284.24,-152.71,193.97
855,1715374692040,1.28,-1.61,-0.09,-284.24,-152.71,193.97
856,1715374692050,2.02,-2.5800000000000005,-0.21,-278.14,-201.48,231.14000000000001
857,1715374692060,2.02,-2.58,-0.21,-278.14,-201.48,231.14
858,1715374692070,2.02,-2.58,-0.21,-278.14,-201.48,231.14
859,1715374692080,2.08,-2.66125,-0.1475,-287.7525,-198.9925,235.7025
860,1715374692090,2.5,-3.23,0.29,-355.04,-181.58,267.64
861,1715374692100,2.5,-3.23,0.29,-355.04,-181.58,267.64
862,1715374692110,2.5,-3.23,0.29,-355.04,-181.58,267.64
863,1715374692120,2.5814285714285714,-3.1242857142857146,0.3742857142857143,-333.8085714285715,-184.48285714285717,266.5842857142857
864,1715374692130,3.07,-2.49,0.88,-206.42,-201.9,260.25
865,1715374692140,3.07,-2.49,0.88,-206.42,-201.9,260.25
866,1715374692150,3.07,-2.4899999999999998,0.88,-206.42,-201.9,260.25
867,1715374692160,2.99875,-2.1187500000000004,1.00375,-194.12875,-182.49125,244.42000000000002
868,1715374692170,2.88,-1.5,1.2099999999999997,-108.09,-46.63,133.61
869,1715374692180,2.88,-1.5,1.21,-108.09,-46.63,133.61
870,1715374692190,2.88,-1.5,1.21,-108.09,-46.63,133.61
871,1715374692200,2.434285714285714,-1.0142857142857142,1.0614285714285714,-44.40428571428571,-9.07,68.4557142857143
872,1715374692210,2.1,-0.65,0.95,3.36,19.1,19.59
873,1715374692220,2.1,-0.65,0.95,3.36,19.1,19.59
874,1715374692230,2.1,-0.65,0.95,3.36,19.1,19.59
875,1715374692240,1.83125,-0.50625,0.8875,41.4225,22.032500000000002,-14.010000000000002
876,1715374692250,1.67,-0.42,0.85,104.86,26.92,-70.01
877,1715374692260,1.67,-0.42,0.85,104.86,26.919999999999998,-70.01
878,1715374692270,1.67,-0.42,0.85,104.86,26.92,-70.01
879,1715374692280,1.5274999999999999,-0.2625,0.685,164.7775,18.677500000000002,-119.495
880,1715374692290,1.48,-0.21,0.63,184.75,15.929999999999998,-135.99
881,1715374692300,1.48,-0.21,0.63,184.75,15.93,-135.99
882,1715374692310,1.48,-0.21,0.63,184.75,15.93,-135.99
883,1715374692320,1.3685714285714285,-0.15857142857142856,0.6042857142857142,235.2357142857143,11.429999999999998,-218.54142857142855
884,1715374692330,1.35,-0.15,0.6,243.65,10.68,-232.3
885,1715374692340,1.35,-0.15,0.6,243.65,10.68,-232.3
886,1715374692350,1.3687500000000001,-0.18875,0.61,245.5275,14.44875,-241.89000000000001
887,1715374692360,1.5,-0.46,0.68,258.67,40.83,-309.02
888,1715374692370,1.5,-0.46,0.68,258.67,40.83,-309.02
889,1715374692380,1.5,-0.46,0.68,258.67,40.83,-309.02
890,1715374692390,1.5,-0.46,0.68,258.67,40.83,-309.02
891,1715374692400,1.92875,-0.99375,0.82875,241.415,143.905,-357.03125
892,1715374692410,1.99,-1.07,0.85,238.95,158.63,-363.89
893,1715374692420,1.99,-1.07,0.85,238.95,158.63,-363.89
894,1715374692430,2.0557142857142856,-1.2385714285714287,0.7871428571428571,232.41,193.5585714285714,-368.87857142857143
895,1715374692440,2.22,-1.66,0.63,216.06,280.88,-381.35
896,1715374692450,2.22,-1.66,0.63,216.06,280.88,-381.35
897,1715374692460,2.22,-1.66,0.63,216.06,280.88,-381.35
898,1715374692470,2.52,-1.725,0.745,230.16,275.1125,-389.2375
899,1715374692480,2.82,-1.79,0.86,272.46,257.81,-412.9
900,1715374692490,2.82,-1.79,0.86,272.46,257.81,-412.9
901,1715374692500,2.82,-1.7900000000000003,0.86,272.46,257.81,-412.9
902,1715374692510,2.82,-1.79,0.86,272.46,257.81,-412.9
903,1715374692520,2.82,-1.79,0.86,272.46,257.81,-412.9
904,1715374692530,2.642857142857143,-2.0242857142857145,0.6314285714285715,350.5857142857143,182.05571428571426,-461.27714285714285
905,1715374692540,2.51,-2.2,0.46,409.18,125.24,-497.56
906,1715374692550,2.0075,-1.54,0.28,415.2975,68.9975,-511.795
907,1715374692560,1.84,-1.32,0.22,433.65,-99.73,-554.5
908,1715374692570,1.84,-1.32,0.22,433.65,-99.73,-554.5
909,1715374692580,1.84,-1.32,0.22,433.65,-99.73,-554.5
910,1715374692590,1.26,-1.065,0.11,288.085,-1.3100000000000023,-512.05
911,1715374692600,0.68,-0.81,0.0,142.52,97.11,-469.6
912,1715374692610,0.68,-0.8099999999999999,0.0,142.52,97.11,-469.6
913,1715374692620,0.68,-0.81,0.0,142.52,97.11,-469.6
914,1715374692630,-0.6675,-0.7575000000000001,-0.8137500000000001,9.8,143.8875,-265.865
915,1715374692640,-0.86,-0.75,-0.93,-9.16,150.57,-236.76
916,1715374692650,-0.86,-0.75,-0.93,-9.16,150.57,-236.76
917,1715374692660,-0.8999999999999999,-0.7262500000000001,-0.9225000000000001,-17.49875,136.98999999999998,-200.29874999999998
918,1715374692670,-1.18,-0.56,-0.87,-75.87,41.93,54.93
919,1715374692680,-1.18,-0.56,-0.87,-75.87,41.93,54.93
920,1715374692690,-1.18,-0.56,-0.87,-75.87,41.93,54.93
921,1715374692700,-0.95,-0.77,-0.885,-108.91875,28.22,132.08625
922,1715374692710,-0.72,-0.9799999999999999,-0.9,-164.0,5.37,260.68
923,1715374692720,-0.72,-0.98,-0.9,-164.0,5.37,260.68
924,1715374692730,-0.72,-0.98,-0.9,-164.0,5.37,260.68
925,1715374692740,-0.014999999999999993,-1.6475,-0.6599999999999999,-236.905,-15.475000000000001,344.145
926,1715374692750,0.22,-1.87,-0.58,-309.81,-36.32,427.61
927,1715374692760,0.22,-1.8699999999999999,-0.58,-309.81,-36.32,427.61
928,1715374692770,0.22,-1.87,-0.58,-309.81,-36.32,427.61
929,1715374692780,0.7975,-1.8925,-0.415,-299.345,-105.89999999999999,448.57500000000005
930,1715374692790,0.99,-1.9,-0.36,-288.88,-175.48,469.54
931,1715374692800,0.99,-1.9,-0.36,-288.88,-175.48,469.54
932,1715374692810,0.99,-1.9,-0.36,-288.88,-175.48,469.54
933,1715374692820,1.2114285714285715,-1.4285714285714286,-0.20285714285714285,-148.84428571428572,-231.32285714285715,418.7114285714286
934,1715374692830,1.3,-1.24,-0.14,-92.83,-253.66,398.38
935,1715374692840,1.3,-1.24,-0.14,-92.83,-253.66,398.38
936,1715374692850,1.3,-1.24,-0.14,-92.83,-253.66,398.38
937,1715374692860,1.3699999999999999,-0.96875,-0.5425,-87.86874999999999,-243.83375,345.075
938,1715374692870,1.38,-0.93,-0.6,-87.16,-242.43,337.46
939,1715374692880,1.38,-0.93,-0.6,-87.16,-242.43,337.46
940,1715374692890,1.447142857142857,-0.9457142857142857,-0.5785714285714285,-91.42285714285715,-248.93428571428572,333.65
941,1715374692900,1.85,-1.04,-0.45,-117.0,-287.96,310.79
942,1715374692910,1.85,-1.04,-0.45,-117.0,-287.96,310.79
943,1715374692920,1.85,-1.04,-0.45,-117.0,-287.96,310.79
944,1715374692930,1.85,-1.04,-0.45,-117.0,-287.96,310.79
945,1715374692940,1.84,-0.95,-0.06,-136.6,-172.67,241.7
946,1715374692950,1.84,-0.95,-0.06,-136.6,-172.67,241.7
947,1715374692960,1.84,-0.95,-0.06,-136.6,-172.67,241.7
948,1715374692970,1.8457142857142856,-1.2671428571428571,-0.039999999999999994,-173.98857142857142,-139.06428571428572,253.78571428571428
949,1715374692980,1.86,-2.06,0.01,-267.46,-55.05,284.0
950,1715374692990,1.86,-2.06,0.01,-267.46,-55.05,284.0
951,1715374693000,1.86,-2.06,0.01,-267.46,-55.05,284.0
952,1715374693010,2.15,-2.105,0.195,-296.34499999999997,-34.925,300.03499999999997
953,1715374693020,2.44,-2.15,0.38,-383.0,25.45,348.14
954,1715374693030,2.44,-2.15,0.38,-383.0,25.45,348.14
955,1715374693040,2.44,-2.15,0.38,-383.0,25.45,348.14
956,1715374693050,2.742857142857143,-1.8985714285714284,0.24285714285714288,-306.86285714285714,8.569999999999999,309.6028571428571
957,1715374693060,2.97,-1.71,0.14,-249.76,-4.09,280.7
958,1715374693070,2.97,-1.7099999999999997,0.14,-249.76,-4.09,280.7
959,1715374693080,2.9800000000000004,-1.555,0.38,-179.995,-49.53,204.375
960,1715374693090,2.99,-1.4,0.62,-110.23,-94.97,128.05
961,1715374693100,2.9899999999999998,-1.4,0.62,-110.23,-94.97,128.05
962,1715374693110,2.99,-1.4,0.62,-110.23,-94.97,128.05
963,1715374693120,2.40375,-0.93625,0.9525,-58.08,-30.38875,64.84375
964,1715374693130,2.32,-0.87,1.0,-26.79,8.36,26.92
965,1715374693140,2.32,-0.87,1.0,-26.79,8.36,26.919999999999998
966,1715374693150,2.32,-0.87,1.0,-26.79,8.36,26.92
967,1715374693160,1.7900000000000003,-0.76,0.29,66.89,123.72,-67.44
968,1715374693170,1.7900000000000003,-0.76,0.29,66.89,123.72,-67.44
969,1715374693180,1.79,-0.76,0.29,66.89,123.72,-67.44
970,1715374693190,1.7862500000000001,-0.71625,0.295,69.035,123.88,-69.84375
971,1715374693200,1.76,-0.41,0.33,84.05,125.0,-86.67
972,1715374693210,1.76,-0.41,0.33,84.05,125.0,-86.67
973,1715374693220,1.76,-0.41,0.33,84.05,125.0,-86.67
974,1715374693230,1.6925000000000001,-0.38749999999999996,0.3825,85.3,142.04500000000002,-102.31
975,1715374693240,1.58,-0.35,0.47000000000000003,89.05,193.18,-149.23
976,1715374693250,1.58,-0.35,0.47,89.05,193.18,-149.23
977,1715374693260,1.58,-0.35,0.47,89.05,193.18,-149.23
978,1715374693270,1.37,-0.39,0.5349999999999999,104.8875,192.7375,-156.9675
979,1715374693280,1.16,-0.43,0.6,152.4,191.41,-180.18
980,1715374693290,1.16,-0.43,0.6,152.4,191.41,-180.18
981,1715374693300,1.16,-0.43,0.6,152.4,191.41,-180.18
982,1715374693310,1.23,-0.425,0.51,201.565,211.7,-196.47500000000002
983,1715374693320,1.3,-0.42,0.42,250.73,231.99,-212.77
984,1715374693330,1.3,-0.42,0.42,250.73,231.99,-212.77
985,1715374693340,1.3,-0.42,0.42,250.73,231.99,-212.77
986,1715374693350,1.207142857142857,-0.7057142857142856,0.19857142857142857,287.13714285714286,244.0257142857143,-228.33428571428573
987,1715374693360,1.17,-0.82,0.11,301.7,248.84,-234.56
988,1715374693370,1.17,-0.82,0.11,301.7,248.84,-234.56
989,1715374693380,1.17,-0.82,0.11,301.7,248.84,-234.56
990,1715374693390,1.44125,-0.82,0.19749999999999998,273.41,281.8475,-223.7525
991,1715374693400,1.48,-0.82,0.21,263.98,292.85,-220.15
992,1715374693410,1.48,-0.82,0.21,263.98,292.85,-220.15
993,1715374693420,1.48,-0.82,0.21,263.98,292.85,-220.15
994,1715374693430,2.72,-1.09,1.12,78.98,572.81,-189.64
995,1715374693440,2.72,-1.09,1.12,78.98,572.81,-189.64
996,1715374693450,2.72,-1.09,1.12,78.98,572.81,-189.64000000000001
997,1715374693460,2.6175,-1.12375,1.1175000000000002,78.98,572.81,-189.64
998,1715374693470,1.9,-1.36,1.1,203.86,482.6,-151.55
999,1715374693480,1.9,-1.36,1.1,203.86,482.6,-151.55
1000,1715374693490,1.9,-1.36,1.1,203.86,482.6,-151.55
