id,timestamp,acc_x,acc_y,acc_z,gyro_x,gyro_y,gyro_z
0,1715374732710,0.55,0.05000000000000001,0.82,8.97,-52.43,5.739999999999999
1,1715374732720,0.5725,0.065,0.8049999999999999,12.221250000000001,-54.44375,12.4
2,1715374732730,0.61,0.09,0.78,17.64,-57.8,23.5
3,1715374732740,0.61,0.09,0.78,17.64,-57.8,23.5
4,1715374732750,0.61,0.09,0.78,17.64,-57.8,23.5
5,1715374732760,0.6557142857142857,0.11285714285714286,0.78,-7.714285714285714,-41.86285714285714,17.014285714285712
6,1715374732770,0.69,0.13,0.78,-26.73,-29.91,12.15
7,1715374732780,0.69,0.13,0.78,-26.73,-29.91,12.15
8,1715374732790,0.6900000000000001,0.13,0.78,-26.73,-29.91,12.15
9,1715374732800,0.6775,0.055,0.73,-39.75375,-27.986250000000002,7.20375
10,1715374732810,0.67,0.01,0.7,-61.46,-24.78,-1.04
11,1715374732820,0.67,0.01,0.7,-61.46,-24.78,-1.04
12,1715374732830,0.67,0.01,0.7,-61.46,-24.78,-1.04
13,1715374732840,0.6475,-0.042499999999999996,0.505,-93.8475,-21.9175,-2.565
14,1715374732850,0.64,-0.06,0.44,-113.28,-20.2,-3.48
15,1715374732860,0.64,-0.06,0.44,-113.28,-20.2,-3.48
16,1715374732870,0.64,-0.06,0.44,-113.28,-20.2,-3.48
17,1715374732880,0.48250000000000004,-0.26125,0.16875,-112.73,-17.455,6.285
18,1715374732890,0.46,-0.29,0.13,-112.17999999999999,-14.709999999999999,16.05
19,1715374732900,0.46,-0.29,0.13,-112.18,-14.71,16.05
20,1715374732910,0.46,-0.29,0.13,-112.18,-14.71,16.05
21,1715374732920,0.41,-0.51,-0.16,-128.78,-54.5,44.37
22,1715374732930,0.41,-0.51,-0.16,-128.78,-54.5,44.37
23,1715374732940,0.41,-0.51,-0.16,-128.78,-54.5,44.37
24,1715374732950,0.41,-0.51,-0.16,-128.78,-54.5,44.37
25,1715374732960,0.69,-0.68,-0.14,-191.83,-96.25,58.84
26,1715374732970,0.69,-0.68,-0.14,-191.83,-96.25,58.84
27,1715374732980,0.69,-0.68,-0.14,-191.83,-96.25,58.84
28,1715374732990,0.7057142857142856,-0.7271428571428571,-0.09285714285714287,-191.83,-96.25,58.839999999999996
29,1715374733000,0.8,-1.01,0.19,-213.4075,-108.3775,65.72625
30,1715374733010,0.8,-1.01,0.19,-216.49,-110.11,66.71
31,1715374733020,0.8,-1.01,0.19,-216.49,-110.11,66.71
32,1715374733030,0.8500000000000001,-1.04,0.2375,-229.03250000000003,-105.485,72.02
33,1715374733040,1.0,-1.13,0.38,-266.66,-91.61,87.95
34,1715374733050,1.0,-1.13,0.38,-266.66,-91.61,87.95
35,1715374733060,1.0,-1.13,0.38,-266.66,-91.61,87.95
36,1715374733070,1.2,-1.2,0.7450000000000001,-269.39250000000004,-92.9525,79.4675
37,1715374733080,1.4,-1.27,1.11,-277.59,-96.98,54.02
38,1715374733090,1.4,-1.27,1.11,-277.59,-96.98,54.02
39,1715374733100,1.4,-1.27,1.11,-277.59,-96.98,54.02
40,1715374733110,1.4685714285714284,-1.3271428571428572,1.3842857142857146,-274.37142857142857,-63.81285714285714,55.142857142857146
41,1715374733120,1.52,-1.3699999999999999,1.59,-270.08,-19.59,56.64
42,1715374733130,1.52,-1.37,1.59,-270.08,-19.59,56.64
43,1715374733140,1.52,-1.37,1.59,-270.08,-19.59,56.64
44,1715374733150,1.4685714285714284,-1.2328571428571427,1.7328571428571429,-228.71428571428572,4.615714285714286,43.38857142857143
45,1715374733160,1.43,-1.13,1.84,-197.69,22.77,33.45
46,1715374733170,1.43,-1.13,1.84,-197.69,22.77,33.45
47,1715374733180,1.43,-1.13,1.84,-197.69,22.77,33.45
48,1715374733190,1.42125,-0.84125,2.12,-73.5275,9.785,17.42875
49,1715374733200,1.42,-0.8,2.16,-55.79,7.93,15.14
50,1715374733210,1.42,-0.8,2.16,-55.79,7.93,15.14
51,1715374733220,1.42,-0.8,2.16,-55.79,7.93,15.14
52,1715374733230,1.105,-0.3275,1.99375,2.987499999999999,86.305,6.8075
53,1715374733240,1.06,-0.26,1.97,22.580000000000002,112.42999999999999,4.03
54,1715374733250,1.06,-0.26,1.97,22.58,112.43,4.03
55,1715374733260,1.06,-0.26,1.97,22.58,112.43,4.03
56,1715374733270,0.78,-0.23,1.92,91.635,146.66000000000003,-3.3987499999999997
57,1715374733280,0.78,-0.23,1.92,101.5,151.55,-4.46
58,1715374733290,0.78,-0.23,1.92,101.5,151.55,-4.46
59,1715374733300,0.745,-0.30500000000000005,1.83,101.5,151.55,-4.46
60,1715374733310,0.64,-0.53,1.56,247.92,109.56,-2.5
61,1715374733320,0.64,-0.53,1.56,247.92,109.56000000000002,-2.5
62,1715374733330,0.64,-0.53,1.56,247.92,109.56,-2.5
63,1715374733340,0.76,-0.5825,1.5925,271.955,104.70750000000001,-7.17
64,1715374733350,1.12,-0.74,1.69,344.06,90.15,-21.18
65,1715374733360,1.12,-0.74,1.69,344.06,90.15,-21.18
66,1715374733370,1.12,-0.74,1.69,344.06,90.15,-21.18
67,1715374733380,1.12,-0.74,1.69,344.06,90.15,-21.18
68,1715374733390,1.4028571428571428,-1.4428571428571428,1.75,341.3342857142857,180.39000000000001,-60.942857142857136
69,1715374733400,1.45,-1.56,1.76,340.88,195.43,-67.57
70,1715374733410,1.45,-1.56,1.76,340.88,195.43,-67.57
71,1715374733420,1.5142857142857142,-1.9242857142857142,1.602857142857143,379.11571428571426,201.57999999999998,-73.19142857142856
72,1715374733430,1.54,-2.07,1.54,394.41,204.04,-75.44
73,1715374733440,1.5400000000000003,-2.07,1.5400000000000003,394.41,204.04,-75.43999999999998
74,1715374733450,1.54,-2.07,1.54,394.41,204.04,-75.44
75,1715374733460,1.49,-2.005,1.2850000000000001,406.0525,196.83749999999998,-83.71
76,1715374733470,1.34,-1.81,0.52,440.98,175.23,-108.52
77,1715374733480,1.34,-1.81,0.52,440.98,175.23,-108.52
78,1715374733490,1.34,-1.81,0.52,440.98,175.23,-108.52
79,1715374733500,0.9025000000000001,-1.7037499999999999,0.051250000000000004,362.28000000000003,157.11125,-104.55125
80,1715374733510,0.64,-1.64,-0.23,315.06,146.24,-102.17
81,1715374733520,0.64,-1.64,-0.23,315.06,146.24,-102.17
82,1715374733530,0.64,-1.64,-0.23,315.06,146.24,-102.17
83,1715374733540,0.64,-1.64,-0.23,315.06,146.24,-102.17
84,1715374733550,0.4857142857142857,-1.5457142857142858,-0.40714285714285714,260.63428571428574,125.67999999999999,-81.19285714285715
85,1715374733560,0.1,-1.31,-0.85,124.57,74.28,-28.75
86,1715374733570,-0.029999999999999992,-1.2025000000000001,-1.04,99.02749999999999,60.875,-19.81625
87,1715374733580,-0.42,-0.88,-1.61,-79.77,-32.96,42.71999999999999
88,1715374733590,-0.42,-0.88,-1.61,-79.77,-32.96,42.72
89,1715374733600,-0.42,-0.88,-1.61,-79.77,-32.96,42.72
90,1715374733610,-0.42,-0.88,-1.61,-79.77,-32.96,42.72
91,1715374733620,0.21,-0.7299999999999999,-1.6199999999999999,-224.48142857142855,-189.07142857142858,68.25428571428571
92,1715374733630,0.21,-0.73,-1.62,-248.6,-215.09,72.51
93,1715374733640,0.21,-0.7299999999999999,-1.6199999999999999,-248.6,-215.09,72.51
94,1715374733650,0.375,-0.99625,-1.32375,-298.31,-237.08375,66.49125000000001
95,1715374733660,0.65,-1.44,-0.83,-381.16,-273.74,56.46
96,1715374733670,0.65,-1.44,-0.83,-381.16,-273.74,56.46
97,1715374733680,0.65,-1.44,-0.83,-381.16,-273.74,56.46
98,1715374733690,0.70625,-1.5899999999999999,-0.58,-396.82000000000005,-278.84000000000003,74.8
99,1715374733700,0.74,-1.68,-0.43,-412.48,-283.94,93.14
100,1715374733710,0.74,-1.68,-0.43,-412.48,-283.94,93.14
101,1715374733720,0.74,-1.68,-0.43,-412.48,-283.94,93.14
102,1715374733730,0.8275,-1.755,-0.39875,-397.58500000000004,-282.015,130.465
103,1715374733740,0.88,-1.8,-0.38,-382.69,-280.09,167.79
104,1715374733750,0.88,-1.8,-0.38,-382.69,-280.09,167.79
105,1715374733760,0.88,-1.8,-0.38,-382.69,-280.09,167.79
106,1715374733770,1.55375,-1.68625,-0.21375,-387.17875,-310.47875,151.17375
107,1715374733780,1.65,-1.67,-0.19,-387.82,-314.82,148.8
108,1715374733790,1.65,-1.67,-0.19,-387.82,-314.82,148.8
109,1715374733800,1.65,-1.67,-0.19,-387.82,-314.82,148.8
110,1715374733810,1.9357142857142855,-2.005714285714286,-0.07571428571428572,-331.7128571428571,-350.1771428571428,118.93571428571428
111,1715374733820,2.05,-2.14,-0.03,-309.27,-364.32,106.99
112,1715374733830,2.05,-2.14,-0.03,-309.27,-364.32,106.99
113,1715374733840,2.05,-2.14,-0.03,-309.27,-364.32,106.99
114,1715374733850,3.85,-2.23,1.1,-222.05,-453.98,121.83
115,1715374733860,3.85,-2.23,1.1,-222.05,-453.98,121.83
116,1715374733870,3.85,-2.23,1.1,-222.05,-453.98,121.83
117,1715374733880,3.6825,-2.165,1.28125,-232.46375,-378.75375,104.35875
118,1715374733890,2.5100000000000002,-1.7099999999999997,2.55,-305.36,147.83,-17.94
119,1715374733900,2.51,-1.71,2.55,-305.36,147.83,-17.94
120,1715374733910,2.51,-1.71,2.55,-305.36,147.83,-17.94
121,1715374733920,2.51,-1.71,2.55,-305.36,147.83,-17.94
122,1715374733930,1.65,-1.83,0.71,-117.55,245.42,105.1
123,1715374733940,1.65,-1.83,0.71,-117.55,245.42,105.1
124,1715374733950,1.65,-1.83,0.71,-117.55,245.42,105.1
125,1715374733960,1.8585714285714285,-1.6700000000000002,0.6442857142857142,-57.089999999999996,190.80285714285714,69.21142857142857
126,1715374733970,2.38,-1.27,0.48,94.06,54.26,-20.51
127,1715374733980,2.38,-1.27,0.48,94.06,54.26,-20.51
128,1715374733990,2.38,-1.27,0.48,94.06,54.26,-20.51
129,1715374734000,2.0628571428571427,-1.3642857142857143,0.5957142857142858,121.89142857142858,62.63,-50.85285714285715
130,1715374734010,1.64,-1.49,0.75,159.0,73.79,-91.31000000000002
131,1715374734020,1.64,-1.49,0.75,159.0,73.79,-91.31
132,1715374734030,1.64,-1.49,0.75,159.0,73.79,-91.31
133,1715374734040,1.5999999999999999,-1.3214285714285714,0.6900000000000001,170.40285714285713,81.49857142857142,-87.56142857142858
134,1715374734050,1.5,-0.9,0.54,198.91,100.77,-78.19
135,1715374734060,1.5,-0.9,0.54,198.91,100.77,-78.19
136,1715374734070,1.5,-0.9,0.54,198.91,100.77,-78.18999999999998
137,1715374734080,1.525,-0.675,0.40875,276.69125,53.12625,-156.84625
138,1715374734090,1.54,-0.54,0.33,323.36,24.54,-204.04
139,1715374734100,1.5400000000000003,-0.54,0.33,323.36,24.54,-204.04
140,1715374734110,1.54,-0.54,0.33,323.36,24.54,-204.04
141,1715374734120,1.9775,-0.41750000000000004,0.7150000000000001,382.37875,38.53125,-272.185
142,1715374734130,2.04,-0.4,0.7700000000000001,390.81,40.53000000000001,-281.92
143,1715374734140,2.04,-0.4,0.77,390.81,40.53,-281.92
144,1715374734150,2.04,-0.4,0.77,390.81,40.53,-281.92
145,1715374734160,2.16,-1.22,0.75,293.46,230.77,-394.9
146,1715374734170,2.16,-1.22,0.75,293.46,230.77,-394.9
147,1715374734180,2.16,-1.22,0.75,293.46,230.77,-394.9
148,1715374734190,2.2525,-1.2275,0.69,293.46,230.77,-394.9
149,1715374734200,2.53,-1.25,0.51,252.75,379.7,-336.0
150,1715374734210,2.53,-1.25,0.51,252.75,379.7,-336.0
151,1715374734220,2.53,-1.25,0.51,252.75,379.7,-336.0
152,1715374734230,2.425,-1.4825,0.3825,254.3975,388.2675,-331.605
153,1715374734240,2.25,-1.87,0.17,265.93,448.24,-300.84
154,1715374734250,2.25,-1.87,0.17,265.93,448.24,-300.84
155,1715374734260,2.25,-1.8699999999999999,0.17,265.93,448.24000000000007,-300.84
156,1715374734270,2.0324999999999998,-1.8587500000000001,-0.11874999999999998,306.19,424.91875,-300.8175
157,1715374734280,1.67,-1.84,-0.6,373.29,386.05,-300.78
158,1715374734290,1.67,-1.84,-0.6,373.29,386.05,-300.78000000000003
159,1715374734300,1.67,-1.84,-0.6,373.29,386.05,-300.78
160,1715374734310,0.5075,-1.1875,-1.035,434.4775,189.85625000000002,-349.455
161,1715374734320,0.12,-0.97,-1.18,471.19,72.14,-378.66
162,1715374734330,0.12,-0.97,-1.18,471.19,72.14,-378.66
163,1715374734340,0.12,-0.97,-1.18,471.19,72.14,-378.66
164,1715374734350,-0.6675,-0.47625,-1.18625,444.715,-118.59125,-399.14750000000004
165,1715374734360,-1.14,-0.18,-1.19,428.83,-233.03,-411.44
166,1715374734370,-1.14,-0.18,-1.19,428.83,-233.03,-411.44
167,1715374734380,-1.14,-0.18,-1.19,428.83,-233.03,-411.44
168,1715374734390,-1.79,-0.93,-0.41,180.91,-284.24,-150.21
169,1715374734400,-1.7900000000000003,-0.93,-0.41,180.91,-284.24,-150.21
170,1715374734410,-1.79,-0.93,-0.41,180.91,-284.24,-150.21
171,1715374734420,-1.7900000000000003,-0.93,-0.41,180.91,-284.24,-150.21
172,1715374734430,-1.42,-1.53,-0.08,-10.653750000000002,-106.72,260.90875
173,1715374734440,-1.42,-1.53,-0.08,-38.02,-81.36,319.64
174,1715374734450,-1.42,-1.53,-0.08,-38.02,-81.36,319.64
175,1715374734460,-0.875,-1.675,-0.1375,-60.4675,-68.5275,396.7875
176,1715374734470,0.76,-2.11,-0.31,-127.81,-30.03,628.23
177,1715374734480,0.76,-2.11,-0.31,-127.81,-30.03,628.23
178,1715374734490,0.76,-2.11,-0.31,-127.81000000000002,-30.03,628.2300000000001
179,1715374734500,1.56,-1.96,-0.32,-202.365,-20.355,655.21
180,1715374734510,2.36,-1.81,-0.33,-276.92,-10.68,682.19
181,1715374734520,2.36,-1.81,-0.33,-276.92,-10.68,682.19
182,1715374734530,2.36,-1.81,-0.33,-276.92,-10.679999999999998,682.1899999999999
183,1715374734540,2.1725,-1.2475,-0.33,-321.78125,-15.348749999999999,617.6
184,1715374734550,2.06,-0.91,-0.33,-396.55,-23.13,509.95
185,1715374734560,2.06,-0.91,-0.33,-396.55,-23.13,509.95
186,1715374734570,2.06,-0.91,-0.33,-396.55,-23.13,509.95
187,1715374734580,1.7075,-0.895,-0.99,-364.04499999999996,-205.4625,317.32
188,1715374734590,1.59,-0.89,-1.2099999999999997,-353.21,-266.24,253.10999999999999
189,1715374734600,1.59,-0.89,-1.21,-353.21,-266.24,253.11
190,1715374734610,1.59,-0.89,-1.21,-353.21,-266.24,253.11
191,1715374734620,1.96,-1.03,-0.01,-248.14999999999998,-346.52750000000003,228.21
192,1715374734630,1.9599999999999997,-1.03,-0.01,-213.12999999999997,-373.29,219.91
193,1715374734640,1.96,-1.03,-0.01,-213.13,-373.29,219.91
194,1715374734650,1.96,-1.03,-0.01,-213.13,-373.29,219.91
195,1715374734660,1.9525,-0.8724999999999999,-0.1975,-259.96,-244.2,255.70749999999998
196,1715374734670,1.95,-0.82,-0.26,-275.57,-201.17,267.64
197,1715374734680,1.95,-0.82,-0.26,-275.57,-201.17,267.64
198,1715374734690,2.05,-0.9175,-0.2025,-274.1525,-209.38,260.9575
199,1715374734700,2.35,-1.2099999999999997,-0.03,-269.9,-234.01,240.91
200,1715374734710,2.35,-1.21,-0.03,-269.9,-234.01,240.91
201,1715374734720,2.35,-1.21,-0.03,-269.9,-234.01,240.91
202,1715374734730,2.35,-1.21,-0.03,-269.9,-234.01,240.91
203,1715374734740,2.35,-1.2099999999999997,-0.03,-269.9,-234.01,240.91
204,1715374734750,2.6925,-1.0675,0.1625,-249.39249999999998,-218.0325,226.9625
205,1715374734760,3.72,-0.64,0.74,-187.87000000000003,-170.1,185.12000000000003
206,1715374734770,3.2175000000000002,-0.91,0.91625,-187.87,-170.1,185.12
207,1715374734780,2.38,-1.36,1.21,-201.9075,27.80625000000001,114.92625000000001
208,1715374734790,2.38,-1.36,1.2099999999999997,-210.33,146.55,72.81
209,1715374734800,2.38,-1.36,1.21,-210.33,146.55,72.81
210,1715374734810,2.38,-1.36,1.21,-210.33,146.55,72.81
211,1715374734820,2.38,-1.36,1.21,-210.33,146.55,72.81
212,1715374734830,2.5100000000000002,-1.2099999999999997,0.01,102.6,36.32,10.31
213,1715374734840,2.51,-1.21,0.01,102.6,36.32,10.31
214,1715374734850,2.412857142857143,-1.1185714285714285,0.06142857142857144,201.54857142857142,-26.74285714285715,-73.07857142857144
215,1715374734860,2.34,-1.05,0.1,275.76,-74.04,-135.62
216,1715374734870,2.34,-1.05,0.1,275.76,-74.04,-135.62
217,1715374734880,2.34,-1.05,0.1,275.76,-74.04,-135.62
218,1715374734890,1.76,-0.63,0.4,273.01000000000005,-4.932857142857144,-135.92714285714285
219,1715374734900,1.76,-0.63,0.4,271.91,22.71,-136.05
220,1715374734910,1.76,-0.63,0.4,271.91,22.71,-136.05
221,1715374734920,1.76,-0.63,0.4,271.91,22.71,-136.05
222,1715374734930,1.47,-0.34,0.16,213.64375,129.35500000000002,-145.39499999999998
223,1715374734940,1.47,-0.34,0.16,205.32,144.59,-146.73
224,1715374734950,1.47,-0.34,0.16,205.32,144.59,-146.73
225,1715374734960,1.47,-0.32125000000000004,0.14625,209.53125,145.3225,-156.83124999999998
226,1715374734970,1.47,-0.19,0.05,239.01,150.45,-227.54
227,1715374734980,1.47,-0.19,0.05,239.01,150.45,-227.54
228,1715374734990,1.47,-0.19,0.05,239.01,150.45,-227.54
229,1715374735000,1.5162499999999999,-0.1875,0.045000000000000005,248.85999999999999,141.48624999999998,-247.98624999999998
230,1715374735010,1.84,-0.17,0.01,317.81,78.74,-391.11
231,1715374735020,1.84,-0.17,0.01,317.81,78.74,-391.11
232,1715374735030,1.84,-0.17,0.01,317.81,78.74,-391.11
233,1715374735040,2.0114285714285716,-0.24285714285714288,-0.011428571428571429,318.2628571428572,72.2,-413.5971428571429
234,1715374735050,2.24,-0.34,-0.04,320.98,32.96,-548.52
235,1715374735060,2.24,-0.34,-0.04,320.98,32.96,-548.52
236,1715374735070,2.24,-0.34,-0.04,320.98,32.96,-548.52
237,1715374735080,1.8900000000000001,-0.6775,-0.24,229.13125000000002,72.00500000000001,-545.68125
238,1715374735090,1.68,-0.88,-0.36,76.05,137.08,-540.95
239,1715374735100,1.68,-0.88,-0.36,76.05,137.08,-540.95
240,1715374735110,1.68,-0.88,-0.36,76.05,137.08,-540.95
241,1715374735120,1.8225,-0.6475,-0.40499999999999997,22.447499999999998,136.35250000000002,-508.4525
242,1715374735130,1.87,-0.57,-0.42,4.58,136.11,-497.62
243,1715374735140,1.8699999999999999,-0.57,-0.42,4.58,136.11,-497.62
244,1715374735150,1.87,-0.57,-0.42,4.58,136.11,-497.62
245,1715374735160,1.1914285714285715,-0.6914285714285714,-0.2557142857142857,-29.948571428571427,147.70285714285714,-478.0414285714286
246,1715374735170,0.92,-0.74,-0.19,-43.76,152.34,-470.21
247,1715374735180,0.92,-0.74,-0.19,-43.76,152.34,-470.21
248,1715374735190,0.92,-0.74,-0.19,-43.76,152.34,-470.21
249,1715374735200,-0.44,-0.59,-0.41,-24.9,125.0,-342.71
250,1715374735210,-0.44,-0.59,-0.41,-24.9,125.0,-342.71
251,1715374735220,-0.44,-0.59,-0.41,-24.9,125.0,-342.71
252,1715374735230,-0.6085714285714285,-0.5942857142857143,-0.3628571428571429,-15.805714285714284,108.36285714285714,-317.8428571428571
253,1715374735240,-1.62,-0.62,-0.08,38.76,8.54,-168.64
254,1715374735250,-1.62,-0.62,-0.08,38.76,8.54,-168.64
255,1715374735260,-1.6199999999999999,-0.62,-0.08,38.76,8.54,-168.64000000000001
256,1715374735270,-1.62,-0.62,-0.08,38.76,8.54,-168.64
257,1715374735280,-1.49,-1.3,-0.07,90.45,-21.06,196.66
258,1715374735290,-1.49,-1.3,-0.07,90.45,-21.06,196.66
259,1715374735300,-1.49,-1.3,-0.07,90.45,-21.06,196.66
260,1715374735310,-0.595,-1.385,-0.32999999999999996,61.75,-4.015,280.03249999999997
261,1715374735320,0.3,-1.47,-0.59,-24.35,47.12,530.15
262,1715374735330,0.3,-1.47,-0.59,-24.35,47.12,530.15
263,1715374735340,0.3,-1.47,-0.59,-24.35,47.12,530.15
264,1715374735350,0.5575,-1.5375,-0.6425,-64.5125,36.3775,558.0899999999999
265,1715374735360,1.33,-1.74,-0.8,-185.0,4.15,641.91
266,1715374735370,1.33,-1.74,-0.8,-185.0,4.15,641.91
267,1715374735380,1.33,-1.74,-0.8,-185.0,4.15,641.91
268,1715374735390,1.855,-1.28375,-0.5875,-270.25625,-29.8375,603.99125
269,1715374735400,2.17,-1.01,-0.46,-321.41,-50.23,581.24
270,1715374735410,2.17,-1.01,-0.46,-321.41,-50.23,581.24
271,1715374735420,2.17,-1.01,-0.46,-321.41,-50.23,581.24
272,1715374735430,1.855,-1.095,-0.45,-360.9,-90.17999999999999,469.76
273,1715374735440,1.54,-1.18,-0.44,-400.39,-130.13,358.28
274,1715374735450,1.54,-1.18,-0.44,-400.39,-130.13,358.28
275,1715374735460,1.5400000000000003,-1.18,-0.44,-400.39,-130.13,358.28000000000003
276,1715374735470,1.84625,-1.0575,-0.32625,-269.60375,-283.9375,307.32875
277,1715374735480,1.89,-1.04,-0.31,-250.92,-305.91,300.05
278,1715374735490,1.89,-1.04,-0.31,-250.92,-305.91,300.05
279,1715374735500,1.9049999999999998,-0.96375,-0.2525,-246.82999999999998,-295.49625000000003,291.505
280,1715374735510,2.01,-0.43,0.15,-218.2,-222.6,231.69
281,1715374735520,2.01,-0.43,0.15,-218.2,-222.6,231.69
282,1715374735530,2.01,-0.43,0.15,-218.2,-222.6,231.69
283,1715374735540,1.8674999999999997,-0.605,0.1025,-218.2,-222.6,231.69
284,1715374735550,1.44,-1.13,-0.04,-202.33,-202.94,159.60999999999999
285,1715374735560,1.44,-1.13,-0.04,-202.33,-202.94,159.61
286,1715374735570,1.44,-1.13,-0.04,-202.33,-202.94,159.61
287,1715374735580,1.5757142857142856,-1.24,-0.05714285714285715,-187.27142857142857,-213.97857142857143,166.25428571428574
288,1715374735590,2.39,-1.9,-0.16,-96.92,-280.21,206.12
289,1715374735600,2.39,-1.9,-0.16,-96.92,-280.21,206.12
290,1715374735610,2.39,-1.9,-0.16,-96.92,-280.21,206.12
291,1715374735620,2.8485714285714288,-1.5999999999999999,0.22999999999999998,-100.53142857142858,-256.7728571428571,196.8942857142857
292,1715374735630,3.46,-1.2,0.75,-109.56,-198.18,173.83
293,1715374735640,3.46,-1.2,0.75,-109.56,-198.18,173.83
294,1715374735650,3.46,-1.2,0.75,-109.56,-198.18,173.83
295,1715374735660,3.14,-1.3399999999999999,0.8214285714285714,-97.47428571428573,-123.47428571428573,140.95857142857145
296,1715374735670,2.34,-1.69,1.0,-67.26,63.29,58.78
297,1715374735680,2.34,-1.69,1.0,-67.26,63.29,58.78
298,1715374735690,2.34,-1.69,1.0,-67.26,63.29,58.78
299,1715374735700,2.3285714285714283,-1.3357142857142856,0.4571428571428572,65.1,18.267142857142858,25.854285714285712
300,1715374735710,2.32,-1.07,0.05,164.37,-15.5,1.16
301,1715374735720,2.32,-1.07,0.05,164.37,-15.5,1.16
302,1715374735730,2.32,-1.07,0.05,164.37000000000003,-15.5,1.16
303,1715374735740,2.0575,-0.6275,0.16999999999999998,195.22,-24.075,-53.68
304,1715374735750,1.97,-0.48,0.21,226.07,-32.65,-108.52
305,1715374735760,1.97,-0.48,0.21,226.07,-32.65,-108.52
306,1715374735770,1.97,-0.48,0.21,226.07,-32.65,-108.52
307,1715374735780,1.512857142857143,-0.2871428571428571,0.1742857142857143,206.97714285714284,34.09285714285714,-121.3342857142857
308,1715374735790,1.33,-0.21,0.16,199.34,60.79,-126.46
309,1715374735800,1.33,-0.21,0.16,199.34,60.79,-126.46
310,1715374735810,1.33,-0.21,0.16,199.34,60.79,-126.46
311,1715374735820,0.48999999999999994,0.07,-1.82,338.2914285714286,-116.9814285714286,-266.51714285714286
312,1715374735830,0.49,0.07,-1.82,361.45,-146.61,-289.86
313,1715374735840,0.48999999999999994,0.07,-1.82,361.45,-146.60999999999999,-289.86
314,1715374735850,0.49,0.07,-1.82,361.45,-146.61,-289.86
315,1715374735860,1.15,0.39,0.25,376.29875000000004,-298.44,-411.30125
316,1715374735870,1.15,0.39,0.25,378.42,-320.13,-428.65
317,1715374735880,1.15,0.39,0.25,378.42,-320.13,-428.65
318,1715374735890,1.38,0.18,0.22,34.97,12.63,-355.1
319,1715374735900,1.3800000000000001,0.18,0.22,34.97,12.63,-355.1
320,1715374735910,1.38,0.18,0.22,34.97,12.63,-355.1
321,1715374735920,1.4874999999999998,0.1275,0.11,-18.557499999999997,54.927499999999995,-353.3775
322,1715374735930,1.81,-0.03,-0.22,-179.14,181.82,-348.21
323,1715374735940,1.81,-0.03,-0.22,-179.14000000000001,181.82,-348.21
324,1715374735950,1.81,-0.03,-0.22,-179.14,181.82,-348.21
325,1715374735960,2.0825,-0.0375,-0.1075,-164.67499999999998,191.76999999999998,-366.9625
326,1715374735970,2.9,-0.06,0.23,-121.28,221.62000000000003,-423.21999999999997
327,1715374735980,2.9,-0.06,0.23,-121.28,221.62,-423.22
328,1715374735990,2.9,-0.06,0.23,-121.28,221.62,-423.22
329,1715374736000,2.9,-0.06,0.23,-121.28,221.62,-423.22
330,1715374736010,3.75,-0.03,0.475,-164.55,307.19,-454.165
331,1715374736020,4.6,0.0,0.72,-207.82,392.75999999999993,-485.11
332,1715374736030,4.6,0.0,0.72,-207.82,392.76,-485.11
333,1715374736040,4.125,-0.7062499999999999,0.82625,-119.655,375.42499999999995,-559.115
334,1715374736050,3.84,-1.13,0.89,-31.49,358.09,-633.12
335,1715374736060,3.84,-1.13,0.89,-31.49,358.09,-633.12
336,1715374736070,3.84,-1.13,0.89,-31.49,358.09,-633.12
337,1715374736080,2.42125,-1.5675,0.09,89.54749999999999,310.6775,-592.07
338,1715374736090,1.57,-1.83,-0.39,162.17,282.23,-567.44
339,1715374736100,1.57,-1.83,-0.39,162.17,282.23,-567.44
340,1715374736110,1.57,-1.83,-0.39,162.17,282.23,-567.44
341,1715374736120,-0.76,-1.89,-1.0,157.07,161.46571428571428,-413.6328571428572
342,1715374736130,-0.76,-1.89,-1.0,155.03,113.16,-352.11
343,1715374736140,-0.76,-1.89,-1.0,155.03,113.16,-352.11
344,1715374736150,-0.76,-1.89,-1.0,155.03,113.16,-352.11
345,1715374736160,-2.46,-2.37,-0.96,114.86749999999999,28.4075,-43.15625
346,1715374736170,-2.46,-2.37,-0.96,109.13,16.3,0.98
347,1715374736180,-2.46,-2.37,-0.96,109.13,16.3,0.98
348,1715374736190,-2.2657142857142856,-2.41,-0.9414285714285714,89.70285714285714,11.835714285714287,77.56142857142856
349,1715374736200,-1.1,-2.65,-0.83,-26.86,-14.95,537.05
350,1715374736210,-1.1,-2.65,-0.83,-26.86,-14.95,537.05
351,1715374736220,-1.1,-2.65,-0.83,-26.859999999999996,-14.95,537.05
352,1715374736230,-0.042500000000000066,-2.5037499999999997,-0.81125,-109.43875,3.3125,627.96125
353,1715374736240,1.72,-2.26,-0.78,-247.07,33.75,779.48
354,1715374736250,1.72,-2.26,-0.78,-247.07,33.75,779.48
355,1715374736260,1.72,-2.26,-0.78,-247.07,33.75,779.4800000000001
356,1715374736270,1.8775,-2.005,-0.585,-295.6225,31.2025,764.3275
357,1715374736280,2.14,-1.58,-0.26,-441.28,23.56,718.87
358,1715374736290,2.14,-1.58,-0.26,-441.28,23.56,718.87
359,1715374736300,2.14,-1.58,-0.26,-441.28000000000003,23.56,718.87
360,1715374736310,1.7837500000000002,-1.0675000000000001,-0.2725,-444.09625,-9.42125,608.2975
361,1715374736320,1.57,-0.76,-0.28,-448.79,-64.39,424.01
362,1715374736330,1.57,-0.76,-0.28,-448.79,-64.39,424.01
363,1715374736340,1.57,-0.76,-0.28,-448.79,-64.39,424.00999999999993
364,1715374736350,1.31375,-1.035,-0.18,-358.69,-196.99,295.26625
365,1715374736360,1.16,-1.2,-0.12,-304.63,-276.55,218.02
366,1715374736370,1.16,-1.2,-0.12,-304.63,-276.55,218.02
367,1715374736380,1.16,-1.2,-0.12,-304.63,-276.55,218.02
368,1715374736390,1.50375,-0.98125,0.2675,-279.0675,-246.45,215.57625000000002
369,1715374736400,1.7099999999999997,-0.85,0.5,-263.73,-228.39000000000001,214.10999999999999
370,1715374736410,1.71,-0.85,0.5,-263.73,-228.39,214.11
371,1715374736420,1.71,-0.85,0.5,-263.73,-228.39,214.11
372,1715374736430,2.42,-1.37,-0.07,-248.8125,-221.94,171.76500000000001
373,1715374736440,2.4199999999999995,-1.3699999999999999,-0.07,-243.84,-219.79,157.65
374,1715374736450,2.42,-1.37,-0.07,-243.84,-219.79,157.65
375,1715374736460,2.575,-1.3800000000000001,0.07625000000000001,-243.84,-219.79,157.65
376,1715374736470,3.66,-1.45,1.1,-239.07,-195.07,84.05
377,1715374736480,3.66,-1.45,1.1,-239.07,-195.07,84.05
378,1715374736490,3.66,-1.45,1.1,-239.07,-195.07,84.05
379,1715374736500,3.66,-1.45,1.1,-239.07,-195.07,84.05
380,1715374736510,2.47,-2.16,1.27,-240.84,99.3,-33.26
381,1715374736520,2.47,-2.16,1.27,-240.84,99.3,-33.26
382,1715374736530,2.47,-2.16,1.27,-240.84,99.3,-33.26
383,1715374736540,2.3975,-2.13,1.145,-197.37,109.86,-16.125
384,1715374736550,2.18,-2.04,0.77,-66.96,141.54,35.28
385,1715374736560,2.18,-2.04,0.77,-66.96,141.54,35.28
386,1715374736570,2.18,-2.04,0.7700000000000001,-66.96,141.54,35.28
387,1715374736580,2.18375,-1.69875,0.74375,-27.82125,126.31875,26.1
388,1715374736590,2.19,-1.13,0.7,37.41,100.95,10.8
389,1715374736600,2.19,-1.13,0.7,37.41,100.95,10.8
390,1715374736610,2.19,-1.13,0.7,37.410000000000004,100.95,10.8
391,1715374736620,1.77125,-0.8112499999999999,0.7,89.25375,114.64375,-22.993750000000002
392,1715374736630,1.52,-0.62,0.7,120.36,122.86,-43.27
393,1715374736640,1.52,-0.62,0.7,120.36,122.86,-43.27
394,1715374736650,1.52,-0.62,0.7,120.36,122.86,-43.27
395,1715374736660,1.1428571428571428,-0.25142857142857145,0.3657142857142857,151.59428571428572,108.89714285714285,-74.40142857142858
396,1715374736670,1.08,-0.19,0.31,156.8,106.57,-79.59
397,1715374736680,1.08,-0.19,0.31,156.8,106.57000000000001,-79.59
398,1715374736690,1.08,-0.19,0.31,156.8,106.57,-79.59
399,1715374736700,1.045,0.04625,0.70375,181.79000000000002,93.69875,-136.4125
400,1715374736710,1.04,0.08,0.76,185.36,91.86,-144.53
401,1715374736720,1.04,0.08,0.76,185.35999999999999,91.86,-144.53
402,1715374736730,1.04,0.08,0.76,185.36,91.86,-144.53
403,1715374736740,1.03,-0.06,0.78,179.08,195.19,-163.45
404,1715374736750,1.03,-0.06,0.78,179.08,195.19,-163.45
405,1715374736760,1.03,-0.06,0.78,179.08,195.19,-163.45
406,1715374736770,1.03,-0.06,0.78,179.08,195.19,-163.45
407,1715374736780,1.18,-0.24,0.52,226.68,214.78,-220.4
408,1715374736790,1.18,-0.24,0.52,226.68,214.78,-220.4
409,1715374736800,1.18,-0.24,0.52,226.68,214.78,-220.4
410,1715374736810,1.31,-0.54,0.5,237.79,231.02,-259.16
411,1715374736820,1.31,-0.54,0.5,237.79,231.02,-259.16
412,1715374736830,1.31,-0.54,0.5,237.79,231.02,-259.16
413,1715374736840,1.37,-0.5575,0.4825,237.79,231.02,-259.16
414,1715374736850,1.55,-0.61,0.43,356.02,111.57000000000001,-320.74000000000007
415,1715374736860,1.55,-0.61,0.43,356.02,111.57,-320.74
416,1715374736870,1.55,-0.61,0.43,356.02,111.57,-320.74
417,1715374736880,1.7225,-0.5575,0.5275,360.0925,79.89375,-360.08500000000004
418,1715374736890,2.01,-0.47000000000000003,0.6900000000000001,366.88,27.1,-425.66
419,1715374736900,2.01,-0.47,0.69,366.88,27.1,-425.66
420,1715374736910,2.01,-0.47,0.69,366.88,27.1,-425.66
421,1715374736920,1.135,-0.57,-0.028750000000000032,263.54125,91.39375000000001,-382.2875
422,1715374736930,0.61,-0.63,-0.46,91.31000000000002,198.55,-310.0
423,1715374736940,0.61,-0.63,-0.46,91.31000000000002,198.55,-310.0
424,1715374736950,0.61,-0.63,-0.46,91.31,198.55,-310.0
425,1715374736960,-0.08500000000000002,-0.585,-0.545,46.265,156.005,-211.305
426,1715374736970,-0.78,-0.54,-0.63,1.22,113.46,-112.61
427,1715374736980,-0.78,-0.54,-0.63,1.22,113.46,-112.61
428,1715374736990,-0.78,-0.54,-0.63,1.22,113.46,-112.61
429,1715374737000,-1.095,-0.6375000000000001,-0.9600000000000001,-1.39,-6.3825,71.545
430,1715374737010,-1.2,-0.67,-1.07,-2.26,-46.33,132.93
431,1715374737020,-1.2,-0.67,-1.07,-2.26,-46.33,132.93
432,1715374737030,-1.2,-0.67,-1.07,-2.26,-46.33,132.93
433,1715374737040,-0.28285714285714286,-1.2871428571428571,-0.7271428571428571,-87.53714285714285,-144.83285714285714,344.24142857142857
434,1715374737050,-0.13,-1.39,-0.67,-101.75,-161.25,379.46
435,1715374737060,-0.13,-1.39,-0.67,-101.75,-161.25,379.46
436,1715374737070,-0.13,-1.39,-0.67,-101.75,-161.25,379.46
437,1715374737080,0.8075000000000001,-1.4649999999999999,-0.41500000000000004,-129.17000000000002,-154.3425,456.1325
438,1715374737090,1.12,-1.49,-0.33,-138.31,-152.04,481.69
439,1715374737100,1.12,-1.49,-0.33,-138.31,-152.04,481.69
440,1715374737110,1.14375,-1.48375,-0.315,-146.23625,-152.00875,478.69875
441,1715374737120,1.31,-1.44,-0.21,-201.72,-151.79,457.75999999999993
442,1715374737130,1.31,-1.44,-0.21,-201.72,-151.79,457.76
443,1715374737140,1.31,-1.44,-0.21,-201.72,-151.79,457.76
444,1715374737150,1.3442857142857143,-1.3657142857142854,-0.17857142857142858,-187.12285714285713,-161.01571428571427,442.0657142857143
445,1715374737160,1.43,-1.18,-0.1,-150.63,-184.08,402.83
446,1715374737170,1.43,-1.18,-0.1,-150.63,-184.08,402.83
447,1715374737180,1.43,-1.18,-0.1,-150.62999999999997,-184.08,402.83
448,1715374737190,1.43,-1.12375,-0.1075,-142.73375,-189.07000000000002,396.34499999999997
449,1715374737200,1.43,-1.03,-0.12,-87.46,-224.0,350.95
450,1715374737210,1.43,-1.03,-0.12,-87.46,-224.0,350.95
451,1715374737220,1.43,-1.03,-0.12,-87.46,-224.0,350.95
452,1715374737230,1.315,-1.0550000000000002,-0.14,-87.46,-224.0,350.95
453,1715374737240,1.2,-1.08,-0.16,-30.959999999999997,-244.49285714285716,339.4857142857142
454,1715374737250,1.2,-1.08,-0.16,-8.36,-252.69,334.9
455,1715374737260,1.2,-1.08,-0.16,-8.36,-252.69,334.9
456,1715374737270,1.2,-1.08,-0.16,-8.36,-252.69,334.9
457,1715374737280,1.2,-1.08,-0.16,-8.36,-252.69,334.9
458,1715374737290,1.2,-1.08,-0.16,-8.36,-252.69,334.9
459,1715374737300,1.3225,-1.125,-0.2225,-19.4525,-249.9275,331.2525
460,1715374737310,1.8785714285714286,-1.4514285714285715,-0.3814285714285714,-48.23285714285714,-249.6085714285714,307.0214285714286
461,1715374737320,2.35,-1.93,-0.31,-36.99,-269.53,273.8
462,1715374737330,2.35,-1.93,-0.31,-36.99,-269.53,273.8
463,1715374737340,2.35,-1.93,-0.31,-36.99,-269.53,273.8
464,1715374737350,2.86,-0.99,0.88,-113.4,-66.53,196.17
465,1715374737360,2.86,-0.99,0.88,-113.4,-66.53,196.17
466,1715374737370,2.86,-0.99,0.88,-113.4,-66.53,196.17
467,1715374737380,2.86,-0.99,0.88,-113.4,-66.53,196.17
468,1715374737390,2.86,-0.99,0.88,-113.4,-66.53,196.17
469,1715374737400,2.835,-1.07,0.81625,-106.05375000000001,-43.02375,174.13625
470,1715374737410,2.66,-1.63,0.37,-54.63,121.52,19.9
471,1715374737420,2.625,-1.6012499999999998,0.3,-38.265,116.63749999999999,7.219999999999999
472,1715374737430,2.38,-1.4,-0.19,76.29,82.46,-81.54
473,1715374737440,2.38,-1.4,-0.19,76.29,82.46,-81.54
474,1715374737450,2.38,-1.4,-0.19,76.29,82.46,-81.54
475,1715374737460,2.2874999999999996,-1.2574999999999998,-0.175,80.0,90.63749999999999,-93.7625
476,1715374737470,2.01,-0.83,-0.13,91.13,115.17,-130.43
477,1715374737480,2.01,-0.83,-0.13,91.13,115.17,-130.43
478,1715374737490,2.01,-0.83,-0.13,91.13,115.17,-130.43
479,1715374737500,1.957142857142857,-0.7657142857142857,-0.13571428571428573,76.90857142857143,132.24285714285716,-134.05714285714288
480,1715374737510,1.64,-0.38,-0.17,-8.42,234.68,-155.82
481,1715374737520,1.64,-0.38,-0.17,-8.42,234.68,-155.82
482,1715374737530,1.64,-0.38,-0.17,-8.42,234.68,-155.82
483,1715374737540,1.135,-0.46,-0.5549999999999999,33.205,177.58,-194.73
484,1715374737550,0.63,-0.54,-0.9400000000000001,74.83,120.48,-233.64000000000001
485,1715374737560,0.63,-0.54,-0.9400000000000001,74.83,120.48,-233.64000000000001
486,1715374737570,0.63,-0.54,-0.9400000000000001,74.83,120.48,-233.64000000000001
487,1715374737580,1.23,-0.022500000000000013,0.11000000000000003,97.48750000000001,54.427499999999995,-257.4
488,1715374737590,1.43,0.15,0.46,105.04,32.41,-265.32
489,1715374737600,1.43,0.15,0.46,105.04,32.41,-265.32
490,1715374737610,1.43,0.15,0.46,105.04,32.41,-265.32
491,1715374737620,1.6942857142857142,-0.40714285714285714,0.48142857142857143,68.64,181.98857142857145,-321.4271428571428
492,1715374737630,1.8,-0.63,0.49,54.08,241.82,-343.87
493,1715374737640,1.8,-0.63,0.48999999999999994,54.08,241.82,-343.87
494,1715374737650,1.8,-0.63,0.49,54.08,241.82,-343.87
495,1715374737660,2.24,-1.26,0.88,129.46,277.47,-363.22
496,1715374737670,2.24,-1.26,0.88,129.46,277.47,-363.22
497,1715374737680,2.24,-1.26,0.88,129.46,277.47,-363.21999999999997
498,1715374737690,2.3225000000000002,-1.3675000000000002,0.99375,129.46,277.47,-363.22
499,1715374737700,2.9,-2.12,1.79,165.205,403.17,-320.4625
500,1715374737710,2.9,-2.12,1.7900000000000003,177.12000000000003,445.07,-306.21
501,1715374737720,2.86,-2.1875,1.6912500000000001,177.12,445.07,-306.21
502,1715374737730,2.58,-2.66,1.0,319.08000000000004,547.7687500000001,-279.88125
503,1715374737740,2.5800000000000005,-2.66,1.0,339.36,562.44,-276.12
504,1715374737750,2.58,-2.66,1.0,339.36,562.44,-276.12
505,1715374737760,2.1125,-2.545,0.645,398.77750000000003,477.43250000000006,-301.5425
506,1715374737770,0.71,-2.2,-0.42,577.03,222.41,-377.81
507,1715374737780,0.71,-2.2,-0.42,577.03,222.41,-377.81
508,1715374737790,0.71,-2.2,-0.42,577.03,222.41,-377.81
509,1715374737800,0.3225,-1.9775,-0.485,540.1324999999999,173.3075,-357.6825
510,1715374737810,-0.84,-1.31,-0.68,429.44,26.0,-297.3
511,1715374737820,-0.84,-1.31,-0.68,429.44,26.0,-297.3
512,1715374737830,-0.84,-1.31,-0.68,429.44,26.0,-297.3
513,1715374737840,-1.0285714285714287,-0.9800000000000001,-0.9371428571428572,256.69571428571425,71.69857142857143,-170.82857142857142
514,1715374737850,-1.28,-0.54,-1.28,26.37,132.63,-2.2
515,1715374737860,-1.28,-0.54,-1.28,26.37,132.63,-2.2
516,1715374737870,-1.28,-0.54,-1.28,26.37,132.63,-2.2
517,1715374737880,-1.2175,-0.59,-1.87375,-57.035,60.12,96.555
518,1715374737890,-1.18,-0.62,-2.23,-140.44,-12.39,195.31
519,1715374737900,-1.18,-0.62,-2.23,-140.44,-12.39,195.31
520,1715374737910,-1.18,-0.62,-2.23,-140.44,-12.39,195.31
521,1715374737920,-0.32285714285714284,-1.3828571428571428,-1.6642857142857144,-291.10857142857145,-188.2757142857143,270.17285714285714
522,1715374737930,-0.18,-1.51,-1.57,-316.22,-217.59,282.65
523,1715374737940,-0.18,-1.51,-1.57,-316.22,-217.59,282.65
524,1715374737950,-0.18,-1.51,-1.57,-316.21999999999997,-217.59,282.65
525,1715374737960,0.75625,-2.455,-0.625,-344.31624999999997,-330.70125,351.495
526,1715374737970,0.89,-2.59,-0.49,-348.33,-346.86,361.33
527,1715374737980,0.89,-2.59,-0.49,-348.33,-346.86,361.33
528,1715374737990,0.97125,-2.5275,-0.42625,-338.86125,-348.9125,365.90749999999997
529,1715374738000,1.5400000000000003,-2.09,0.02,-272.58,-363.28000000000003,397.95
530,1715374738010,1.54,-2.09,0.02,-272.58,-363.28,397.95
531,1715374738020,1.54,-2.09,0.02,-272.58,-363.28,397.95
532,1715374738030,1.5275,-2.045,0.02125,-264.7675,-354.3925,390.84749999999997
533,1715374738040,1.44,-1.73,0.03,-210.08,-292.18,341.13
534,1715374738050,1.44,-1.73,0.03,-210.08,-292.18,341.13
535,1715374738060,1.44,-1.73,0.03,-210.08,-292.18,341.13
536,1715374738070,1.4557142857142857,-1.7785714285714285,0.004285714285714286,-203.35714285714286,-286.5814285714286,351.64428571428573
537,1715374738080,1.55,-2.07,-0.15,-163.02,-252.99,414.73
538,1715374738090,1.55,-2.07,-0.15,-163.02,-252.99,414.73
539,1715374738100,1.55,-2.07,-0.15,-163.02,-252.99,414.73
540,1715374738110,1.7414285714285715,-1.9785714285714284,-0.1157142857142857,-163.73714285714286,-241.63857142857142,411.5757142857143
541,1715374738120,2.22,-1.75,-0.03,-165.53,-213.26,403.69
542,1715374738130,2.22,-1.75,-0.03,-165.53,-213.26,403.69
543,1715374738140,2.22,-1.75,-0.03,-165.53,-213.26,403.69
544,1715374738150,2.4575,-2.55625,-0.22999999999999998,-141.23000000000002,-223.635,377.9775
545,1715374738160,2.6,-3.04,-0.35,-126.65,-229.85999999999999,362.55
546,1715374738170,2.6,-3.04,-0.35,-126.65,-229.86,362.55
547,1715374738180,2.6,-3.04,-0.35,-126.65,-229.86,362.55
548,1715374738190,3.2714285714285714,-1.8042857142857145,0.3000000000000001,-74.67857142857143,-240.0171428571429,350.82142857142856
549,1715374738200,3.54,-1.31,0.56,-53.89,-244.08,346.13
550,1715374738210,3.54,-1.31,0.56,-53.89,-244.08,346.13
551,1715374738220,3.54,-1.31,0.56,-53.89,-244.08,346.13
552,1715374738230,3.28625,-0.995,1.0675,-56.934999999999995,34.80875,50.371249999999996
553,1715374738240,3.25,-0.95,1.14,-57.37,74.65,8.12
554,1715374738250,3.25,-0.95,1.14,-57.37,74.65,8.12
555,1715374738260,3.25,-0.95,1.14,-57.37,74.65,8.12
556,1715374738270,2.11,-1.8,-0.26,16.11,222.9,-47.42
557,1715374738280,2.11,-1.8,-0.26,16.11,222.9,-47.42
558,1715374738290,2.11,-1.8,-0.26,16.11,222.9,-47.42
559,1715374738300,1.9925,-1.5825,-0.315,16.11,222.9,-47.42
560,1715374738310,1.64,-0.93,-0.48,30.21,107.54,-76.72
561,1715374738320,1.64,-0.93,-0.48,30.21,107.54,-76.72
562,1715374738330,1.64,-0.93,-0.48,30.21,107.54,-76.72
563,1715374738340,1.5975,-0.8250000000000001,-0.33999999999999997,31.615000000000002,94.525,-92.97
564,1715374738350,1.47,-0.51,0.08,35.83,55.48,-141.72
565,1715374738360,1.47,-0.51,0.08,35.83,55.48,-141.72
566,1715374738370,1.47,-0.51,0.08,35.83,55.48,-141.72
567,1715374738380,1.4271428571428573,-0.45285714285714285,0.1457142857142857,36.23,75.41142857142857,-155.77714285714288
568,1715374738390,1.32,-0.31,0.31,37.23,125.24,-190.92
569,1715374738400,1.32,-0.31,0.31,37.23,125.24,-190.92
570,1715374738410,1.32,-0.31,0.31,37.23,125.24,-190.92
571,1715374738420,1.18125,-0.3025,0.085,67.48875,111.62375,-219.1875
572,1715374738430,0.95,-0.29,-0.29,117.92,88.93,-266.3
573,1715374738440,0.95,-0.29,-0.29,117.92,88.93,-266.3
574,1715374738450,0.95,-0.29,-0.29,117.92,88.92999999999999,-266.3
575,1715374738460,1.01375,-0.295,-0.20875,126.24375,70.30625,-275.035
576,1715374738470,1.46,-0.33,0.36,184.51,-60.06,-336.18
577,1715374738480,1.4599999999999997,-0.33,0.36,184.51,-60.06,-336.18
578,1715374738490,1.46,-0.33,0.36,184.51,-60.06,-336.18
579,1715374738500,2.315,-0.5475,0.96,156.20374999999999,71.965,-352.3175
580,1715374738510,2.6,-0.62,1.16,139.22,151.18,-362.0
581,1715374738520,2.6,-0.62,1.16,139.22,151.18,-362.0
582,1715374738530,2.6,-0.62,1.16,139.22,151.18,-362.0
583,1715374738540,2.7399999999999998,-1.3800000000000001,0.64,143.75571428571428,278.5728571428571,-403.0214285714286
584,1715374738550,2.74,-1.38,0.64,145.57,329.53,-419.43
585,1715374738560,2.74,-1.38,0.64,145.57,329.53,-419.43
586,1715374738570,2.74,-1.38,0.64,145.57,329.53,-419.43
587,1715374738580,2.625,-1.685,0.625,217.315,320.28499999999997,-458.555
588,1715374738590,2.5100000000000002,-1.99,0.61,289.06,311.04,-497.68
589,1715374738600,2.51,-1.99,0.61,289.06,311.04,-497.68
590,1715374738610,2.5100000000000002,-1.99,0.61,289.06,311.04,-497.68
591,1715374738620,1.935,-2.115,0.33999999999999997,310.18,290.925,-482.055
592,1715374738630,1.36,-2.24,0.07,331.3,270.81,-466.43
593,1715374738640,1.36,-2.24,0.07,331.3,270.81,-466.43
594,1715374738650,1.36,-2.24,0.07,331.3,270.81,-466.43
595,1715374738660,1.36,-2.24,0.07,331.3,270.81,-466.43
596,1715374738670,0.9575,-1.9925000000000002,-0.1275,327.18,241.82,-423.14
597,1715374738680,-0.25,-1.25,-0.72,314.82,154.85,-293.27
598,1715374738690,-0.325,-1.1525,-0.7324999999999999,293.19,150.4325,-257.1225
599,1715374738700,-0.85,-0.47,-0.82,141.78,119.51,-4.09
600,1715374738710,-0.85,-0.47000000000000003,-0.82,141.78,119.51,-4.09
601,1715374738720,-0.85,-0.47,-0.82,141.78,119.51,-4.09
602,1715374738730,-0.85,-0.47,-0.82,141.78,119.51,-4.09
603,1715374738740,-1.0214285714285716,-0.34142857142857147,-1.3942857142857144,-48.80571428571428,136.08714285714285,182.21
604,1715374738750,-1.05,-0.32,-1.49,-80.57,138.85,213.26
605,1715374738760,-1.05,-0.32,-1.49,-80.57,138.85,213.26
606,1715374738770,-0.6285714285714287,-0.9199999999999999,-1.3257142857142856,-170.1557142857143,-39.93571428571429,306.4242857142857
607,1715374738780,-0.46,-1.16,-1.26,-205.99,-111.45,343.69
608,1715374738790,-0.46,-1.16,-1.26,-205.99,-111.45,343.69
609,1715374738800,-0.46,-1.16,-1.26,-205.99,-111.45,343.69
610,1715374738810,0.52,-2.1,-0.12,-301.03000000000003,-186.71,394.35
611,1715374738820,0.52,-2.1,-0.12,-301.03,-186.71,394.35
612,1715374738830,0.52,-2.1,-0.12,-301.03,-186.71,394.35
613,1715374738840,0.5742857142857144,-2.1342857142857143,-0.04428571428571428,-296.30285714285714,-188.22714285714287,401.29857142857145
614,1715374738850,0.9,-2.34,0.41,-267.94,-197.33,442.99
615,1715374738860,0.9,-2.34,0.41,-267.94,-197.33,442.99
616,1715374738870,0.9,-2.34,0.41,-267.94,-197.33,442.99
617,1715374738880,0.9914285714285714,-2.12,0.4128571428571428,-267.94,-197.33,442.99000000000007
618,1715374738890,1.22,-1.57,0.42,-154.36,-175.42,441.71
619,1715374738900,1.22,-1.57,0.42,-154.35999999999999,-175.42,441.71
620,1715374738910,1.22,-1.57,0.42,-154.36,-175.42,441.71
621,1715374738920,1.21,-1.52,0.3,-142.91500000000002,-148.015,412.015
622,1715374738930,1.2,-1.47,0.18,-131.47,-120.61,382.32
623,1715374738940,1.2,-1.47,0.18,-131.47,-120.61,382.32
624,1715374738950,1.2,-1.47,0.18,-131.47,-120.61,382.32
625,1715374738960,1.2,-1.4849999999999999,0.08,-123.69,-131.715,373.595
626,1715374738970,1.2,-1.5,-0.02,-115.91,-142.82,364.87
627,1715374738980,1.2,-1.5,-0.02,-115.91,-142.82,364.87
628,1715374738990,1.2,-1.5,-0.02,-115.91,-142.82,364.87
629,1715374739000,1.605,-1.6875,-0.049999999999999996,-87.56625,-167.42624999999998,347.51375
630,1715374739010,1.74,-1.75,-0.06,-70.56,-182.19,337.1
631,1715374739020,1.74,-1.75,-0.06,-70.56,-182.19,337.1
632,1715374739030,1.74,-1.75,-0.06,-70.56,-182.19,337.1
633,1715374739040,2.3228571428571425,-1.9985714285714287,-0.017142857142857144,-75.36857142857143,-169.58142857142857,295.5628571428571
634,1715374739050,2.42,-2.04,-0.01,-76.17,-167.48,288.64
635,1715374739060,2.42,-2.04,-0.01,-76.17,-167.48,288.64
636,1715374739070,2.4199999999999995,-2.04,-0.01,-76.17,-167.48,288.64
637,1715374739080,2.9975,-1.10375,1.1712500000000001,-130.185,6.565000000000001,209.6275
638,1715374739090,3.08,-0.97,1.34,-148.19,64.58,183.29
639,1715374739100,3.08,-0.97,1.34,-148.19,64.58,183.29
640,1715374739110,3.0157142857142856,-1.0471428571428572,1.2285714285714289,-148.19,64.58,183.29
641,1715374739120,2.63,-1.51,0.56,-146.965,367.75874999999996,29.6925
642,1715374739130,2.63,-1.51,0.56,-146.79,411.07,7.75
643,1715374739140,2.63,-1.51,0.56,-146.79,411.07,7.75
644,1715374739150,2.53125,-1.505,0.39250000000000007,-125.80874999999999,382.7875,1.12
645,1715374739160,1.84,-1.47,-0.78,21.06,184.81,-45.29
646,1715374739170,1.84,-1.47,-0.78,21.06,184.81,-45.29
647,1715374739180,1.84,-1.47,-0.78,21.06,184.81,-45.29
648,1715374739190,1.8,-1.2349999999999999,-0.34,42.192499999999995,120.3875,-67.795
649,1715374739200,1.76,-1.0,0.1,105.59,-72.88,-135.31
650,1715374739210,1.76,-1.0,0.1,105.59,-72.88,-135.31
651,1715374739220,1.76,-1.0,0.1,105.59,-72.88,-135.31
652,1715374739230,1.7557142857142856,-0.8157142857142857,0.20285714285714287,95.36428571428573,-20.38,-152.20857142857145
653,1715374739240,1.75,-0.57,0.34,81.73,49.62,-174.74
654,1715374739250,1.75,-0.57,0.34,81.73,49.62,-174.74
655,1715374739260,1.5728571428571427,-0.53,0.1,71.85571428571428,87.18571428571428,-194.27142857142857
656,1715374739270,1.44,-0.5,-0.08,64.45,115.36,-208.92
657,1715374739280,1.44,-0.5,-0.08,64.45,115.36,-208.92
658,1715374739290,1.44,-0.5,-0.08,64.45,115.36,-208.92
659,1715374739300,1.1524999999999999,-0.48124999999999996,-0.33625,134.225,2.897500000000001,-255.3825
660,1715374739310,0.98,-0.47,-0.49,176.09,-64.58,-283.26
661,1715374739320,0.9799999999999999,-0.47000000000000003,-0.48999999999999994,176.09,-64.58,-283.26
662,1715374739330,0.98,-0.47,-0.49,176.09,-64.58,-283.26
663,1715374739340,1.4525000000000001,-0.18125000000000002,0.315,161.365,-61.6425,-307.82875
664,1715374739350,1.52,-0.14,0.43,152.53,-59.88,-322.57
665,1715374739360,1.52,-0.14,0.43,152.53,-59.88,-322.57
666,1715374739370,1.52,-0.14,0.43,152.53,-59.88,-322.57
667,1715374739380,1.68,-0.65,0.27,87.48,139.09857142857143,-344.9342857142857
668,1715374739390,1.68,-0.65,0.27,61.46,218.69,-353.88
669,1715374739400,1.68,-0.65,0.27,61.46,218.69,-353.88
670,1715374739410,1.68,-0.65,0.27,61.46,218.69,-353.88
671,1715374739420,1.9,-1.02,0.08,84.21,276.20375,-381.17125
672,1715374739430,1.9,-1.02,0.08,87.46,284.42,-385.07
673,1715374739440,1.9,-1.02,0.08,87.46,284.42,-385.07
674,1715374739450,1.9,-1.02,0.08,87.46,284.42,-385.07
675,1715374739460,1.61,-1.43,0.42,230.29,159.97,-446.59
676,1715374739470,1.61,-1.43,0.42,230.29,159.97,-446.59
677,1715374739480,1.61,-1.43,0.42,230.29,159.97,-446.59
678,1715374739490,1.4225,-1.2725,0.35625,232.6625,148.57999999999998,-444.42375
679,1715374739500,1.11,-1.01,0.25,249.27,68.85,-429.26
680,1715374739510,1.11,-1.01,0.25,249.27,68.85,-429.25999999999993
681,1715374739520,1.11,-1.01,0.25,249.27,68.85,-429.26
682,1715374739530,0.51625,-0.86,0.0875,223.445,-4.200000000000003,-389.05375
683,1715374739540,0.16,-0.7700000000000001,-0.01,207.95,-48.03000000000001,-364.93
684,1715374739550,0.16,-0.77,-0.01,207.95,-48.03,-364.93
685,1715374739560,0.16,-0.77,-0.01,207.95,-48.03,-364.93
686,1715374739570,-0.3475,-0.735,-0.07125000000000001,112.85,-7.82375,-248.12375
687,1715374739580,-0.42,-0.7299999999999999,-0.08,55.79,16.3,-178.04
688,1715374739590,-0.42,-0.73,-0.08,55.79,16.3,-178.04
689,1715374739600,-0.42,-0.73,-0.08,55.79,16.3,-178.04
690,1715374739610,-0.7971428571428572,-1.0985714285714285,-0.26857142857142857,-166.29571428571427,109.1542857142857,27.194285714285716
691,1715374739620,-0.86,-1.16,-0.3,-203.31,124.63,61.4
692,1715374739630,-0.86,-1.16,-0.3,-203.31,124.63,61.4
693,1715374739640,-0.86,-1.16,-0.3,-203.31,124.63,61.4
694,1715374739650,-0.6,-1.59,-0.7,-243.20285714285714,51.91571428571428,235.0
695,1715374739660,-0.6,-1.59,-0.7,-259.16,22.83,304.44
696,1715374739670,-0.6,-1.59,-0.7,-259.16,22.83,304.44
697,1715374739680,-0.6,-1.59,-0.7,-259.16,22.830000000000002,304.44
698,1715374739690,0.33625,-1.8612499999999998,-0.735,-270.36875000000003,-133.38375,405.38
699,1715374739700,0.47000000000000003,-1.9,-0.74,-271.97,-155.7,419.8
700,1715374739710,0.47,-1.9,-0.74,-271.97,-155.7,419.8
701,1715374739720,0.6599999999999999,-1.9124999999999999,-0.6025,-271.97,-155.7,419.8
702,1715374739730,1.23,-1.95,-0.19,-257.87,-285.95,443.42
703,1715374739740,1.23,-1.95,-0.19,-257.87,-285.95,443.42
704,1715374739750,1.23,-1.95,-0.19,-257.87,-285.95,443.42
705,1715374739760,1.455,-1.89,-0.085,-191.0375,-303.78125,452.85125
706,1715374739770,1.83,-1.79,0.09,-79.65,-333.5,468.57
707,1715374739780,1.83,-1.7900000000000003,0.09,-79.65,-333.5,468.57
708,1715374739790,1.83,-1.79,0.09,-79.65,-333.5,468.57
709,1715374739800,1.9125,-1.645,-0.0375,-58.365,-314.03,465.5775
710,1715374739810,2.16,-1.2099999999999997,-0.42,5.49,-255.62000000000003,456.6
711,1715374739820,2.16,-1.21,-0.42,5.49,-255.62,456.6
712,1715374739830,2.16,-1.21,-0.42,5.49,-255.62,456.6
713,1715374739840,2.16,-1.2099999999999997,-0.42,5.49,-255.62000000000003,456.6
714,1715374739850,2.1475,-1.2349999999999999,-0.39749999999999996,0.3937499999999998,-251.04125,450.21500000000003
715,1715374739860,2.06,-1.41,-0.24,-35.28,-218.99,405.52
716,1715374739870,2.06,-1.41,-0.24,-35.28,-218.99,405.52
717,1715374739880,2.19125,-1.42125,-0.20625,-32.46375,-209.1275,410.64625
718,1715374739890,2.41,-1.44,-0.15,-27.77,-192.69,419.19
719,1715374739900,2.41,-1.44,-0.15,-27.77,-192.69,419.19
720,1715374739910,2.41,-1.44,-0.15,-27.77,-192.69,419.19
721,1715374739920,2.8825000000000003,-0.62625,0.39249999999999996,-67.10125000000001,-157.93375,332.63374999999996
722,1715374739930,2.95,-0.51,0.47,-90.7,-137.08,280.7
723,1715374739940,2.95,-0.51,0.47,-90.7,-137.08,280.7
724,1715374739950,2.95,-0.51,0.47,-90.7,-137.08,280.7
725,1715374739960,2.4442857142857144,-0.7757142857142857,0.7957142857142857,-85.62571428571428,33.26,56.214285714285715
726,1715374739970,2.36,-0.82,0.85,-84.78,61.65,18.8
727,1715374739980,2.36,-0.82,0.85,-84.78,61.65,18.8
728,1715374739990,2.275,-0.995,0.6633333333333333,-74.26166666666667,84.64999999999999,2.3916666666666657
729,1715374740000,1.85,-1.87,-0.27,-21.67,199.65,-79.65
730,1715374740010,1.85,-1.8700000000000003,-0.27,-21.67,199.65,-79.65
731,1715374740020,1.85,-1.87,-0.27,-21.67,199.65,-79.65
732,1715374740030,1.84375,-1.8225,-0.30625,-17.565,184.29125,-86.77625
733,1715374740040,1.8,-1.49,-0.56,11.17,76.78,-136.66
734,1715374740050,1.8,-1.49,-0.56,11.17,76.78,-136.66
735,1715374740060,1.8,-1.49,-0.56,11.17,76.78,-136.66
736,1715374740070,1.7957142857142858,-1.4342857142857144,-0.33285714285714285,38.14,46.72428571428571,-166.97714285714284
737,1715374740080,1.79,-1.36,-0.03,74.1,6.65,-207.4
738,1715374740090,1.79,-1.36,-0.03,74.1,6.65,-207.4
739,1715374740100,1.79,-1.36,-0.03,74.1,6.65,-207.4
740,1715374740110,1.727142857142857,-1.0571428571428572,-0.08714285714285715,71.55142857142857,42.747142857142855,-230.17142857142858
741,1715374740120,1.68,-0.83,-0.13,69.64,69.82,-247.25
742,1715374740130,1.68,-0.83,-0.13,69.64,69.82,-247.25
743,1715374740140,1.68,-0.83,-0.13,69.64,69.82,-247.25
744,1715374740150,1.5375,-0.83,-0.37,70.70875,58.57,-297.07500000000005
745,1715374740160,1.49,-0.83,-0.45,71.35,51.82,-326.96999999999997
746,1715374740170,1.49,-0.83,-0.45,71.35,51.82,-326.97
747,1715374740180,1.49,-0.83,-0.45,71.35,51.82,-326.97
748,1715374740190,1.6614285714285713,-0.7614285714285715,0.021428571428571432,123.61,-40.30571428571428,-384.8785714285714
749,1715374740200,1.69,-0.75,0.1,132.32,-55.66,-394.53
750,1715374740210,1.69,-0.75,0.1,132.32,-55.66,-394.53
751,1715374740220,1.69,-0.75,0.1,132.32,-55.660000000000004,-394.53000000000003
752,1715374740230,2.285,-0.82875,0.31875,93.11999999999999,43.6175,-451.3525
753,1715374740240,2.37,-0.84,0.35,87.52,57.8,-459.47
754,1715374740250,2.37,-0.84,0.35,87.52,57.8,-459.46999999999997
755,1715374740260,2.3975,-0.995,0.33999999999999997,87.52,57.8,-459.47
756,1715374740270,2.48,-1.4599999999999997,0.31,50.23,202.09,-513.18
757,1715374740280,2.48,-1.46,0.31,50.23,202.09,-513.18
758,1715374740290,2.48,-1.46,0.31,50.23,202.09,-513.18
759,1715374740300,2.3775,-1.6,0.2625,48.3225,233.445,-512.1899999999999
760,1715374740310,2.07,-2.02,0.12,42.6,327.50999999999993,-509.21999999999997
761,1715374740320,2.07,-2.02,0.12,42.6,327.51,-509.22
762,1715374740330,2.07,-2.02,0.12,42.6,327.51,-509.22
763,1715374740340,1.7185714285714284,-2.1014285714285714,-0.12000000000000001,86.94000000000001,301.4057142857143,-526.8214285714286
764,1715374740350,1.25,-2.21,-0.44,146.06,266.6,-550.29
765,1715374740360,1.25,-2.21,-0.44,146.06,266.6,-550.29
766,1715374740370,1.25,-2.21,-0.44,146.06,266.6,-550.29
767,1715374740380,0.08125,-1.69125,-0.915,207.51,89.75000000000001,-544.7212499999999
768,1715374740390,-0.62,-1.38,-1.2,244.38,-16.36,-541.38
769,1715374740400,-0.62,-1.38,-1.2,244.38,-16.36,-541.38
770,1715374740410,-0.62,-1.3800000000000001,-1.2,244.37999999999997,-16.36,-541.38
771,1715374740420,-1.35125,-0.955,-0.85625,215.29125,-97.65625,-477.79875
772,1715374740430,-1.79,-0.7,-0.65,166.81,-233.15,-371.83
773,1715374740440,-1.7900000000000003,-0.7,-0.65,166.81,-233.15,-371.83
774,1715374740450,-1.79,-0.7,-0.65,166.81,-233.15,-371.83
775,1715374740460,-2.36,-1.22,0.0,36.5725,-154.64749999999998,-62.147499999999994
776,1715374740470,-2.36,-1.22,0.0,-6.839999999999999,-128.48,41.08
777,1715374740480,-2.36,-1.22,0.0,-6.84,-128.48,41.08
778,1715374740490,-2.36,-1.22,0.0,-6.84,-128.48,41.08
779,1715374740500,-1.0142857142857142,-1.2714285714285716,-0.13714285714285715,-41.83714285714286,-14.12,399.1257142857143
780,1715374740510,-0.79,-1.28,-0.16,-47.67,4.94,458.8
781,1715374740520,-0.79,-1.28,-0.16,-47.67,4.94,458.8
782,1715374740530,-0.59375,-1.3925,-0.2125,-55.13875,5.98625,480.895
783,1715374740540,0.78,-2.18,-0.58,-107.42,13.31,635.56
784,1715374740550,0.78,-2.18,-0.58,-107.42,13.31,635.5600000000001
785,1715374740560,0.78,-2.18,-0.58,-107.42,13.31,635.56
786,1715374740570,1.12125,-2.34875,-0.49374999999999997,-122.275,9.60125,641.8462499999999
787,1715374740580,1.69,-2.63,-0.35,-226.26,-16.36,685.85
788,1715374740590,1.69,-2.63,-0.35,-226.26,-16.36,685.85
789,1715374740600,1.69,-2.63,-0.35,-226.26,-16.36,685.85
790,1715374740610,1.7014285714285715,-2.2357142857142853,-0.87,-332.97999999999996,-47.645714285714284,595.4157142857142
791,1715374740620,1.71,-1.94,-1.26,-413.02,-71.11,527.59
792,1715374740630,1.71,-1.94,-1.26,-413.02,-71.11,527.59
793,1715374740640,1.7099999999999997,-1.94,-1.26,-413.02,-71.11,527.59
794,1715374740650,1.6949999999999998,-2.9825,-0.8250000000000001,-412.795,-242.90500000000003,458.1925
795,1715374740660,1.69,-3.33,-0.68,-412.72,-300.17,435.06
796,1715374740670,1.69,-3.33,-0.68,-412.72,-300.17,435.06
797,1715374740680,1.69,-3.3300000000000005,-0.68,-412.71999999999997,-300.17,435.06
798,1715374740690,3.04,-2.45,0.3,-136.29,-319.52,521.79
799,1715374740700,3.04,-2.45,0.3,-136.29,-319.52,521.79
800,1715374740710,3.04,-2.45,0.3,-136.29,-319.52,521.79
801,1715374740720,3.04,-2.45,0.3,-136.29,-319.52,521.79
802,1715374740730,3.04,-2.45,0.3,-136.29,-319.52,521.79
803,1715374740740,2.94,-2.17,-1.1,-190.43,-303.89,396.06
804,1715374740750,2.94,-2.17,-1.1,-190.43,-303.89,396.06
805,1715374740760,3.16125,-1.675,-0.20000000000000004,-173.51375000000002,-304.89875,356.09625
806,1715374740770,3.53,-0.85,1.3,-145.32,-306.58,289.49
807,1715374740780,3.53,-0.85,1.3,-145.32,-306.58,289.49
808,1715374740790,3.53,-0.85,1.3,-145.32,-306.58,289.49
809,1715374740800,2.9857142857142853,-0.9271428571428572,1.5742857142857143,-146.01857142857142,-239.39714285714285,259.0242857142857
810,1715374740810,2.26,-1.03,1.94,-150.21,163.7,76.23
811,1715374740820,2.26,-1.03,1.94,-150.21,163.7,76.23
812,1715374740830,2.26,-1.03,1.94,-150.21,163.7,76.23
813,1715374740840,2.0549999999999997,-1.175,0.82,1.7999999999999972,149.295,41.870000000000005
814,1715374740850,1.85,-1.32,-0.3,153.81,134.89,7.51
815,1715374740860,1.85,-1.32,-0.3,153.81,134.89,7.51
816,1715374740870,1.85,-1.32,-0.3,153.81,134.89,7.51
817,1715374740880,1.9125,-1.30125,-0.575,155.56625,18.008749999999996,-44.14
818,1715374740890,1.95,-1.2900000000000003,-0.74,156.62000000000003,-52.12,-75.13
819,1715374740900,1.95,-1.29,-0.74,156.62,-52.12,-75.13
820,1715374740910,1.95,-1.29,-0.74,156.62,-52.12,-75.13
821,1715374740920,2.0325,-1.605,-0.07250000000000001,143.8025,-55.69,-105.85
822,1715374740930,2.06,-1.71,0.15,139.53,-56.88,-116.09
823,1715374740940,2.06,-1.7099999999999997,0.15,139.53,-56.88,-116.09
824,1715374740950,2.06,-1.71,0.15,139.53,-56.88,-116.09
825,1715374740960,2.1125000000000003,-1.22875,0.12375,94.82625,114.49749999999999,-154.65125
826,1715374740970,2.12,-1.16,0.12,88.44,138.98,-160.16
827,1715374740980,2.12,-1.16,0.12,88.43999999999998,138.98,-160.16
828,1715374740990,2.12,-1.16,0.12,88.44,138.98,-160.16
829,1715374741000,1.77875,-1.0987500000000001,-0.30874999999999997,93.24375,185.27624999999998,-259.3325
830,1715374741010,1.73,-1.09,-0.37,93.93,191.89,-273.5
831,1715374741020,1.73,-1.09,-0.37,93.92999999999999,191.89000000000001,-273.5
832,1715374741030,1.73,-1.09,-0.37,93.93,191.89,-273.5
833,1715374741040,1.44,-1.03,-0.14,136.62142857142857,137.34714285714284,-308.4485714285715
834,1715374741050,1.4400000000000002,-1.03,-0.14,168.64,96.44,-334.66
835,1715374741060,1.44,-1.03,-0.14,168.64,96.44,-334.66
836,1715374741070,1.44,-1.03,-0.14,168.64000000000001,96.43999999999998,-334.66
837,1715374741080,1.585,-1.04,0.03,176.665,96.1,-369.355
838,1715374741090,1.73,-1.05,0.2,184.69,95.76,-404.05
839,1715374741100,1.73,-1.05,0.2,184.69,95.76,-404.05
840,1715374741110,1.73,-1.05,0.2,184.69,95.76,-404.05
841,1715374741120,1.73,-1.05,0.2,184.69,95.76,-404.05
842,1715374741130,1.525,-1.29,0.045000000000000005,166.745,151.79,-386.17
843,1715374741140,1.32,-1.53,-0.11000000000000001,148.8,207.82,-368.29
844,1715374741150,1.32,-1.53,-0.11,148.8,207.82,-368.29
845,1715374741160,1.32,-1.53,-0.11,148.8,207.82,-368.29
846,1715374741170,1.3457142857142856,-1.4528571428571428,-0.12714285714285714,149.14857142857142,218.9828571428571,-358.4357142857143
847,1715374741180,1.41,-1.26,-0.17,150.02,246.89,-333.8
848,1715374741190,1.41625,-1.31,-0.18875,183.40125,218.77125,-377.55625
849,1715374741200,1.42,-1.34,-0.2,203.43,201.9,-403.81
850,1715374741210,1.42,-1.34,-0.2,203.43,201.9,-403.81
851,1715374741220,1.42,-1.34,-0.2,203.43,201.9,-403.81
852,1715374741230,1.42,-1.34,-0.2,203.43,201.9,-403.81
853,1715374741240,1.42,-1.34,-0.2,203.43,201.9,-403.81
854,1715374741250,1.42,-1.34,-0.2,203.43,201.9,-403.81
855,1715374741260,1.332857142857143,-1.32,-0.21142857142857144,205.03428571428572,191.1757142857143,-404.85571428571427
856,1715374741270,-0.07,-0.51,-0.51,209.29,-0.79,-370.12
857,1715374741280,-0.07,-0.51,-0.51,209.29,-0.79,-370.12
858,1715374741290,-0.07,-0.51,-0.51,209.29,-0.79,-370.12
859,1715374741300,-0.21428571428571427,-0.4757142857142857,-0.4957142857142857,194.52857142857144,-16.877142857142857,-350.32714285714286
860,1715374741310,-1.08,-0.27,-0.41,105.96,-113.4,-231.57
861,1715374741320,-1.08,-0.27,-0.41,105.96,-113.4,-231.57
862,1715374741330,-1.08,-0.27,-0.41,105.96,-113.4,-231.57
863,1715374741340,-1.217142857142857,-0.4414285714285714,-0.34428571428571425,73.83714285714287,-103.68857142857144,-144.84714285714284
864,1715374741350,-1.56,-0.87,-0.18,-6.47,-79.41,71.96
865,1715374741360,-1.56,-0.87,-0.18,-6.47,-79.41,71.96
866,1715374741370,-1.56,-0.87,-0.18,-6.47,-79.41,71.96
867,1715374741380,-1.2342857142857144,-1.2428571428571427,-0.3471428571428571,-16.898571428571426,-73.30571428571429,124.07571428571428
868,1715374741390,-0.8,-1.74,-0.57,-79.47,-36.68,436.77
869,1715374741400,-0.8,-1.74,-0.57,-79.47,-36.68,436.77
870,1715374741410,-0.14000000000000004,-2.1942857142857144,-0.6642857142857144,-93.96142857142857,-40.64,495.72999999999996
871,1715374741420,0.74,-2.8,-0.79,-130.19,-50.54,643.13
872,1715374741430,0.74,-2.8,-0.79,-130.19,-50.54,643.13
873,1715374741440,0.74,-2.8,-0.79,-130.19,-50.54,643.13
874,1715374741450,1.5099999999999998,-2.71,-0.775,-140.78,-81.82,674.685
875,1715374741460,2.28,-2.62,-0.76,-151.37,-113.1,706.24
876,1715374741470,2.28,-2.62,-0.76,-151.37000000000003,-113.1,706.24
877,1715374741480,2.28,-2.62,-0.76,-151.37,-113.1,706.24
878,1715374741490,2.2125,-2.4775,-0.4975,-200.8825,-153.95625,612.24625
879,1715374741500,2.19,-2.43,-0.41,-230.59,-178.47,555.85
880,1715374741510,2.19,-2.43,-0.41,-230.59,-178.47,555.85
881,1715374741520,2.19,-2.43,-0.41,-230.59,-178.47,555.85
882,1715374741530,2.04,-2.505,-0.2525,-192.8725,-179.70000000000002,507.8725
883,1715374741540,1.99,-2.53,-0.2,-180.3,-180.11,491.88
884,1715374741550,1.99,-2.53,-0.2,-180.3,-180.11,491.88
885,1715374741560,1.99,-2.53,-0.2,-180.3,-180.10999999999999,491.88
886,1715374741570,1.9825,-2.5075,-0.0050000000000000044,-156.075,-145.4725,513.93
887,1715374741580,1.98,-2.5,0.06,-141.54,-124.69,527.16
888,1715374741590,1.98,-2.5,0.06,-141.54,-124.68999999999998,527.16
889,1715374741600,1.98,-2.5,0.06,-141.54,-124.69,527.16
890,1715374741610,2.23375,-1.86125,-0.01875,-133.62,-94.0225,487.38
891,1715374741620,2.27,-1.77,-0.03,-130.98,-83.8,474.12
892,1715374741630,2.27,-1.77,-0.03,-130.98,-83.8,474.12
893,1715374741640,2.30875,-1.68375,-0.0875,-130.98,-83.8,474.12
894,1715374741650,2.5800000000000005,-1.08,-0.48999999999999994,-69.03,-231.57,328.61
895,1715374741660,2.58,-1.08,-0.49,-69.03,-231.57,328.61
896,1715374741670,2.5800000000000005,-1.08,-0.48999999999999994,-69.03,-231.57,328.61
897,1715374741680,2.5675,-1.0275,-0.16499999999999998,-70.3275,-233.48499999999999,302.7925
898,1715374741690,2.53,-0.87,0.81,-79.41,-246.89,122.07
899,1715374741700,2.53,-0.87,0.8099999999999999,-79.41,-246.89000000000001,122.07000000000001
900,1715374741710,2.53,-0.87,0.81,-79.41,-246.89,122.07
901,1715374741720,2.4299999999999997,-0.8185714285714285,0.9014285714285715,-73.70714285714284,-202.2028571428571,101.39714285714285
902,1715374741730,2.18,-0.69,1.13,-39.49,65.92,-22.64
903,1715374741740,2.18,-0.69,1.13,-39.49,65.92,-22.64
904,1715374741750,2.18,-0.69,1.13,-39.49,65.92,-22.64
905,1715374741760,2.0942857142857143,-1.0414285714285714,0.62,-36.612857142857145,117.45142857142856,-52.722857142857144
906,1715374741770,1.98,-1.51,-0.06,-29.42,246.28,-127.93
907,1715374741780,1.98,-1.51,-0.06,-29.42,246.28,-127.93
908,1715374741790,1.98,-1.51,-0.06,-29.419999999999998,246.28,-127.92999999999999
909,1715374741800,1.8199999999999998,-1.74,-0.03,-13.365,200.26,-164.885
910,1715374741810,1.66,-1.97,0.0,2.69,154.24,-201.84
911,1715374741820,1.66,-1.97,0.0,2.69,154.24,-201.84
912,1715374741830,1.66,-1.97,0.0,2.69,154.24,-201.84
913,1715374741840,1.5775000000000001,-1.9324999999999999,0.18,96.62,101.5975,-259.155
914,1715374741850,1.55,-1.92,0.24,127.92999999999999,84.05,-278.26
915,1715374741860,1.55,-1.92,0.24,127.93,84.05,-278.26
916,1715374741870,1.55,-1.92,0.24,127.93,84.05,-278.26
917,1715374741880,1.655,-1.56,-0.0075,131.195,93.72,-312.44
918,1715374741890,1.69,-1.44,-0.09,134.46,103.39,-346.62
919,1715374741900,1.69,-1.44,-0.09,134.46,103.39,-346.62
920,1715374741910,1.69,-1.44,-0.09,134.46,103.39,-346.62
921,1715374741920,2.067142857142857,-1.3542857142857143,-0.012857142857142857,148.43142857142857,106.68999999999998,-426.9771428571429
922,1715374741930,2.13,-1.34,0.0,150.76,107.24,-440.37
923,1715374741940,2.13,-1.34,0.0,150.76,107.24,-440.37
924,1715374741950,2.13,-1.34,0.0,150.76,107.24,-440.37
925,1715374741960,2.52375,-1.8037500000000002,0.043750000000000004,137.36625,133.94,-533.6387500000001
926,1715374741970,2.5800000000000005,-1.8699999999999999,0.05,129.33,149.96,-589.6
927,1715374741980,2.58,-1.87,0.05,129.33,149.96,-589.6
928,1715374741990,2.5300000000000002,-1.9212500000000001,0.025,131.22250000000003,165.05125,-585.755
929,1715374742000,2.18,-2.28,-0.15,144.47,270.69,-558.84
930,1715374742010,2.18,-2.28,-0.15,144.47,270.69,-558.84
931,1715374742020,2.18,-2.28,-0.15,144.47,270.69,-558.84
932,1715374742030,2.1375,-2.2024999999999997,-0.3025,153.8225,272.75,-544.07
933,1715374742040,2.01,-1.97,-0.76,181.87999999999997,278.93,-499.75999999999993
934,1715374742050,2.01,-1.97,-0.76,181.88,278.93,-499.76
935,1715374742060,2.01,-1.97,-0.76,181.87999999999997,278.93,-499.75999999999993
936,1715374742070,2.01,-1.85375,-0.73,188.26624999999999,256.82,-498.11
937,1715374742080,2.01,-1.66,-0.68,198.91,219.97,-495.36
938,1715374742090,2.01,-1.66,-0.68,198.91,219.97,-495.36
939,1715374742100,2.01,-1.66,-0.68,198.91,219.97,-495.36
940,1715374742110,1.6842857142857142,-1.4257142857142857,-0.8057142857142858,189.40714285714284,199.69,-500.8
941,1715374742120,1.44,-1.25,-0.9,165.65,148.99,-514.4
942,1715374742130,1.44,-1.25,-0.9,165.65,148.99,-514.4
943,1715374742140,1.44,-1.25,-0.9,165.65,148.99,-514.4
944,1715374742150,0.3525,-0.8825000000000001,-0.9075,132.4625,38.74625,-517.53125
945,1715374742160,-0.01,-0.76,-0.91,112.55,-27.4,-519.41
946,1715374742170,-0.01,-0.76,-0.91,112.55,-27.4,-519.41
947,1715374742180,-0.01,-0.76,-0.91,112.55,-27.4,-519.41
948,1715374742190,-1.2875,-0.92625,-0.3325,34.0975,-84.97500000000001,-352.1975
949,1715374742200,-1.47,-0.95,-0.25,22.89,-93.2,-328.31
950,1715374742210,-1.47,-0.95,-0.25,22.89,-93.2,-328.31
951,1715374742220,-1.47,-0.95,-0.25,22.890000000000004,-93.2,-328.31
952,1715374742230,-2.07,-1.13,-0.145,-40.4625,-63.86,-12.455000000000002
953,1715374742240,-2.27,-1.19,-0.11,-61.58,-54.08,92.83
954,1715374742250,-2.27,-1.19,-0.11,-61.58,-54.08,92.83
955,1715374742260,-1.9825,-1.305,-0.20500000000000002,-42.5225,-80.05,185.025
956,1715374742270,-1.12,-1.65,-0.48999999999999994,14.65,-157.96,461.61
957,1715374742280,-1.12,-1.65,-0.49,14.65,-157.96,461.61
958,1715374742290,-1.12,-1.65,-0.49,14.65,-157.96,461.61
959,1715374742300,-0.3371428571428572,-1.8985714285714284,-0.4557142857142857,19.55,-162.80857142857144,538.6014285714285
960,1715374742310,1.62,-2.52,-0.37,31.8,-174.93,731.08
961,1715374742320,1.62,-2.52,-0.37,31.8,-174.93,731.08
962,1715374742330,1.62,-2.52,-0.37,31.8,-174.93,731.08
963,1715374742340,2.198571428571429,-2.5028571428571427,-0.15142857142857144,-52.42714285714285,-93.89142857142858,775.9128571428572
964,1715374742350,2.97,-2.48,0.14,-164.73,14.16,835.69
965,1715374742360,2.97,-2.48,0.14,-164.73,14.16,835.6899999999999
966,1715374742370,2.97,-2.48,0.14,-164.73,14.16,835.69
967,1715374742380,2.27,-2.3228571428571425,-0.2957142857142857,-229.07999999999998,-45.65428571428571,702.0257142857143
968,1715374742390,1.99,-2.26,-0.47,-254.82,-69.58,648.56
969,1715374742400,1.99,-2.26,-0.47,-254.82,-69.58,648.56
970,1715374742410,1.99,-2.26,-0.47,-254.82,-69.58,648.56
971,1715374742420,1.99,-2.26,-0.47000000000000003,-254.82,-69.58,648.5600000000001
972,1715374742430,1.99,-2.1774999999999998,-0.4175,-200.1625,-127.51749999999998,616.8675
973,1715374742440,1.99,-1.93,-0.26,-36.19,-301.33,521.79
974,1715374742450,1.99,-1.93,-0.26,-36.19,-301.33,521.79
975,1715374742460,2.0425,-1.895,-0.2975,-16.644999999999996,-301.255,502.8225
976,1715374742470,2.2,-1.79,-0.41,41.99,-301.03,445.92
977,1715374742480,2.2,-1.79,-0.41,41.99,-301.03,445.92
978,1715374742490,2.2,-1.79,-0.41,41.99,-301.03,445.92
979,1715374742500,2.23,-1.73,-0.3,29.24,-258.24,462.1
980,1715374742510,2.23,-1.73,-0.3,29.24,-258.24,462.1
981,1715374742520,2.23,-1.73,-0.3,29.24,-258.24,462.1
982,1715374742530,2.23,-1.73,-0.3,29.24,-258.24,462.1
983,1715374742540,2.73,-1.0585714285714285,-0.4428571428571429,44.80428571428571,-231.95428571428573,427.4357142857143
984,1715374742550,2.93,-0.79,-0.5,51.03,-221.44,413.57
985,1715374742560,2.93,-0.79,-0.5,51.03,-221.44,413.57
986,1715374742570,2.90875,-0.74875,-0.40375,40.96625,-209.1025,379.08625
987,1715374742580,2.7600000000000002,-0.46,0.27,-29.48,-122.74,137.7
988,1715374742590,2.76,-0.46,0.27,-29.48,-122.74,137.7
989,1715374742600,2.76,-0.46,0.27,-29.48,-122.74,137.7
990,1715374742610,2.6425,-0.5775,0.28,-29.48,-122.74,137.7
991,1715374742620,2.29,-0.93,0.31,-80.51,179.08,-20.32
992,1715374742630,2.29,-0.93,0.31,-80.51,179.08,-20.32
993,1715374742640,2.29,-0.93,0.31,-80.51,179.08,-20.32
994,1715374742650,2.29,-0.93,0.31,-80.51,179.08,-20.32
995,1715374742660,2.235,-1.0625,0.020000000000000004,-80.51,179.08,-20.32
996,1715374742670,2.07,-1.46,-0.85,-39.37,214.54,-124.82
997,1715374742680,2.07,-1.4599999999999997,-0.85,-39.37,214.54,-124.82000000000001
998,1715374742690,2.07,-1.46,-0.85,-39.37,214.54,-124.82
999,1715374742700,2.07,-1.4599999999999997,-0.85,-39.37,214.54,-124.82000000000001
1000,1715374742710,1.97,-1.6457142857142857,-0.5071428571428571,-5.319999999999999,95.99714285714286,-193.04857142857142
1001,1715374742720,1.93,-1.72,-0.37,8.3,48.58,-220.34
