id,timestamp,acc_x,acc_y,acc_z,gyro_x,gyro_y,gyro_z
0,1715374826310,0.21,-0.53,0.92,24.48,-8.24,11.35
1,1715374826320,0.21,-0.5075000000000001,0.9125000000000001,16.92,-5.2175,14.5075
2,1715374826330,0.21,-0.5,0.91,14.4,-4.21,15.56
3,1715374826340,0.21,-0.5,0.91,14.4,-4.21,15.56
4,1715374826350,0.21,-0.5,0.91,14.4,-4.21,15.56
5,1715374826360,0.2357142857142857,-0.5342857142857144,0.9442857142857142,-4.954285714285715,-0.12999999999999995,15.302857142857144
6,1715374826370,0.24,-0.54,0.95,-8.18,0.55,15.26
7,1715374826380,0.24,-0.54,0.95,-8.18,0.55,15.26
8,1715374826390,0.2375,-0.54,0.94875,-8.18,0.55,15.26
9,1715374826400,0.22,-0.54,0.94,-2.56,-5.37,14.77
10,1715374826410,0.22,-0.54,0.94,-2.56,-5.37,14.77
11,1715374826420,0.22,-0.54,0.9400000000000001,-2.56,-5.37,14.77
12,1715374826430,0.2275,-0.5175000000000001,0.9299999999999999,-8.055,-3.325,16.3725
13,1715374826440,0.25,-0.45,0.9,-24.54,2.81,21.18
14,1715374826450,0.25,-0.45,0.9,-24.54,2.81,21.18
15,1715374826460,0.25,-0.45,0.9,-24.54,2.81,21.18
16,1715374826470,0.22571428571428573,-0.4614285714285714,0.8571428571428571,-27.35571428571429,4.8500000000000005,22.854285714285712
17,1715374826480,0.08,-0.53,0.6,-44.25,17.09,32.9
18,1715374826490,0.08,-0.53,0.6,-44.25,17.09,32.9
19,1715374826500,0.08,-0.53,0.6,-44.25,17.09,32.9
20,1715374826510,0.075,-0.47500000000000003,0.5599999999999999,-37.75,7.295,33.402499999999996
21,1715374826520,0.06,-0.31,0.44,-18.25,-22.09,34.91
22,1715374826530,0.06,-0.31,0.44,-18.25,-22.09,34.91
23,1715374826540,0.06,-0.31,0.44,-18.25,-22.09,34.91
24,1715374826550,-0.045,-0.235,0.235,-23.7575,-28.544999999999998,37.58
25,1715374826560,-0.15,-0.16,0.03,-40.28000000000001,-47.910000000000004,45.589999999999996
26,1715374826570,-0.15,-0.16,0.03,-40.28,-47.91,45.59
27,1715374826580,-0.15,-0.16,0.03,-40.28,-47.91,45.59
28,1715374826590,-0.056249999999999994,-0.05375,-0.15750000000000003,-53.28,-58.714999999999996,46.02
29,1715374826600,0.0,0.01,-0.27,-66.28,-69.52,46.45
30,1715374826610,0.0,0.01,-0.27,-66.28,-69.52,46.45
31,1715374826620,0.0,0.01,-0.27,-66.28,-69.52,46.45
32,1715374826630,-0.135,-0.20750000000000002,-0.12000000000000001,-146.8075,21.1175,71.9425
33,1715374826640,-0.18,-0.28,-0.07,-173.65,51.33,80.44
34,1715374826650,-0.18,-0.28,-0.07,-173.65,51.33,80.43999999999998
35,1715374826660,-0.18,-0.28,-0.07,-173.65,51.33,80.44
36,1715374826670,-0.14,-0.76,0.01,-196.9,71.84,108.4
37,1715374826680,-0.14,-0.76,0.01,-196.9,71.84,108.4
38,1715374826690,-0.14,-0.76,0.01,-196.9,71.84,108.4
39,1715374826700,-0.07000000000000002,-0.7871428571428571,-0.03571428571428571,-196.9,71.84,108.4
40,1715374826710,0.35,-0.95,-0.31,-206.3725,85.16,74.2525
41,1715374826720,0.35,-0.95,-0.31,-209.53,89.6,62.87
42,1715374826730,0.35,-0.95,-0.31,-209.53,89.6,62.87
43,1715374826740,0.47,-1.4100000000000001,-0.405,-208.92000000000002,93.88749999999999,52.614999999999995
44,1715374826750,0.59,-1.87,-0.5,-207.09,106.75,21.85
45,1715374826760,0.59,-1.87,-0.5,-207.09,106.75,21.85
46,1715374826770,0.59,-1.8699999999999999,-0.5,-207.09,106.75,21.85
47,1715374826780,0.9025000000000001,-2.78875,-0.33125,-171.99625,157.36875,16.087500000000002
48,1715374826790,1.09,-3.34,-0.23,-150.94,187.74,12.63
49,1715374826800,1.09,-3.34,-0.23,-150.94,187.74,12.63
50,1715374826810,1.09,-3.34,-0.23,-150.94,187.74,12.63
51,1715374826820,0.985,-3.565,-0.1625,-24.0025,277.875,-41.474999999999994
52,1715374826830,0.95,-3.64,-0.14,18.31,307.92,-59.51
53,1715374826840,0.95,-3.64,-0.14,18.31,307.92,-59.51
54,1715374826850,0.95,-3.64,-0.14,18.31,307.92,-59.51
55,1715374826860,1.19,-4.14,0.3,-26.502499999999998,199.845,-190.0625
56,1715374826870,1.19,-4.14,0.3,-41.44,163.82,-233.58
57,1715374826880,1.19,-4.14,0.3,-41.44,163.82,-233.58
58,1715374826890,1.19,-4.14,0.3,-41.44,163.82,-233.58
59,1715374826900,1.19,-4.14,0.3,-41.44,163.82,-233.58
60,1715374826910,0.8112499999999999,-4.2825,0.5137499999999999,-35.46625,203.52875,-268.46250000000003
61,1715374826920,0.18,-4.52,0.87,-25.51,269.71,-326.6
62,1715374826930,0.18,-4.52,0.87,-25.51,269.71,-326.6
63,1715374826940,-0.25125,-4.145,1.3575,22.096249999999998,200.3225,-338.08125
64,1715374826950,-0.51,-3.92,1.65,50.66,158.69,-344.97
65,1715374826960,-0.51,-3.9199999999999995,1.65,50.660000000000004,158.69,-344.96999999999997
66,1715374826970,-0.51,-3.92,1.65,50.66,158.69,-344.97
67,1715374826980,-0.51,-3.92,1.65,50.66,158.69,-344.97
68,1715374826990,-0.51,-3.9199999999999995,1.65,50.660000000000004,158.69,-344.96999999999997
69,1715374827000,-0.5425,-3.6225,1.5675,80.29249999999999,130.02,-339.2475
70,1715374827010,-0.71,-2.33,1.1800000000000002,166.64249999999998,-12.890000000000004,-337.5375
71,1715374827020,-0.78,-1.93,1.04,159.0,-183.59,-383.91
72,1715374827030,-0.78,-1.93,1.04,159.0,-183.59,-383.91
73,1715374827040,-0.78,-1.93,1.04,159.0,-183.59,-383.91
74,1715374827050,-0.5775,-1.7125,0.7849999999999999,146.6625,-240.26375000000002,-412.245
75,1715374827060,-0.51,-1.64,0.7,126.1,-334.71999999999997,-459.46999999999997
76,1715374827070,-0.51,-1.64,0.7,126.1,-334.71999999999997,-459.46999999999997
77,1715374827080,-0.51,-1.64,0.7,126.1,-334.72,-459.47
78,1715374827090,-0.3075,-1.7825,0.61,103.64,-320.65,-485.535
79,1715374827100,-0.24,-1.83,0.58,81.17999999999999,-306.58,-511.6
80,1715374827110,-0.24,-1.83,0.58,81.18,-306.58,-511.6
81,1715374827120,-0.24,-1.83,0.58,81.17999999999999,-306.58,-511.6
82,1715374827130,-0.3075,-1.8,0.5425,87.0375,-178.6825,-465.4075
83,1715374827140,-0.33,-1.7900000000000003,0.53,88.99,-136.05,-450.00999999999993
84,1715374827150,-0.33,-1.79,0.53,88.99,-136.05,-450.01
85,1715374827160,-0.33,-1.79,0.53,88.99,-136.05,-450.01
86,1715374827170,-0.26,-1.57,0.39,28.965,-129.855,-456.58124999999995
87,1715374827180,-0.26,-1.57,0.39,20.390000000000004,-128.97,-457.52
88,1715374827190,-0.26,-1.57,0.39,20.39,-128.97,-457.52
89,1715374827200,-0.2425,-1.5975000000000001,0.39375,11.287500000000001,-129.49625,-461.45624999999995
90,1715374827210,-0.12,-1.79,0.42,-52.43,-133.18,-489.01
91,1715374827220,-0.12,-1.79,0.42,-52.43,-133.18,-489.01
92,1715374827230,-0.12,-1.7900000000000003,0.42,-52.43,-133.18,-489.00999999999993
93,1715374827240,-0.21,-1.6775,0.315,-62.135000000000005,-111.46000000000001,-473.4025
94,1715374827250,-0.36,-1.49,0.14,-78.31,-75.26,-447.39
95,1715374827260,-0.36,-1.49,0.14,-78.31000000000002,-75.26,-447.39
96,1715374827270,-0.36,-1.49,0.14,-78.31,-75.26,-447.39
97,1715374827280,-0.8742857142857143,-1.0142857142857142,0.04142857142857143,-106.82285714285715,-102.12285714285714,-443.3357142857143
98,1715374827290,-1.56,-0.38,-0.09,-144.84,-137.94,-437.93
99,1715374827300,-1.56,-0.38,-0.09,-144.84,-137.94,-437.93
100,1715374827310,-1.56,-0.38,-0.09,-144.84,-137.94,-437.93
101,1715374827320,-2.9475,0.15125,-0.1275,-99.825,-12.695,-308.2
102,1715374827330,-3.78,0.47,-0.15,-54.81,112.55,-178.47
103,1715374827340,-3.78,0.47000000000000003,-0.15,-54.81,112.55,-178.47
104,1715374827350,-3.78,0.47,-0.15,-54.81,112.55,-178.47
105,1715374827360,-4.38375,0.6625,-0.42125,13.0725,58.72,89.525
106,1715374827370,-4.47,0.6900000000000001,-0.46,22.77,51.03000000000001,127.81000000000002
107,1715374827380,-4.47,0.69,-0.46,22.77,51.03,127.81
108,1715374827390,-4.373749999999999,0.6275,-0.37,30.5975,50.23625,136.4075
109,1715374827400,-3.7,0.19,0.26,85.39,44.68,196.59
110,1715374827410,-3.7,0.19,0.26,85.39,44.68,196.59
111,1715374827420,-3.7,0.19,0.26,85.39,44.68,196.59
112,1715374827430,-3.5357142857142856,0.11285714285714286,0.15,85.39,44.68,196.59
113,1715374827440,-2.55,-0.35,-0.51,282.29,134.03,478.52
114,1715374827450,-2.55,-0.35,-0.51,282.29,134.03,478.52
115,1715374827460,-2.55,-0.35,-0.51,282.29,134.03,478.52
116,1715374827470,-2.1785714285714284,-0.7214285714285714,-0.5014285714285714,233.39285714285714,148.55857142857144,508.96571428571434
117,1715374827480,-1.25,-1.65,-0.48,111.15,184.88,585.08
118,1715374827490,-1.25,-1.65,-0.48,111.15,184.88,585.08
119,1715374827500,-1.25,-1.65,-0.48,111.15,184.88,585.08
120,1715374827510,-0.9528571428571428,-2.85,0.17142857142857146,55.18714285714287,156.83714285714285,601.7171428571429
121,1715374827520,-0.73,-3.75,0.66,-84.72,86.73,643.31
122,1715374827530,-0.73,-3.75,0.66,-84.72,86.73,643.31
123,1715374827540,-0.73,-3.75,0.66,-84.72,86.73,643.31
124,1715374827550,-0.0657142857142857,-3.95,0.8814285714285715,-94.09142857142857,46.10142857142858,587.51
125,1715374827560,0.2,-4.03,0.97,-97.84,29.85,565.19
126,1715374827570,0.2,-4.03,0.97,-97.84,29.85,565.19
127,1715374827580,0.2,-4.03,0.97,-97.84,29.85,565.19
128,1715374827590,0.3875,-4.1275,1.0675000000000001,-121.555,10.2075,507.92
129,1715374827600,0.45,-4.16,1.1,-129.46,3.66,488.83
130,1715374827610,0.45,-4.16,1.1,-129.46,3.66,488.83
131,1715374827620,0.45,-4.16,1.1,-129.46,3.66,488.83
132,1715374827630,0.4325,-3.5562500000000004,1.00375,-75.14,116.8325,460.7425
133,1715374827640,0.43,-3.47,0.9899999999999999,-67.38,133.0,456.73
134,1715374827650,0.43,-3.47,0.99,-67.38,133.0,456.73
135,1715374827660,0.43,-3.47,0.99,-67.38,133.0,456.73
136,1715374827670,-0.11,-2.6,0.75,-81.54,213.87,467.47
137,1715374827680,-0.11,-2.6,0.75,-81.54,213.87000000000003,467.46999999999997
138,1715374827690,-0.11,-2.6,0.75,-81.54,213.87,467.47
139,1715374827700,-0.14,-2.5587500000000003,0.71625,-87.75875,204.26375000000002,465.27250000000004
140,1715374827710,-0.19,-2.4899999999999998,0.66,-131.29,137.02,449.89
141,1715374827720,-0.19,-2.49,0.66,-131.29,137.02,449.89
142,1715374827730,-0.19,-2.49,0.66,-131.29,137.02,449.89
143,1715374827740,0.45285714285714285,-2.575714285714286,0.5785714285714285,-119.03857142857143,119.66857142857144,441.1614285714286
144,1715374827750,1.31,-2.69,0.47,-45.53,15.56,388.79
145,1715374827760,1.31,-2.69,0.47,-45.53,15.56,388.79
146,1715374827770,1.31,-2.69,0.47,-45.53,15.56,388.79
147,1715374827780,2.33,-3.04,0.06499999999999997,0.21499999999999986,79.22,355.04
148,1715374827790,3.35,-3.39,-0.34,45.96,142.88,321.29
149,1715374827800,3.35,-3.39,-0.34,45.96,142.88,321.29
150,1715374827810,3.35,-3.39,-0.34,45.96,142.88,321.29
151,1715374827820,4.985,-3.93,-0.625,84.79125,106.53,215.24
152,1715374827830,5.53,-4.11,-0.72,108.09,84.72,151.61
153,1715374827840,5.53,-4.11,-0.72,108.09,84.72,151.61
154,1715374827850,5.53,-4.11,-0.72,108.09,84.72,151.60999999999999
155,1715374827860,4.76,-5.31,-0.4,43.69714285714286,83.89142857142858,-149.81857142857143
156,1715374827870,4.76,-5.31,-0.4,17.94,83.56000000000002,-270.39
157,1715374827880,4.76,-5.31,-0.4,17.94,83.56,-270.39
158,1715374827890,4.76,-5.31,-0.4,17.94,83.56000000000002,-270.39
159,1715374827900,0.57,-5.52,0.48,156.19,312.13,-248.9
160,1715374827910,0.57,-5.5200000000000005,0.48,156.19,312.13,-248.9
161,1715374827920,0.57,-5.52,0.48,156.19,312.13,-248.9
162,1715374827930,0.45999999999999996,-5.2325,0.54,174.9425,249.1275,-267.3475
163,1715374827940,0.13,-4.37,0.72,231.2,60.12,-322.69
164,1715374827950,0.13,-4.37,0.72,231.2,60.12,-322.69
165,1715374827960,0.13,-4.37,0.72,231.2,60.12,-322.69
166,1715374827970,0.07375,-3.98,0.63,232.4525,26.9625,-339.765
167,1715374827980,-0.02,-3.3300000000000005,0.48,236.21,-72.51,-390.99000000000007
168,1715374827990,-0.02,-3.33,0.48,236.21,-72.51,-390.99
169,1715374828000,-0.02,-3.33,0.48,236.21,-72.51,-390.99
170,1715374828010,-0.12625,-3.08,0.32375,241.38125,-90.88875,-421.3875
171,1715374828020,-0.19,-2.93,0.23,250.0,-121.52,-472.05
172,1715374828030,-0.19,-2.93,0.23,250.0,-121.52,-472.05
173,1715374828040,-0.19,-2.93,0.23000000000000004,250.0,-121.52000000000001,-472.05
174,1715374828050,-0.29000000000000004,-2.88,0.09,242.70499999999998,-116.54499999999999,-502.72
175,1715374828060,-0.39,-2.8300000000000005,-0.05,235.41,-111.57000000000001,-533.39
176,1715374828070,-0.39,-2.83,-0.05,235.41,-111.57,-533.39
177,1715374828080,-0.39,-2.8300000000000005,-0.05,235.41,-111.57000000000001,-533.39
178,1715374828090,-0.46499999999999997,-2.7175000000000002,-0.1625,216.60000000000002,-56.82,-515.2625
179,1715374828100,-0.49,-2.68,-0.2,210.33,-38.57,-509.22
180,1715374828110,-0.48999999999999994,-2.68,-0.2,210.33,-38.57,-509.21999999999997
181,1715374828120,-0.49,-2.68,-0.2,210.33,-38.57,-509.22
182,1715374828130,-0.5071428571428571,-2.337142857142857,-0.3028571428571429,168.00428571428571,-20.63,-477.4114285714286
183,1715374828140,-0.51,-2.28,-0.32,160.95,-17.64,-472.11
184,1715374828150,-0.51,-2.28,-0.32,160.95,-17.64,-472.11
185,1715374828160,-0.51,-2.28,-0.32,160.95,-17.64,-472.10999999999996
186,1715374828170,-0.51,-2.28,-0.32,160.95,-17.64,-472.11
187,1715374828180,-0.51,-2.28,-0.32,160.95,-17.64,-472.11
188,1715374828190,-0.1725,-2.04,-0.455,71.505,-94.3575,-497.19
189,1715374828200,0.045,-1.955,-0.4775,-3.157499999999999,-128.53750000000002,-513.8375
190,1715374828210,0.36,-1.94,-0.41,-137.7,-154.36,-538.7
191,1715374828220,0.36,-1.94,-0.41,-137.7,-154.35999999999999,-538.7
192,1715374828230,0.36,-1.94,-0.41,-137.7,-154.35999999999999,-538.7
193,1715374828240,0.28625,-1.9024999999999999,-0.42874999999999996,-137.7,-154.36,-538.7
194,1715374828250,-0.23,-1.64,-0.56,-209.59,-109.86,-482.97
195,1715374828260,-0.23,-1.64,-0.56,-209.59,-109.86,-482.96999999999997
196,1715374828270,-0.23,-1.64,-0.56,-209.59,-109.86,-482.97
197,1715374828280,-0.23,-1.64,-0.56,-209.59,-109.86,-482.97
198,1715374828290,-0.7014285714285714,-1.3485714285714285,-0.2857142857142857,-219.24571428571429,-108.31714285714285,-444.4157142857143
199,1715374828300,-1.33,-0.96,0.08,-232.12,-106.26,-393.01
200,1715374828310,-1.33,-0.96,0.08,-232.12,-106.26,-393.01
201,1715374828320,-3.6871428571428573,-0.49714285714285716,1.22,-203.27428571428572,-44.002857142857145,-329.70714285714286
202,1715374828330,-4.08,-0.42,1.41,-181.64,2.69,-282.23
203,1715374828340,-4.08,-0.42,1.41,-181.64,2.69,-282.23
204,1715374828350,-4.08,-0.42,1.41,-181.64,2.69,-282.23
205,1715374828360,-4.2,-0.84,2.301428571428571,-21.345714285714283,-106.44142857142856,-70.50714285714285
206,1715374828370,-4.22,-0.91,2.45,5.37,-124.63,-35.22
207,1715374828380,-4.22,-0.91,2.45,5.37,-124.63,-35.22
208,1715374828390,-4.22,-0.91,2.45,5.37,-124.63,-35.22
209,1715374828400,-4.35125,-0.5775,2.05625,150.9525,-141.7275,44.0375
210,1715374828410,-4.37,-0.53,2.0,171.75,-144.17,55.36
211,1715374828420,-4.37,-0.53,2.0,171.75,-144.17,55.36
212,1715374828430,-4.37,-0.53,2.0,171.75,-144.17,55.36
213,1715374828440,-3.0225,-1.545,0.8450000000000001,321.07750000000004,-248.8375,105.7775
214,1715374828450,-2.83,-1.69,0.68,342.41,-263.79,112.98
215,1715374828460,-2.83,-1.69,0.68,342.41,-263.79,112.98
216,1715374828470,-2.13625,-2.14375,-0.31375,364.8475,-247.04375000000002,146.68625
217,1715374828480,-0.9799999999999999,-2.9,-1.97,521.91,-129.82,382.63
218,1715374828490,-0.98,-2.9,-1.97,521.91,-129.82,382.63
219,1715374828500,-0.9799999999999999,-2.9,-1.97,521.91,-129.82,382.63
220,1715374828510,-0.385,-3.005,-2.29,504.6375,-141.92,400.97
221,1715374828520,1.4,-3.32,-3.25,452.82,-178.22,455.99
222,1715374828530,1.4,-3.32,-3.25,452.82,-178.22,455.99000000000007
223,1715374828540,1.4,-3.32,-3.25,452.82,-178.22,455.99
224,1715374828550,1.8625,-3.4387499999999998,-2.54375,403.95125,-116.53875,433.6025
225,1715374828560,2.14,-3.5100000000000002,-2.12,374.63,-79.53,420.17
226,1715374828570,2.14,-3.51,-2.12,374.63,-79.53,420.17
227,1715374828580,2.14,-3.51,-2.12,374.63,-79.53,420.17
228,1715374828590,2.14,-3.51,-2.12,374.63,-79.53,420.17
229,1715374828600,1.7725,-2.87125,-1.35,370.6175,-39.2,435.26
230,1715374828610,1.72,-2.78,-1.24,358.58,81.79,480.53000000000003
231,1715374828620,1.72,-2.78,-1.24,358.58,81.79,480.53
232,1715374828630,1.15,-2.2925,-0.7075,268.8125,79.03750000000001,463.73
233,1715374828640,0.96,-2.13,-0.53,238.89000000000001,78.12,458.13
234,1715374828650,0.96,-2.13,-0.53,238.89,78.12,458.13
235,1715374828660,0.96,-2.13,-0.53,238.89,78.12,458.13
236,1715374828670,0.68,-2.31,0.1,157.53,29.24,418.09
237,1715374828680,0.68,-2.31,0.1,157.53,29.24,418.09
238,1715374828690,0.68,-2.31,0.1,157.53,29.24,418.09
239,1715374828700,0.69125,-2.38625,0.12000000000000001,162.6875,39.4175,424.76624999999996
240,1715374828710,0.77,-2.92,0.26,198.79,110.66,471.5
241,1715374828720,0.77,-2.92,0.26,198.79,110.66,471.5
242,1715374828730,0.77,-2.92,0.26,198.79,110.66,471.5
243,1715374828740,1.1300000000000001,-2.7399999999999998,0.07142857142857142,202.60999999999999,111.11142857142856,493.05428571428575
244,1715374828750,1.61,-2.5,-0.18,212.16,112.24,546.94
245,1715374828760,1.61,-2.5,-0.18,212.16,112.24,546.94
246,1715374828770,1.61,-2.5,-0.18,212.16,112.24,546.94
247,1715374828780,1.61,-2.5,-0.18,212.16,112.24,546.94
248,1715374828790,1.61,-2.5,-0.18,212.16,112.24,546.94
249,1715374828800,3.45,-2.75,-1.17,118.65,2.32,364.87
250,1715374828810,3.45,-2.75,-1.17,118.65,2.32,364.87
251,1715374828820,5.04,-3.3300000000000005,-1.66,86.73,153.5,336.18
252,1715374828830,5.04,-3.33,-1.66,86.73,153.5,336.18
253,1715374828840,5.04,-3.3300000000000005,-1.66,86.73,153.5,336.18
254,1715374828850,5.0600000000000005,-3.42625,-1.73875,86.73,153.5,336.18
255,1715374828860,5.2,-4.1,-2.29,-31.05,24.919999999999998,-10.8525
256,1715374828870,5.2,-4.1,-2.29,-70.31,-17.94,-126.53
257,1715374828880,5.2,-4.1,-2.29,-70.31,-17.94,-126.53
258,1715374828890,4.6575,-4.38,-1.86,-59.935,65.1575,-138.95
259,1715374828900,3.03,-5.22,-0.57,-28.81,314.45,-176.21
260,1715374828910,3.03,-5.22,-0.57,-28.81,314.45,-176.21
261,1715374828920,3.03,-5.22,-0.57,-28.81,314.45,-176.21
262,1715374828930,2.0014285714285713,-4.675714285714285,-0.39,28.974285714285713,306.3671428571428,-229.46857142857147
263,1715374828940,0.63,-3.95,-0.15,106.02,295.59,-300.48
264,1715374828950,0.63,-3.95,-0.15,106.02,295.59,-300.48
265,1715374828960,0.63,-3.95,-0.15,106.02,295.59,-300.48
266,1715374828970,0.355,-3.58,0.13,109.71000000000001,189.08499999999998,-355.745
267,1715374828980,0.08,-3.21,0.41,113.4,82.58,-411.01
268,1715374828990,0.08,-3.21,0.41,113.4,82.58,-411.01
269,1715374829000,0.08,-3.21,0.41,113.4,82.58,-411.01
270,1715374829010,0.08,-3.21,0.41,113.4,82.58,-411.00999999999993
271,1715374829020,-0.06874999999999999,-2.79,0.235,183.04125000000002,50.16125,-417.1
272,1715374829030,-0.09,-2.73,0.21,192.99,45.53,-417.97
273,1715374829040,-0.09,-2.73,0.21,192.99,45.53,-417.97
274,1715374829050,-0.3814285714285714,-2.4899999999999998,-0.13285714285714287,196.54714285714286,-8.564285714285713,-479.2814285714286
275,1715374829060,-0.43,-2.45,-0.19,197.14,-17.58,-489.5
276,1715374829070,-0.43,-2.45,-0.19,197.14,-17.58,-489.5
277,1715374829080,-0.43,-2.45,-0.19,197.14000000000001,-17.58,-489.5
278,1715374829090,-0.2,-2.54,-0.2,155.7525,-27.03625,-488.89374999999995
279,1715374829100,-0.2,-2.54,-0.2,130.92,-32.71,-488.53
280,1715374829110,-0.2,-2.54,-0.2,130.92,-32.71,-488.53000000000003
281,1715374829120,-0.19,-2.5525,-0.19625,136.00875,-19.458750000000002,-481.43375
282,1715374829130,-0.12,-2.64,-0.17,171.63,73.3,-431.76
283,1715374829140,-0.12,-2.64,-0.17,171.62999999999997,73.3,-431.75999999999993
284,1715374829150,-0.12,-2.64,-0.17,171.63,73.3,-431.76
285,1715374829160,-0.1725,-2.4975,-0.2575,166.06,70.3875,-429.1525
286,1715374829170,-0.33,-2.07,-0.52,149.35,61.65,-421.33
287,1715374829180,-0.33,-2.07,-0.52,149.35,61.65,-421.33
288,1715374829190,-0.33,-2.07,-0.52,149.35,61.65,-421.33
289,1715374829200,-0.23,-2.07625,-0.46375,90.05499999999999,45.535,-445.255
290,1715374829210,-0.17,-2.08,-0.43,30.76,29.419999999999998,-469.18
291,1715374829220,-0.17,-2.08,-0.43,30.76,29.42,-469.18
292,1715374829230,-0.17,-2.08,-0.43,30.76,29.42,-469.18
293,1715374829240,-0.29857142857142854,-1.8485714285714288,-0.4642857142857143,7.438571428571429,25.277142857142856,-421.70142857142855
294,1715374829250,-0.32,-1.81,-0.47000000000000003,-1.89,23.62,-402.71
295,1715374829260,-0.32,-1.81,-0.47,-1.89,23.62,-402.71
296,1715374829270,-0.32,-1.81,-0.47,-1.89,23.62,-402.71
297,1715374829280,-1.2799999999999998,-0.5157142857142857,-0.6242857142857143,-74.29285714285713,-26.96857142857143,-429.22999999999996
298,1715374829290,-1.44,-0.3,-0.65,-86.36,-35.4,-433.65
299,1715374829300,-1.44,-0.3,-0.65,-86.36,-35.4,-433.65
300,1715374829310,-1.44,-0.3,-0.65,-86.36,-35.4,-433.65
301,1715374829320,-4.74,0.68,0.56,-137.9385714285714,-184.7642857142857,-431.2142857142857
302,1715374829330,-4.74,0.68,0.56,-158.57,-244.51,-430.24
303,1715374829340,-4.74,0.68,0.56,-158.57,-244.51,-430.24
304,1715374829350,-4.898571428571429,0.68,0.6728571428571429,-158.57,-244.51,-430.24000000000007
305,1715374829360,-5.85,0.68,1.35,78.8,-81.79,28.02
306,1715374829370,-5.85,0.68,1.35,78.8,-81.79,28.02
307,1715374829380,-5.85,0.68,1.35,78.8,-81.79,28.02
308,1715374829390,-5.85,0.68,1.35,78.8,-81.79,28.02
309,1715374829400,-4.9375,0.56125,0.6625000000000001,176.9875,-144.4275,181.75125
310,1715374829410,-4.39,0.49,0.25,235.9,-182.01,273.99
311,1715374829420,-4.39,0.48999999999999994,0.25,235.9,-182.01,273.99
312,1715374829430,-4.39,0.49,0.25,235.9,-182.01,273.99
313,1715374829440,-4.39,0.49,0.25,235.9,-182.01,273.99
314,1715374829450,-2.6487499999999997,-0.7175,-0.9137500000000001,270.83,-190.71625,457.38124999999997
315,1715374829460,-2.4,-0.89,-1.08,275.82,-191.96,483.58
316,1715374829470,-1.8085714285714285,-1.5042857142857144,-1.2142857142857142,229.66,-197.0171428571429,500.9485714285714
317,1715374829480,-0.33,-3.04,-1.55,114.26,-209.66,544.37
318,1715374829490,-0.33,-3.04,-1.55,114.26,-209.66,544.37
319,1715374829500,-0.33,-3.04,-1.55,114.26,-209.66,544.37
320,1715374829510,0.7875,-4.015,-1.19,93.98,-218.03750000000002,515.165
321,1715374829520,1.16,-4.34,-1.07,87.22,-220.83,505.43
322,1715374829530,1.16,-4.34,-1.07,87.22,-220.83,505.43
323,1715374829540,1.16,-4.34,-1.07,87.22,-220.83,505.43
324,1715374829550,1.1842857142857142,-4.257142857142857,-1.0042857142857142,96.64571428571428,-190.19857142857146,503.7742857142857
325,1715374829560,1.33,-3.76,-0.61,153.2,-6.41,493.84
326,1715374829570,1.33,-3.76,-0.61,153.2,-6.41,493.84
327,1715374829580,1.33,-3.7600000000000002,-0.61,153.2,-6.410000000000001,493.84
328,1715374829590,0.81,-2.74,-0.09,107.27125,-2.1925,405.5
329,1715374829600,0.81,-2.74,-0.09,100.71,-1.59,392.88
330,1715374829610,0.81,-2.74,-0.09,100.71,-1.59,392.88
331,1715374829620,0.7557142857142857,-2.662857142857143,-0.049999999999999996,95.93142857142857,2.202857142857143,386.30571428571426
332,1715374829630,0.43,-2.2,0.19,67.26,24.96,346.86
333,1715374829640,0.43,-2.2,0.19,67.26,24.96,346.86
334,1715374829650,0.43,-2.2,0.19,67.26,24.96,346.86
335,1715374829660,0.33,-2.21,0.1925,59.4025,22.565,353.57500000000005
336,1715374829670,0.03,-2.24,0.2,35.83,15.38,373.72
337,1715374829680,0.03,-2.24,0.2,35.83,15.38,373.71999999999997
338,1715374829690,0.03,-2.24,0.2,35.83,15.38,373.72
339,1715374829700,0.2485714285714286,-2.3685714285714288,0.25142857142857145,34.0,16.661428571428573,404.2728571428571
340,1715374829710,0.54,-2.54,0.32,31.56,18.37,445.01
341,1715374829720,0.54,-2.54,0.32,31.56,18.37,445.01
342,1715374829730,0.54,-2.54,0.32,31.56,18.37,445.00999999999993
343,1715374829740,1.2650000000000001,-2.435,0.06,63.235,32.775,476.04499999999996
344,1715374829750,1.99,-2.33,-0.2,94.91,47.18,507.08
345,1715374829760,1.99,-2.3300000000000005,-0.2,94.91,47.18,507.08
346,1715374829770,1.99,-2.33,-0.2,94.91,47.18,507.08
347,1715374829780,3.7542857142857144,-2.5228571428571427,-0.9428571428571428,40.85285714285714,32.48714285714286,394.95142857142855
348,1715374829790,4.46,-2.6,-1.24,19.23,26.61,350.1
349,1715374829800,4.46,-2.6,-1.24,19.23,26.61,350.1
350,1715374829810,4.46,-2.6,-1.24,19.23,26.609999999999996,350.1
351,1715374829820,6.7525,-4.20125,-1.0125,44.91,149.295,356.8275
352,1715374829830,7.08,-4.43,-0.98,53.47,190.19,359.07
353,1715374829840,7.08,-4.43,-0.98,53.47,190.19,359.07
354,1715374829850,6.558571428571429,-4.668571428571428,-0.8485714285714285,56.39,193.6942857142857,285.5142857142857
355,1715374829860,3.43,-6.1,-0.06,73.91,214.72,-155.82
356,1715374829870,3.43,-6.1,-0.06,73.91,214.72,-155.82
357,1715374829880,3.43,-6.1,-0.06,73.91,214.72,-155.82
358,1715374829890,2.7025,-5.9875,0.02500000000000001,73.91,214.72,-155.82
359,1715374829900,0.52,-5.65,0.28,201.23,191.35,-384.16
360,1715374829910,0.52,-5.65,0.28,201.23,191.35,-384.16
361,1715374829920,0.52,-5.65,0.28,201.23,191.35,-384.16
362,1715374829930,0.11875,-5.1137500000000005,0.30625,243.70999999999998,187.0675,-344.72125
363,1715374829940,-0.55,-4.22,0.35,314.51,179.93,-278.99
364,1715374829950,-0.55,-4.22,0.35,314.51,179.93,-278.99
365,1715374829960,-0.55,-4.22,0.35,314.50999999999993,179.93,-278.99
366,1715374829970,-0.6125,-3.41375,0.26875,327.56,58.511250000000004,-327.05875
367,1715374829980,-0.65,-2.93,0.22,335.39,-14.34,-355.9
368,1715374829990,-0.65,-2.93,0.22,335.39,-14.34,-355.9
369,1715374830000,-0.65,-2.93,0.22,335.39,-14.34,-355.9
370,1715374830010,-0.6842857142857143,-2.1842857142857146,-0.054285714285714284,318.65000000000003,-85.80857142857143,-408.36571428571426
371,1715374830020,-0.69,-2.06,-0.1,315.86,-97.72,-417.11
372,1715374830030,-0.69,-2.06,-0.1,315.86,-97.72,-417.11
373,1715374830040,-0.6900000000000001,-2.06,-0.1,315.86,-97.72,-417.11
374,1715374830050,-0.725,-1.84125,-0.30125,256.1675,-118.5925,-460.6925
375,1715374830060,-0.73,-1.81,-0.33,236.27,-125.55,-475.22
376,1715374830070,-0.73,-1.81,-0.33,236.27,-125.55,-475.22
377,1715374830080,-0.73,-1.81,-0.33,236.27,-125.55,-475.22
378,1715374830090,0.1,-2.2,-0.19,46.94,-182.43,-625.49
379,1715374830100,0.1,-2.2,-0.19,46.94,-182.43,-625.49
380,1715374830110,0.1,-2.2,-0.19,46.94,-182.43,-625.49
381,1715374830120,0.11875000000000001,-2.29375,-0.21125,49.93,-154.07250000000002,-614.83125
382,1715374830130,0.25,-2.95,-0.36,70.86,44.43,-540.22
383,1715374830140,0.25,-2.95,-0.36,70.86,44.43,-540.22
384,1715374830150,0.25,-2.95,-0.36,70.86,44.43,-540.22
385,1715374830160,0.235,-2.8225000000000002,-0.48,67.28999999999999,47.5275,-530.2425000000001
386,1715374830170,0.19,-2.44,-0.84,56.58,56.82,-500.31
387,1715374830180,0.19,-2.44,-0.84,56.58,56.82,-500.31
388,1715374830190,0.1875,-2.395,-0.86,50.559999999999995,58.50625,-498.64625
389,1715374830200,0.18,-2.26,-0.92,8.42,70.31,-487.0
390,1715374830210,0.18,-2.26,-0.92,8.42,70.31,-487.0
391,1715374830220,0.18,-2.26,-0.92,8.42,70.31,-487.0
392,1715374830230,-0.19714285714285712,-1.9485714285714284,-0.9371428571428572,17.697142857142858,94.0442857142857,-443.7514285714286
393,1715374830240,-1.14,-1.17,-0.98,40.89,153.38,-335.63
394,1715374830250,-1.14,-1.17,-0.98,40.89,153.38,-335.63
395,1715374830260,-1.14,-1.17,-0.9799999999999999,40.89,153.37999999999997,-335.63
396,1715374830270,-1.9100000000000001,-0.355,-0.845,27.86,133.9875,-306.775
397,1715374830280,-2.68,0.46,-0.71,-11.23,75.81,-220.21
398,1715374830290,-2.68,0.46,-0.71,-11.23,75.81000000000002,-220.21
399,1715374830300,-2.68,0.46,-0.71,-11.23,75.81,-220.21
400,1715374830310,-3.5300000000000002,0.51,-0.20375,-53.305,-52.902499999999996,-228.26
401,1715374830320,-4.04,0.54,0.1,-78.55,-130.13,-233.09
402,1715374830330,-4.04,0.54,0.1,-78.55,-130.13,-233.09
403,1715374830340,-4.04,0.54,0.1,-78.55,-130.13,-233.09
404,1715374830350,-4.61,0.64,0.2,35.9375,-92.96,-12.860000000000003
405,1715374830360,-4.61,0.64,0.2,74.1,-80.57,60.55
406,1715374830370,-4.61,0.64,0.2,74.1,-80.57000000000001,60.55
407,1715374830380,-4.5600000000000005,0.67875,0.17750000000000002,74.19874999999999,-89.51875,78.57
408,1715374830390,-4.21,0.95,0.02,74.89,-152.16,204.71
409,1715374830400,-4.21,0.95,0.02,74.89,-152.16,204.71
410,1715374830410,-4.21,0.95,0.02,74.89,-152.16,204.71
411,1715374830420,-4.0575,0.77625,-0.01625,77.8425,-174.89625,218.90875
412,1715374830430,-2.99,-0.44,-0.27,98.51,-334.05,318.3
413,1715374830440,-2.9899999999999998,-0.44,-0.27,98.51,-334.05,318.3
414,1715374830450,-2.99,-0.44,-0.27,98.51,-334.05,318.3
415,1715374830460,-2.5625,-0.9750000000000001,-0.6575,122.8775,-340.9775,368.3325
416,1715374830470,-1.28,-2.58,-1.82,195.98,-361.76,518.43
417,1715374830480,-1.28,-2.5800000000000005,-1.82,195.98,-361.75999999999993,518.43
418,1715374830490,-1.28,-2.58,-1.82,195.98,-361.76,518.43
419,1715374830500,-1.07,-2.7671428571428573,-1.9414285714285715,191.97857142857143,-365.76142857142855,517.7857142857142
420,1715374830510,0.19,-3.89,-2.67,167.97,-389.77,513.92
421,1715374830520,0.19,-3.89,-2.67,167.97,-389.77,513.92
422,1715374830530,0.19,-3.89,-2.67,167.97,-389.77,513.92
423,1715374830540,1.09,-4.39,-2.27,185.49428571428572,-329.76571428571424,523.52
424,1715374830550,1.45,-4.59,-2.11,208.86,-249.76,536.32
425,1715374830560,1.45,-4.59,-2.11,208.86,-249.76,536.32
426,1715374830570,1.45,-4.589999999999999,-2.11,208.85999999999999,-249.76,536.32
427,1715374830580,1.2625,-3.8025,-1.7574999999999998,139.4625,-222.475,470.995
428,1715374830590,1.2,-3.54,-1.64,116.33,-213.37999999999997,449.21999999999997
429,1715374830600,1.2,-3.54,-1.64,116.33,-213.38,449.22
430,1715374830610,1.2,-3.54,-1.64,116.33,-213.38,449.22
431,1715374830620,1.3,-3.39,-0.6114285714285714,101.2942857142857,-178.5442857142857,324.3128571428571
432,1715374830630,1.34,-3.33,-0.2,95.28,-164.61,274.35
433,1715374830640,1.34,-3.33,-0.2,95.28,-164.61,274.35
434,1715374830650,1.34,-3.3300000000000005,-0.2,95.28,-164.60999999999999,274.35
435,1715374830660,0.6950000000000001,-2.385,-0.2225,133.365,-111.7425,293.9475
436,1715374830670,0.48,-2.07,-0.23,146.06,-94.12,300.48
437,1715374830680,0.48,-2.07,-0.23,146.06,-94.12,300.48
438,1715374830690,0.48,-2.07,-0.23,146.06,-94.12,300.48
439,1715374830700,0.50625,-2.20125,0.049999999999999996,131.36875,-143.09375,272.12125
440,1715374830710,0.51,-2.22,0.09,129.27,-150.09,268.07
441,1715374830720,0.51,-2.22,0.09,129.27,-150.09,268.07
442,1715374830730,0.51,-2.22,0.09,129.27,-150.09,268.07
443,1715374830740,0.51,-2.22,0.09,129.27,-150.09,268.07
444,1715374830750,0.77,-2.0700000000000003,-0.16500000000000004,159.1175,-145.35750000000002,275.8825
445,1715374830760,1.55,-1.6199999999999999,-0.93,248.66,-131.16,299.32
446,1715374830770,1.55,-1.62,-0.93,248.66,-131.16,299.32
447,1715374830780,2.39375,-1.60125,-1.8050000000000002,191.1725,-58.7225,313.23875
448,1715374830790,2.9,-1.59,-2.33,156.68,-15.26,321.59
449,1715374830800,2.9,-1.59,-2.3300000000000005,156.68,-15.26,321.59
450,1715374830810,2.9,-1.59,-2.33,156.68,-15.26,321.59
451,1715374830820,2.9,-1.59,-2.33,156.68,-15.26,321.59
452,1715374830830,2.9,-1.59,-2.33,156.68,-15.26,321.59
453,1715374830840,3.99,-2.185,-2.7350000000000003,163.055,103.18,352.565
454,1715374830850,4.938571428571429,-2.8228571428571425,-3.315714285714286,72.12285714285714,159.04857142857145,180.32
455,1715374830860,4.75,-2.88,-3.55,-57.62,75.62,-90.64
456,1715374830870,4.75,-2.88,-3.55,-57.62,75.62,-90.64
457,1715374830880,4.75,-2.88,-3.55,-57.62,75.62,-90.64
458,1715374830890,4.06375,-3.3337499999999998,-3.0774999999999997,-75.54124999999999,113.77625,-172.80625
459,1715374830900,2.9199999999999995,-4.09,-2.29,-105.41,177.37000000000003,-309.75
460,1715374830910,2.92,-4.09,-2.29,-105.41,177.37,-309.75
461,1715374830920,2.92,-4.09,-2.29,-105.41,177.37,-309.75
462,1715374830930,2.31,-4.0649999999999995,-1.77,-64.73,234.195,-289.245
463,1715374830940,1.7,-4.04,-1.25,-24.05,291.02,-268.74
464,1715374830950,1.7,-4.04,-1.25,-24.05,291.02,-268.74
465,1715374830960,1.7,-4.04,-1.25,-24.05,291.02,-268.74
466,1715374830970,0.995,-3.4775,-0.7775,27.5425,234.2075,-355.395
467,1715374830980,0.76,-3.29,-0.62,44.74,215.27,-384.28000000000003
468,1715374830990,0.76,-3.29,-0.62,44.74,215.27,-384.28
469,1715374831000,0.76,-3.29,-0.62,44.74,215.27,-384.28
470,1715374831010,0.33125000000000004,-2.66875,-0.48874999999999996,99.4275,194.17374999999998,-394.6925
471,1715374831020,0.27,-2.5800000000000005,-0.47000000000000003,107.24,191.16,-396.18
472,1715374831030,0.27,-2.58,-0.47,107.24,191.16,-396.18
473,1715374831040,0.27,-2.58,-0.47,107.24,191.16,-396.18
474,1715374831050,0.051250000000000004,-2.3525,-0.5662499999999999,125.60624999999999,161.41875,-444.83
475,1715374831060,0.02,-2.32,-0.58,128.23,157.17,-451.78000000000003
476,1715374831070,0.02,-2.32,-0.58,128.23,157.17,-451.78
477,1715374831080,-0.03,-2.3049999999999997,-0.6025,128.23,157.17,-451.78
478,1715374831090,-0.18,-2.26,-0.67,87.52,126.89,-497.62
479,1715374831100,-0.18,-2.26,-0.67,87.52,126.89,-497.62
480,1715374831110,-0.155,-2.2624999999999997,-0.70375,79.0975,124.31875,-497.97875
481,1715374831120,0.02,-2.28,-0.94,20.14,106.32,-500.49
482,1715374831130,0.02,-2.28,-0.94,20.14,106.32,-500.49
483,1715374831140,0.02,-2.28,-0.9400000000000001,20.140000000000004,106.32000000000001,-500.49000000000007
484,1715374831150,0.20500000000000002,-2.3449999999999998,-0.9724999999999999,-26.720000000000002,84.5925,-534.715
485,1715374831160,0.76,-2.54,-1.07,-167.3,19.41,-637.39
486,1715374831170,0.76,-2.54,-1.07,-167.3,19.41,-637.39
487,1715374831180,0.76,-2.54,-1.07,-167.3,19.41,-637.39
488,1715374831190,0.59,-2.62,-1.09,-161.3625,62.5925,-604.4625
489,1715374831200,0.42,-2.7,-1.11,-143.55,192.14000000000001,-505.68
490,1715374831210,0.42,-2.7,-1.11,-143.55,192.14,-505.68
491,1715374831220,0.42,-2.7,-1.11,-143.55,192.14,-505.68
492,1715374831230,0.35714285714285715,-2.5742857142857143,-1.0914285714285714,-133.28857142857143,205.14000000000001,-477.7857142857143
493,1715374831240,-0.02,-1.82,-0.98,-71.72,283.14,-310.42
494,1715374831250,-0.02,-1.82,-0.98,-71.72,283.14,-310.42
495,1715374831260,-0.02,-1.82,-0.9799999999999999,-71.72,283.14,-310.42
496,1715374831270,-1.2125000000000001,-1.01,-0.8,-74.64500000000001,264.6,-312.67
497,1715374831280,-1.61,-0.74,-0.74,-75.62,258.42,-313.42
498,1715374831290,-1.61,-0.74,-0.74,-75.62,258.42,-313.42
499,1715374831300,-1.61,-0.74,-0.74,-75.62,258.42,-313.42
500,1715374831310,-4.2524999999999995,-0.31125,0.12625,-120.75500000000001,111.1125,-354.8425
501,1715374831320,-4.63,-0.25,0.25,-135.8,62.01,-368.65
502,1715374831330,-4.63,-0.25,0.25,-135.8,62.01,-368.65
503,1715374831340,-4.63,-0.25,0.25,-135.8,62.01,-368.65
504,1715374831350,-5.88,-1.23,1.61,16.66,14.16,-8.36
505,1715374831360,-5.88,-1.23,1.61,16.66,14.16,-8.36
506,1715374831370,-5.88,-1.23,1.61,16.66,14.16,-8.36
507,1715374831380,-5.65,-1.2675,1.5050000000000001,79.03750000000001,-32.075,39.66
508,1715374831390,-4.96,-1.38,1.19,266.17,-170.78,183.72
509,1715374831400,-4.96,-1.3800000000000001,1.19,266.17,-170.78,183.72
510,1715374831410,-4.96,-1.38,1.19,266.17,-170.78,183.72
511,1715374831420,-4.30375,-1.91625,0.6124999999999999,360.86125,-206.46125,247.0275
512,1715374831430,-3.21,-2.81,-0.35,518.68,-265.93,352.54
513,1715374831440,-3.21,-2.81,-0.35,518.68,-265.93,352.54
514,1715374831450,-3.21,-2.81,-0.35,518.68,-265.93,352.54
515,1715374831460,-1.3912499999999999,-3.8225,-1.7625,611.27,-191.74,573.79
516,1715374831470,-0.3,-4.43,-2.61,703.86,-117.55,795.04
517,1715374831480,-0.3,-4.43,-2.61,703.86,-117.55,795.04
518,1715374831490,-0.3,-4.43,-2.61,703.86,-117.55,795.04
519,1715374831500,0.3285714285714286,-4.247142857142857,-2.5014285714285713,424.94571428571425,-148.76714285714283,727.102857142857
520,1715374831510,0.8,-4.11,-2.42,215.76,-172.18,676.15
521,1715374831520,0.8,-4.11,-2.42,215.76,-172.18,676.15
522,1715374831530,0.8,-4.11,-2.42,215.76,-172.18,676.15
523,1715374831540,1.5585714285714285,-4.585714285714286,-1.5757142857142856,182.51142857142855,-259.91285714285715,536.1014285714285
524,1715374831550,2.57,-5.22,-0.45,138.18,-376.89,349.37
525,1715374831560,2.57,-5.22,-0.45,138.18,-376.89,349.37
526,1715374831570,2.57,-5.22,-0.45,138.18,-376.89,349.37
527,1715374831580,1.94,-3.7125,-0.6075,265.44,10.1475,502.99250000000006
528,1715374831590,1.73,-3.21,-0.66,307.86,139.16,554.2
529,1715374831600,1.73,-3.21,-0.66,307.86,139.16,554.2
530,1715374831610,1.73,-3.21,-0.66,307.86,139.16,554.2
531,1715374831620,0.82,-2.42,-0.19,150.82,110.6,427.67
532,1715374831630,0.82,-2.42,-0.19,150.82,110.6,427.67
533,1715374831640,0.82,-2.42,-0.19,150.82,110.6,427.67
534,1715374831650,0.7871428571428571,-2.38,-0.17142857142857143,146.0242857142857,118.47285714285714,427.4357142857143
535,1715374831660,0.59,-2.14,-0.06,117.25,165.71,426.03
536,1715374831670,0.59,-2.14,-0.06,117.25,165.71,426.03
537,1715374831680,0.59,-2.14,-0.06,117.25,165.71,426.03
538,1715374831690,0.4785714285714286,-2.067142857142857,-0.008571428571428572,82.48428571428572,196.57571428571427,444.07714285714286
539,1715374831700,0.33,-1.97,0.06,36.13,237.73,468.14
540,1715374831710,0.33,-1.97,0.06,36.13,237.73,468.14
541,1715374831720,0.33,-1.97,0.06,36.13,237.73,468.14
542,1715374831730,0.645,-1.875,0.08499999999999999,38.07625,217.58875,460.38124999999997
543,1715374831740,0.96,-1.78,0.11,41.32,184.02,447.45
544,1715374831750,0.96,-1.78,0.11,41.32,184.02,447.45
545,1715374831760,0.96,-1.78,0.11,41.32,184.02,447.45
546,1715374831770,2.145,-2.635,-0.7825000000000001,-36.925,70.77000000000001,394.195
547,1715374831780,2.54,-2.9199999999999995,-1.08,-115.17,-42.48,340.94
548,1715374831790,2.54,-2.92,-1.08,-115.17,-42.48,340.94
549,1715374831800,2.54,-2.92,-1.08,-115.17,-42.48,340.94
550,1715374831810,2.54,-2.9199999999999995,-1.08,-115.17,-42.48,340.94
551,1715374831820,4.39625,-4.12,-1.03,-30.1825,-99.0925,170.84625
552,1715374831830,5.51,-4.839999999999999,-1.0,20.81,-133.06,68.79
553,1715374831840,5.51,-4.84,-1.0,20.81,-133.06,68.79
554,1715374831850,4.355,-3.88625,-1.98,17.45,-98.61125,-223.60875
555,1715374831860,4.19,-3.75,-2.12,16.97,-93.69,-265.38
556,1715374831870,4.19,-3.75,-2.12,16.97,-93.69,-265.38
557,1715374831880,3.925714285714286,-3.8414285714285716,-2.0100000000000002,22.707142857142856,-47.25142857142857,-256.81714285714287
558,1715374831890,2.34,-4.39,-1.35,57.13,231.38,-205.44
559,1715374831900,2.34,-4.39,-1.35,57.13,231.38,-205.44
560,1715374831910,2.34,-4.39,-1.35,57.13,231.38,-205.44
561,1715374831920,2.025714285714286,-4.347142857142857,-1.0842857142857143,59.047142857142866,198.4742857142857,-254.48
562,1715374831930,1.24,-4.24,-0.42,63.84,116.21,-377.08
563,1715374831940,1.24,-4.24,-0.42,63.84,116.21,-377.08
564,1715374831950,1.24,-4.24,-0.42,63.839999999999996,116.21,-377.08
565,1715374831960,1.18875,-4.15125,-0.37,70.66125,113.29625,-380.97749999999996
566,1715374831970,0.83,-3.53,-0.02,118.41,92.9,-408.26
567,1715374831980,0.83,-3.53,-0.02,118.41,92.9,-408.25999999999993
568,1715374831990,0.83,-3.53,-0.02,118.41,92.9,-408.26
569,1715374832000,0.83,-3.53,-0.02,118.41,92.9,-408.26
570,1715374832010,0.525,-3.21,-0.095,145.995,78.74000000000001,-428.71000000000004
571,1715374832020,0.22,-2.89,-0.17,173.58,64.58,-449.16
572,1715374832030,0.22,-2.89,-0.17,173.58,64.58,-449.16
573,1715374832040,-0.1025,-2.6575,-0.1925,166.38,44.1,-482.88
574,1715374832050,-0.21,-2.58,-0.2,159.18,23.62,-516.6
575,1715374832060,-0.21,-2.5800000000000005,-0.2,159.18,23.62,-516.6
576,1715374832070,-0.21,-2.58,-0.2,159.18,23.62,-516.6
577,1715374832080,-0.46714285714285714,-2.46,-0.20857142857142857,144.21428571428572,47.32,-482.1771428571428
578,1715374832090,-0.51,-2.44,-0.21,141.72,51.27,-476.44
579,1715374832100,-0.51,-2.44,-0.21,141.72,51.27,-476.44
580,1715374832110,-0.51,-2.44,-0.21,141.72,51.27,-476.44
581,1715374832120,-0.51,-2.44,-0.21,141.72,51.27,-476.44
582,1715374832130,-0.36,-2.5300000000000002,-0.11499999999999999,114.59,30.305,-473.115
583,1715374832140,-0.21,-2.62,-0.02,87.46,9.34,-469.79
584,1715374832150,-0.10999999999999999,-2.642857142857143,-0.05142857142857143,84.6,13.847142857142858,-464.88000000000005
585,1715374832160,0.14,-2.7,-0.13,67.44,40.89,-435.42
586,1715374832170,0.14,-2.7,-0.13,67.44,40.89,-435.42
587,1715374832180,0.14,-2.7,-0.13,67.44,40.89,-435.42
588,1715374832190,0.1325,-2.6550000000000002,-0.19,55.334999999999994,47.32125,-432.49125000000004
589,1715374832200,0.12,-2.58,-0.29,35.16,58.04,-427.61
590,1715374832210,0.12,-2.5800000000000005,-0.29,35.16,58.04,-427.61
591,1715374832220,0.12,-2.58,-0.29,35.16,58.04,-427.61
592,1715374832230,-0.05142857142857143,-2.1085714285714285,-0.5257142857142857,10.701428571428568,32.90428571428571,-445.92285714285714
593,1715374832240,-0.12,-1.92,-0.62,-21.91,-0.61,-470.34
594,1715374832250,-0.12,-1.92,-0.62,-21.91,-0.61,-470.34
595,1715374832260,-0.12,-1.92,-0.62,-21.91,-0.61,-470.34
596,1715374832270,-1.0474999999999999,-1.1325,-0.82125,-130.97,-50.59875,-525.66625
597,1715374832280,-1.18,-1.02,-0.85,-146.55,-57.74,-533.57
598,1715374832290,-1.18,-1.02,-0.85,-146.55,-57.74,-533.57
599,1715374832300,-1.18,-1.02,-0.85,-146.55,-57.74,-533.57
600,1715374832310,-4.26875,0.14375,0.03375,-123.1,36.357499999999995,-399.52
601,1715374832320,-4.71,0.31,0.16,-119.75,49.8,-380.37
602,1715374832330,-4.71,0.31,0.16,-119.75,49.8,-380.37
603,1715374832340,-4.927142857142857,0.33571428571428574,0.25,-108.74571428571429,46.888571428571424,-325.6385714285715
604,1715374832350,-6.23,0.49,0.79,-42.72,29.42,2.75
605,1715374832360,-6.23,0.49,0.79,-42.72,29.42,2.75
606,1715374832370,-6.23,0.49,0.79,-42.72,29.42,2.75
607,1715374832380,-5.978571428571429,0.2957142857142857,0.7185714285714286,-11.714285714285714,-24.134285714285717,66.45285714285714
608,1715374832390,-5.35,-0.19,0.54,65.8,-158.02,225.71
609,1715374832400,-5.35,-0.19,0.54,65.8,-158.02,225.71
610,1715374832410,-5.35,-0.19,0.54,65.8,-158.02,225.71
611,1715374832420,-4.632499999999999,-0.5125,0.11250000000000004,100.5125,-163.94,294.115
612,1715374832430,-2.48,-1.48,-1.17,204.65,-181.7,499.33
613,1715374832440,-2.48,-1.48,-1.17,204.65,-181.7,499.33
614,1715374832450,-2.48,-1.48,-1.17,204.65,-181.7,499.33
615,1715374832460,-1.45625,-2.0875,-1.3912499999999999,172.44,-206.26749999999998,501.5275
616,1715374832470,0.25,-3.1,-1.76,75.81,-279.97,508.12
617,1715374832480,0.25,-3.1,-1.76,75.81000000000002,-279.97,508.12
618,1715374832490,0.25,-3.1,-1.76,75.81,-279.97,508.12
619,1715374832500,0.975,-3.55625,-1.5037500000000001,89.9975,-253.98875,491.67625
620,1715374832510,1.41,-3.8300000000000005,-1.35,98.51,-238.4,481.81
621,1715374832520,1.41,-3.83,-1.35,98.51,-238.4,481.81
622,1715374832530,1.41,-3.83,-1.35,98.51,-238.4,481.81
623,1715374832540,1.5814285714285714,-3.572857142857143,-1.0142857142857145,112.24571428571429,-121.38571428571429,515.0742857142857
624,1715374832550,1.65,-3.47,-0.88,117.74,-74.58,528.38
625,1715374832560,1.65,-3.47,-0.88,117.74,-74.58,528.38
626,1715374832570,1.65,-3.47,-0.88,117.74,-74.58,528.38
627,1715374832580,1.065,-3.005,-0.5725,69.8075,-97.42500000000001,449.735
628,1715374832590,0.87,-2.85,-0.47,53.83,-105.04,423.52
629,1715374832600,0.87,-2.85,-0.47,53.83,-105.04,423.52
630,1715374832610,0.87,-2.85,-0.47,53.83,-105.04,423.52
631,1715374832620,0.48,-2.6699999999999995,-0.22,46.715714285714284,-110.43142857142857,426.6657142857143
632,1715374832630,0.48,-2.67,-0.22,45.53,-111.33,427.19
633,1715374832640,0.48,-2.67,-0.22,45.53,-111.33,427.19
634,1715374832650,0.4775,-2.67125,-0.2275,45.53,-111.33,427.19
635,1715374832660,0.46,-2.68,-0.28,61.83,-68.42,445.07
636,1715374832670,0.46,-2.68,-0.28,61.83,-68.42,445.07
637,1715374832680,0.46,-2.68,-0.28,61.83,-68.42,445.07
638,1715374832690,0.46,-2.68,-0.28,61.83,-68.42,445.07
639,1715374832700,0.86,-2.86,-0.08,65.67,26.49,532.41
640,1715374832710,0.86,-2.86,-0.08,65.67,26.49,532.41
641,1715374832720,0.86,-2.86,-0.08,65.67,26.49,532.41
642,1715374832730,1.44,-2.57,-0.195,72.035,12.575,508.36249999999995
643,1715374832740,2.02,-2.28,-0.31,91.13,-29.17,436.22
644,1715374832750,2.02,-2.28,-0.31,91.13,-29.17,436.22
645,1715374832760,2.02,-2.28,-0.31,91.13,-29.17,436.22
646,1715374832770,3.4085714285714284,-2.217142857142857,-0.9728571428571428,43.69571428571429,-74.0957142857143,318.82000000000005
647,1715374832780,4.45,-2.17,-1.47,8.12,-107.79,230.77
648,1715374832790,4.45,-2.17,-1.47,8.12,-107.79,230.77
649,1715374832800,4.45,-2.17,-1.47,8.12,-107.79,230.77
650,1715374832810,5.8999999999999995,-2.12,-1.98875,5.8325,-49.615,89.32625
651,1715374832820,6.77,-2.09,-2.3,4.46,-14.71,4.46
652,1715374832830,6.7700000000000005,-2.09,-2.3,4.46,-14.709999999999999,4.46
653,1715374832840,6.77,-2.09,-2.3,4.46,-14.71,4.46
654,1715374832850,5.765,-3.125,-2.1950000000000003,-55.51,97.0775,-158.05
655,1715374832860,5.43,-3.47,-2.16,-75.5,134.34,-212.22
656,1715374832870,5.43,-3.47,-2.16,-75.5,134.34,-212.22
657,1715374832880,5.43,-3.47,-2.16,-75.5,134.34,-212.22
658,1715374832890,2.9274999999999998,-4.5025,-1.1275,-45.5925,281.0425,-258.47249999999997
659,1715374832900,2.57,-4.65,-0.98,-41.32,302.0,-265.08
660,1715374832910,2.57,-4.65,-0.98,-41.32,302.0,-265.08
661,1715374832920,2.57,-4.65,-0.9799999999999999,-41.32,302.0,-265.08
662,1715374832930,1.7374999999999998,-4.282500000000001,-0.515,-16.9225,254.645,-305.4525
663,1715374832940,1.46,-4.16,-0.36,23.74,175.72,-372.74
664,1715374832950,1.4599999999999997,-4.16,-0.36,23.74,175.72,-372.74000000000007
665,1715374832960,1.3975,-4.03625,-0.34625,23.74,175.72,-372.74
666,1715374832970,0.96,-3.17,-0.25,53.04,99.98,-408.33
667,1715374832980,0.96,-3.17,-0.25,53.04,99.98,-408.33
668,1715374832990,0.96,-3.17,-0.25,53.04,99.98,-408.33
669,1715374833000,0.8085714285714286,-2.9557142857142855,-0.2814285714285714,53.04,99.98,-408.33
670,1715374833010,0.43,-2.4199999999999995,-0.36,88.07000000000001,72.33,-449.16
671,1715374833020,0.43,-2.42,-0.36,88.07,72.33,-449.16
672,1715374833030,0.43,-2.42,-0.36,88.07,72.33,-449.16
673,1715374833040,0.2714285714285714,-2.257142857142857,-0.4114285714285714,78.28714285714285,63.99285714285714,-461.28000000000003
674,1715374833050,0.06,-2.04,-0.48,53.83,43.15,-491.58
675,1715374833060,0.06,-2.04,-0.48,53.83,43.15,-491.58
676,1715374833070,0.06,-2.04,-0.48,53.83,43.15,-491.58
677,1715374833080,0.14142857142857143,-2.044285714285714,-0.44571428571428573,49.199999999999996,50.44,-485.79857142857145
678,1715374833090,0.25,-2.05,-0.4,21.42,94.18,-451.11
679,1715374833100,0.25,-2.05,-0.4,21.42,94.18,-451.11
680,1715374833110,0.25,-2.05,-0.4,21.42,94.18,-451.11
681,1715374833120,0.1985714285714286,-2.0100000000000002,-0.42857142857142855,24.802857142857142,142.38000000000002,-420.3157142857143
682,1715374833130,0.16,-1.98,-0.45,27.34,178.53,-397.22
683,1715374833140,0.16,-1.98,-0.45,27.34,178.53,-397.22
684,1715374833150,0.16,-1.98,-0.45,27.34,178.53,-397.21999999999997
685,1715374833160,0.16,-1.98,-0.5399999999999999,12.01,160.5375,-390.02750000000003
686,1715374833170,0.16,-1.98,-0.57,6.9,154.54,-387.63
687,1715374833180,0.16,-1.98,-0.57,6.9,154.54,-387.63
688,1715374833190,0.16,-1.98,-0.57,6.9,154.54,-387.63
689,1715374833200,0.16875,-1.98875,-0.61375,-10.1125,143.70875,-367.7175
690,1715374833210,0.17,-1.99,-0.62,-20.32,137.21,-355.77
691,1715374833220,0.17,-1.99,-0.62,-20.32,137.21,-355.77
692,1715374833230,0.17,-1.99,-0.62,-20.32,137.21,-355.77
693,1715374833240,-0.27999999999999997,-1.6525,-0.65,-10.48,131.5775,-330.135
694,1715374833250,-0.43,-1.54,-0.66,-7.2,129.7,-321.59
695,1715374833260,-0.43,-1.5400000000000003,-0.66,-7.2,129.7,-321.59
696,1715374833270,-0.43,-1.54,-0.66,-7.2,129.7,-321.59
697,1715374833280,-0.43,-1.54,-0.66,-7.2,129.7,-321.59
698,1715374833290,-0.43,-1.54,-0.66,-7.2,129.7,-321.59
699,1715374833300,-1.3985714285714284,-0.6957142857142857,-0.75,-95.61428571428571,-41.505714285714284,-412.43857142857144
700,1715374833310,-2.9175,0.26249999999999996,-0.505,-213.97375,-261.4475,-500.23
701,1715374833320,-4.51,-0.91,2.05,-217.29,-203.12,-266.85
702,1715374833330,-4.51,-0.91,2.05,-217.29,-203.12000000000003,-266.85
703,1715374833340,-4.51,-0.91,2.05,-217.29,-203.12,-266.85
704,1715374833350,-4.8100000000000005,-1.0225,2.2562499999999996,-106.66874999999999,-179.25125,-122.76750000000001
705,1715374833360,-4.99,-1.09,2.38,77.7,-139.47,117.37
706,1715374833370,-4.99,-1.09,2.38,77.7,-139.47,117.37
707,1715374833380,-4.99,-1.09,2.38,77.7,-139.47,117.37
708,1715374833390,-4.667142857142857,-1.0814285714285714,1.9457142857142855,111.11142857142856,-197.1042857142857,122.13000000000001
709,1715374833400,-3.86,-1.06,0.86,194.64,-341.19,134.03
710,1715374833410,-3.86,-1.06,0.86,194.64,-341.19,134.03
711,1715374833420,-3.86,-1.06,0.86,194.64000000000001,-341.19,134.03
712,1715374833430,-1.87,-2.1,-1.05,331.4175,-342.28499999999997,212.45
713,1715374833440,-1.87,-2.1,-1.05,377.01,-342.65,238.59
714,1715374833450,-1.87,-2.1,-1.05,377.01,-342.65,238.59
715,1715374833460,-1.8699999999999999,-2.1,-1.05,377.00999999999993,-342.65,238.59
716,1715374833470,-0.22,-2.75,-3.14,406.95,-315.965,321.4875
717,1715374833480,-0.22,-2.75,-3.14,416.93,-307.07,349.12
718,1715374833490,-0.22,-2.75,-3.14,416.93,-307.07,349.12
719,1715374833500,-0.1075,-2.8025,-3.18,409.5375,-310.26625,347.9075
720,1715374833510,0.68,-3.1699999999999995,-3.46,357.79,-332.64,339.42
721,1715374833520,0.68,-3.17,-3.46,357.79,-332.64,339.42
722,1715374833530,0.68,-3.17,-3.46,357.79,-332.64,339.42
723,1715374833540,0.9257142857142858,-3.267142857142857,-3.2314285714285718,361.46000000000004,-300.0385714285714,362.7257142857143
724,1715374833550,1.54,-3.51,-2.66,383.48,-104.43,502.56
725,1715374833560,1.54,-3.51,-2.66,383.48,-104.43,502.56
726,1715374833570,1.5057142857142856,-3.412857142857143,-2.4857142857142853,373.34857142857146,-85.30142857142857,516.04
727,1715374833580,1.42,-3.1699999999999995,-2.05,348.02,-37.48,549.74
728,1715374833590,1.42,-3.17,-2.05,348.02,-37.48,549.74
729,1715374833600,1.42,-3.17,-2.05,348.02,-37.48,549.74
730,1715374833610,1.124285714285714,-3.0414285714285714,-1.7285714285714284,281.7628571428571,-75.64428571428572,473.57
731,1715374833620,0.73,-2.87,-1.3,193.42,-126.53,372.01
732,1715374833630,0.73,-2.87,-1.3,193.42,-126.53,372.01
733,1715374833640,0.7299999999999999,-2.87,-1.3,193.42,-126.53,372.00999999999993
734,1715374833650,0.6925,-2.8762499999999998,-0.9375,187.0725,-139.315,365.86
735,1715374833660,0.67,-2.88,-0.72,168.03,-177.67,347.41
736,1715374833670,0.67,-2.88,-0.72,168.03,-177.67,347.41
737,1715374833680,0.67,-2.88,-0.72,168.03,-177.67,347.41
738,1715374833690,0.9925,-2.685,-1.1025,230.78,-127.395,377.35375
739,1715374833700,1.1,-2.62,-1.23,268.43,-97.23,395.32
740,1715374833710,1.1,-2.62,-1.23,268.43,-97.23,395.32
741,1715374833720,1.1,-2.62,-1.23,268.43,-97.23,395.32
742,1715374833730,2.4212499999999997,-1.5699999999999998,-2.0175,218.02125,-123.1825,334.1225
743,1715374833740,2.61,-1.42,-2.13,210.82,-126.89,325.38
744,1715374833750,2.61,-1.42,-2.13,210.82,-126.89,325.38
745,1715374833760,2.61,-1.42,-2.13,210.82,-126.89,325.38
746,1715374833770,4.05,-1.09,-2.45,154.66285714285712,1.6314285714285706,294.46571428571434
747,1715374833780,4.05,-1.09,-2.45,132.2,53.04,282.1
748,1715374833790,4.05,-1.09,-2.45,132.2,53.04,282.1
749,1715374833800,4.05,-1.09,-2.45,132.2,53.04,282.1
750,1715374833810,7.19,-0.51,-5.55,45.1,-90.52,-20.32
751,1715374833820,7.19,-0.51,-5.55,45.1,-90.52,-20.32
752,1715374833830,7.19,-0.51,-5.55,45.1,-90.52,-20.32
753,1715374833840,6.09,-1.5025000000000002,-4.8675,-38.83749999999999,2.697500000000005,-59.2475
754,1715374833850,2.79,-4.48,-2.82,-290.65,282.35,-176.03
755,1715374833860,2.79,-4.48,-2.82,-290.65,282.35,-176.03
756,1715374833870,2.79,-4.48,-2.82,-290.65,282.35,-176.03
757,1715374833880,2.2125,-4.4125000000000005,-2.58,-193.12374999999997,363.12125000000003,-106.97375
758,1715374833890,1.25,-4.3,-2.18,-30.58,497.74,8.12
759,1715374833900,1.25,-4.3,-2.18,-30.580000000000002,497.74000000000007,8.12
760,1715374833910,1.25,-4.3,-2.18,-30.58,497.74,8.12
761,1715374833920,1.325,-4.115,-1.725,-5.294999999999998,450.82,-46.44499999999999
762,1715374833930,1.4,-3.93,-1.27,70.56,310.06,-210.14000000000001
763,1715374833940,1.4,-3.93,-1.27,70.56,310.06,-210.14000000000001
764,1715374833950,1.4,-3.93,-1.27,70.56,310.06,-210.14
765,1715374833960,1.11875,-3.3112500000000002,-1.13875,137.0475,293.31,-228.565
766,1715374833970,0.95,-2.94,-1.06,176.94,283.26,-239.62000000000003
767,1715374833980,0.95,-2.94,-1.06,176.94,283.26,-239.62
768,1715374833990,0.95,-2.94,-1.06,176.94,283.26,-239.62
769,1715374834000,0.635,-2.64,-0.9475,230.04000000000002,226.9125,-316.52500000000003
770,1715374834010,0.53,-2.54,-0.91,247.74,208.12999999999997,-342.16
771,1715374834020,0.53,-2.54,-0.91,247.74,208.13,-342.16
772,1715374834030,0.53,-2.54,-0.91,247.74,208.13,-342.16
773,1715374834040,-0.26,-2.22,-1.04,241.39000000000001,115.23,-483.52
774,1715374834050,-0.26,-2.22,-1.04,241.39,115.23,-483.52
775,1715374834060,-0.26,-2.22,-1.04,241.39,115.23,-483.52
776,1715374834070,-0.26,-2.22,-1.04,241.39000000000001,115.23,-483.52
777,1715374834080,-0.66,-2.12,-0.88,163.09,81.3,-466.13
778,1715374834090,-0.66,-2.12,-0.88,163.09,81.3,-466.13
779,1715374834100,-0.66,-2.12,-0.88,163.09,81.3,-466.13
780,1715374834110,-0.5925,-2.0225,-0.8275,157.9925,90.3475,-432.6675
781,1715374834120,-0.48,-1.86,-0.74,142.7,117.49,-332.28000000000003
782,1715374834130,-0.48,-1.86,-0.74,142.7,117.49,-332.28
783,1715374834140,-0.48,-1.86,-0.74,142.7,117.49,-332.28000000000003
784,1715374834150,-0.275,-1.78,-0.7949999999999999,118.80499999999999,106.35,-334.2
785,1715374834160,-0.07,-1.7,-0.85,94.91,95.21,-336.12
786,1715374834170,-0.07,-1.7,-0.85,94.91,95.21,-336.12
787,1715374834180,-0.07,-1.7,-0.85,94.91,95.21,-336.12
788,1715374834190,0.10142857142857144,-1.8928571428571428,-0.8928571428571429,62.36857142857143,91.62714285714286,-344.8328571428571
789,1715374834200,0.17,-1.97,-0.91,18.98,86.85,-356.45
790,1715374834210,0.17,-1.97,-0.91,18.98,86.85,-356.45
791,1715374834220,0.17,-1.97,-0.91,18.98,86.85,-356.45
792,1715374834230,0.07625,-1.73875,-0.96625,4.83,76.475,-393.41249999999997
793,1715374834240,0.02,-1.6,-1.0,-3.66,70.25,-415.59
794,1715374834250,0.02,-1.6,-1.0,-3.66,70.25,-415.59
795,1715374834260,0.02,-1.6,-1.0,-3.66,70.25,-415.59
796,1715374834270,-0.37,-1.09,-0.9400000000000001,-95.0775,-1.8474999999999993,-443.7375
797,1715374834280,-0.5,-0.92,-0.92,-125.55,-25.88,-453.12
798,1715374834290,-0.5,-0.92,-0.92,-125.55,-25.88,-453.12
799,1715374834300,-0.5,-0.92,-0.92,-125.55,-25.88,-453.12
800,1715374834310,-3.17,0.15,0.81,-175.54,53.34,-413.45
801,1715374834320,-3.1699999999999995,0.15,0.8099999999999999,-175.54,53.339999999999996,-413.45
802,1715374834330,-3.17,0.15,0.81,-175.54,53.34,-413.45
803,1715374834340,-3.925,0.1025,1.335,-157.9,-16.1025,-376.205
804,1715374834350,-6.19,-0.04,2.91,-104.98,-224.43,-264.47
805,1715374834360,-6.19,-0.04,2.91,-104.98,-224.43,-264.47
806,1715374834370,-6.19,-0.04,2.91,-104.98,-224.43,-264.47
807,1715374834380,-5.995,-0.1725,2.7375000000000003,-19.425,-215.38,-157.46000000000004
808,1715374834390,-5.41,-0.57,2.22,237.24,-188.23,163.57
809,1715374834400,-5.410000000000001,-0.57,2.22,237.24,-188.23,163.57
810,1715374834410,-5.41,-0.57,2.22,237.24,-188.23,163.57
811,1715374834420,-4.165,-0.845,0.925,288.19125,-223.68624999999997,216.5125
812,1715374834430,-2.9199999999999995,-1.12,-0.37,373.11,-282.78,304.75
813,1715374834440,-2.92,-1.12,-0.37,373.11,-282.78,304.75
814,1715374834450,-2.92,-1.12,-0.37,373.11,-282.78,304.75
815,1715374834460,-1.62625,-1.92625,-1.245,357.39125,-285.7925,352.6625
816,1715374834470,-0.85,-2.41,-1.77,347.96,-287.6,381.41
817,1715374834480,-0.85,-2.41,-1.77,347.96,-287.6,381.41
818,1715374834490,-0.85,-2.41,-1.77,347.96,-287.6,381.41
819,1715374834500,-0.04999999999999997,-2.8214285714285716,-2.0100000000000002,334.59999999999997,-226.70285714285714,421.3757142857143
820,1715374834510,0.55,-3.13,-2.19,324.58,-181.03,451.35
821,1715374834520,0.55,-3.13,-2.19,324.58,-181.03,451.35
822,1715374834530,0.55,-3.13,-2.19,324.58,-181.03,451.35
823,1715374834540,0.9550000000000001,-3.13,-1.9874999999999998,262.375,-125.6875,451.125
824,1715374834550,1.09,-3.13,-1.92,241.64000000000001,-107.24,451.05
825,1715374834560,1.09,-3.13,-1.92,241.64,-107.24,451.05
826,1715374834570,1.09,-3.13,-1.92,241.64,-107.24,451.05
827,1715374834580,0.8725,-3.07,-1.395,241.64,-107.24,451.05
828,1715374834590,0.8,-3.05,-1.22,212.13285714285712,-66.45714285714286,453.3
829,1715374834600,0.8,-3.05,-1.22,172.79,-12.08,456.3
830,1715374834610,0.8,-3.05,-1.22,172.79,-12.08,456.3
831,1715374834620,0.74375,-2.775,-0.77,147.38375,18.932499999999997,466.6375
832,1715374834630,0.71,-2.61,-0.5,132.14,37.54,472.84
833,1715374834640,0.71,-2.61,-0.5,132.14,37.54,472.84
834,1715374834650,0.71,-2.61,-0.5,132.14,37.54,472.84
835,1715374834660,0.71,-2.61,-0.5,132.14,37.54,472.84
836,1715374834670,0.485,-2.3225,-0.4375,110.66499999999999,10.79625,439.34625
837,1715374834680,0.35,-2.15,-0.4,97.78,-5.25,419.25
838,1715374834690,0.4014285714285714,-2.05,-0.4342857142857143,97.78,-5.25,419.25
839,1715374834700,0.53,-1.8,-0.52,72.0375,-53.8475,404.83
840,1715374834710,0.53,-1.8,-0.52,68.36,-60.79,402.77
841,1715374834720,0.53,-1.8,-0.52,68.36,-60.79,402.77
842,1715374834730,0.855,-1.76,-0.46,59.082499999999996,-43.685,410.3075
843,1715374834740,1.18,-1.72,-0.4,31.25,7.63,432.92
844,1715374834750,1.18,-1.72,-0.4,31.25,7.63,432.92
845,1715374834760,1.18,-1.72,-0.4,31.25,7.63,432.92
846,1715374834770,1.8657142857142854,-1.9257142857142857,-0.6114285714285714,34.878571428571426,24.024285714285718,409.02857142857147
847,1715374834780,2.38,-2.08,-0.77,37.6,36.32,391.11
848,1715374834790,2.38,-2.08,-0.77,37.6,36.32,391.11
849,1715374834800,2.38,-2.08,-0.77,37.6,36.32,391.11
850,1715374834810,3.4525,-2.98,-0.9650000000000001,-26.4425,72.02,305.96999999999997
851,1715374834820,3.81,-3.28,-1.03,-47.79,83.92,277.59
852,1715374834830,3.81,-3.28,-1.03,-47.79,83.92,277.59
853,1715374834840,3.81,-3.28,-1.03,-47.79,83.92,277.59
854,1715374834850,4.281428571428572,-4.908571428571428,-0.7642857142857142,-4.367142857142857,98.09714285714286,111.01285714285713
855,1715374834860,4.36,-5.18,-0.72,2.87,100.46,83.25
856,1715374834870,4.36,-5.18,-0.72,2.87,100.46,83.25
857,1715374834880,4.36,-5.18,-0.72,2.87,100.46,83.25
858,1715374834890,2.35,-5.43,-0.66,106.81000000000002,164.18,-203.98
859,1715374834900,2.35,-5.43,-0.66,106.81000000000002,164.18,-203.98
860,1715374834910,2.35,-5.43,-0.66,106.81,164.18,-203.98
861,1715374834920,2.1925,-5.2875,-0.63,117.01875,161.38,-210.59499999999997
862,1715374834930,1.09,-4.29,-0.42,188.48,141.78,-256.9
863,1715374834940,1.09,-4.29,-0.42,188.48,141.78,-256.9
864,1715374834950,1.09,-4.29,-0.42,188.48,141.78,-256.9
865,1715374834960,1.03875,-4.1725,-0.4275,195.81875,134.46375,-267.085
866,1715374834970,0.68,-3.35,-0.48,247.19,83.25,-338.38
867,1715374834980,0.68,-3.35,-0.48,247.19,83.25,-338.38
868,1715374834990,0.68,-3.35,-0.48,247.19,83.25,-338.38
869,1715374835000,0.5971428571428572,-3.255714285714286,-0.4757142857142857,246.35285714285715,74.42571428571429,-356.9428571428571
870,1715374835010,0.1,-2.69,-0.45,241.33,21.48,-468.32
871,1715374835020,0.1,-2.69,-0.45,241.33,21.48,-468.32
872,1715374835030,0.1,-2.69,-0.45,241.33,21.48,-468.32
873,1715374835040,-0.185,-2.55,-0.515,236.28,15.1475,-488.2175
874,1715374835050,-0.47,-2.41,-0.58,221.13,-3.85,-547.91
875,1715374835060,-0.47000000000000003,-2.41,-0.58,221.12999999999997,-3.85,-547.91
876,1715374835070,-0.47,-2.41,-0.58,221.13,-3.85,-547.91
877,1715374835080,-0.5557142857142857,-2.4499999999999997,-0.5342857142857143,205.04999999999998,4.732857142857142,-528.1728571428572
878,1715374835090,-0.62,-2.48,-0.5,192.99,11.17,-513.37
879,1715374835100,-0.62,-2.48,-0.5,192.99,11.17,-513.37
880,1715374835110,-0.6057142857142858,-2.4085714285714284,-0.5199999999999999,198.99,17.884285714285713,-493.4357142857143
881,1715374835120,-0.57,-2.23,-0.57,213.99,34.67,-443.6
882,1715374835130,-0.57,-2.23,-0.57,213.99,34.67,-443.6
883,1715374835140,-0.57,-2.23,-0.57,213.99,34.67,-443.6
884,1715374835150,-0.29,-1.95875,-0.56125,105.04375,-25.73125,-485.15375
885,1715374835160,-0.25,-1.92,-0.56,89.48,-34.36,-491.09
886,1715374835170,-0.25,-1.92,-0.56,89.48,-34.36,-491.09
887,1715374835180,-0.25,-1.92,-0.56,89.48,-34.36,-491.09
888,1715374835190,0.04,-2.0,-0.47,15.44,10.01,-442.87
889,1715374835200,0.04,-2.0,-0.47000000000000003,15.44,10.01,-442.87
890,1715374835210,0.04,-2.0,-0.47,15.44,10.01,-442.87
891,1715374835220,0.015,-1.95625,-0.485,15.341249999999999,21.354999999999997,-433.585
892,1715374835230,-0.16,-1.65,-0.59,14.65,100.77,-368.59
893,1715374835240,-0.16,-1.65,-0.59,14.65,100.77,-368.59
894,1715374835250,-0.16,-1.65,-0.59,14.65,100.77,-368.59
895,1715374835260,-0.28,-1.3125,-0.6425,-15.815000000000001,75.73125,-373.9225
896,1715374835270,-0.48,-0.75,-0.73,-66.59,34.0,-382.81
897,1715374835280,-0.48,-0.75,-0.7299999999999999,-66.59,34.0,-382.81
898,1715374835290,-0.48,-0.75,-0.73,-66.59,34.0,-382.81
899,1715374835300,-1.05,-0.49,-0.48,-95.75,59.97625,-376.9525
900,1715374835310,-1.6199999999999999,-0.23,-0.23,-144.35,103.27,-367.19
901,1715374835320,-1.62,-0.23,-0.23,-144.35,103.27,-367.19
902,1715374835330,-1.62,-0.23,-0.23,-144.35,103.27,-367.19
903,1715374835340,-4.26,0.61,-0.26,-60.84375,200.31375000000003,-210.29
904,1715374835350,-5.14,0.89,-0.27,-10.74,258.54,-116.15
905,1715374835360,-5.14,0.89,-0.27,-10.74,258.54,-116.15
906,1715374835370,-5.14,0.89,-0.27,-10.74,258.54,-116.15
907,1715374835380,-5.14,0.89,-0.27,-10.74,258.54,-116.15
908,1715374835390,-5.011428571428572,1.2842857142857143,-0.5357142857142857,80.02285714285715,-12.08571428571428,-10.052857142857144
909,1715374835400,-4.99,1.35,-0.58,95.15,-57.19,7.63
910,1715374835410,-4.99,1.35,-0.58,95.15,-57.19,7.63
911,1715374835420,-4.28125,1.245,-1.1225,118.60000000000001,-96.60000000000001,219.3275
912,1715374835430,-4.18,1.23,-1.2,121.95,-102.23,249.57
913,1715374835440,-4.18,1.23,-1.2,121.95,-102.23,249.57
914,1715374835450,-3.9085714285714284,0.9928571428571429,-1.2657142857142856,106.30714285714285,-113.9057142857143,279.9485714285714
915,1715374835460,-2.28,-0.43,-1.66,12.45,-183.96,462.22
916,1715374835470,-2.28,-0.43,-1.66,12.45,-183.96,462.22
917,1715374835480,-2.28,-0.43,-1.66,12.45,-183.96,462.21999999999997
918,1715374835490,-2.0349999999999997,-0.7437499999999999,-1.62375,1.5399999999999991,-183.96,478.93625000000003
919,1715374835500,-0.32,-2.94,-1.37,-74.83,-183.96,595.95
920,1715374835510,-0.32,-2.94,-1.37,-74.83,-183.96,595.95
921,1715374835520,-0.32,-2.94,-1.3699999999999999,-74.83,-183.96,595.95
922,1715374835530,-0.17250000000000001,-3.09,-1.2962500000000001,-76.6075,-176.39125,594.6600000000001
923,1715374835540,0.86,-4.14,-0.78,-89.05,-123.41,585.63
924,1715374835550,0.86,-4.14,-0.78,-89.05,-123.41,585.63
925,1715374835560,0.86,-4.14,-0.78,-89.05,-123.41,585.63
926,1715374835570,0.94,-3.995,-0.365,-77.285,-93.945,568.0225
927,1715374835580,1.02,-3.85,0.05,-41.99,-5.55,515.2
928,1715374835590,1.02,-3.85,0.05,-41.99,-5.55,515.2
929,1715374835600,1.02,-3.85,0.05,-41.99,-5.55,515.2
930,1715374835610,0.4275,-3.1525,0.1925,-53.925,5.25,471.225
931,1715374835620,0.23,-2.9199999999999995,0.24,-65.86,16.05,427.25
932,1715374835630,0.23,-2.92,0.24,-65.86,16.05,427.25
933,1715374835640,0.23,-2.9199999999999995,0.24,-65.86,16.05,427.25
934,1715374835650,-0.07,-2.4925,0.285,-97.4875,-3.5850000000000004,397.1225
935,1715374835660,-0.17,-2.35,0.3,-108.03,-10.13,387.08
936,1715374835670,-0.17,-2.35,0.3,-108.03,-10.13,387.08
937,1715374835680,-0.17,-2.35,0.3,-108.03,-10.13,387.08
938,1715374835690,-0.39,-2.37,0.28,-124.76,-50.23,398.25
939,1715374835700,-0.39,-2.37,0.28,-124.76,-50.23,398.25
940,1715374835710,-0.39,-2.37,0.28,-124.76,-50.23,398.25
941,1715374835720,-0.34125,-2.415,0.30500000000000005,-123.05000000000001,-63.5975,401.1425
942,1715374835730,0.0,-2.73,0.48,-111.08,-157.17,421.39
943,1715374835740,0.0,-2.73,0.48,-111.08,-157.17,421.39
944,1715374835750,0.0,-2.73,0.48,-111.08,-157.17,421.39
945,1715374835760,0.5285714285714286,-2.71,0.4228571428571429,-111.08,-157.17,421.39
946,1715374835770,1.85,-2.66,0.28,9.09,-242.92,369.57
947,1715374835780,1.85,-2.66,0.28,9.09,-242.92,369.57
948,1715374835790,1.85,-2.66,0.28,9.09,-242.92,369.57
949,1715374835800,2.0214285714285714,-2.641428571428572,0.13000000000000003,15.098571428571429,-229.26571428571427,355.1914285714286
950,1715374835810,3.05,-2.53,-0.77,51.15,-147.34,268.92
951,1715374835820,3.05,-2.53,-0.77,51.15,-147.34,268.92
952,1715374835830,3.05,-2.53,-0.77,51.15,-147.34,268.92
953,1715374835840,3.05,-2.53,-0.7700000000000001,51.15,-147.34,268.92
954,1715374835850,3.05,-2.53,-0.77,51.15,-147.34,268.92
955,1715374835860,3.3375,-2.755,-0.84625,47.86875,-147.9275,262.20625
956,1715374835870,5.35,-4.33,-1.3800000000000001,24.9,-152.04,215.21
957,1715374835880,5.2,-4.7725,-1.8824999999999998,-22.3875,-10.769999999999998,-100.50999999999999
958,1715374835890,5.15,-4.92,-2.05,-38.15,36.32,-205.75
959,1715374835900,5.15,-4.92,-2.05,-38.15,36.32,-205.75
960,1715374835910,5.15,-4.92,-2.05,-38.15,36.32,-205.75
961,1715374835920,2.6525000000000003,-4.38,-0.7749999999999999,45.849999999999994,264.0575,-214.2175
962,1715374835930,1.82,-4.2,-0.35,73.85,339.97,-217.04
963,1715374835940,1.82,-4.2,-0.35,73.85,339.96999999999997,-217.04
964,1715374835950,1.82,-4.2,-0.35,73.85,339.97,-217.04
965,1715374835960,0.90125,-3.6575,0.13999999999999999,69.3125,223.35125,-288.07124999999996
966,1715374835970,0.7700000000000001,-3.5800000000000005,0.21,66.59,153.37999999999997,-330.69
967,1715374835980,0.77,-3.58,0.21,66.59,153.38,-330.69
968,1715374835990,0.77,-3.58,0.21,66.59,153.38,-330.69
969,1715374836000,0.61,-3.23,0.18,113.89,144.23,-355.35
970,1715374836010,0.61,-3.23,0.18,113.89,144.23,-355.35
971,1715374836020,0.61,-3.23,0.18,113.89,144.23,-355.35
972,1715374836030,0.51625,-3.17,0.15875,122.60249999999999,136.715,-365.32125
973,1715374836040,-0.14,-2.75,0.01,183.59,84.11,-435.12
974,1715374836050,-0.14,-2.75,0.01,183.59,84.11,-435.12
975,1715374836060,-0.14,-2.75,0.01,183.59,84.11,-435.12
976,1715374836070,-0.22571428571428573,-2.6785714285714284,-0.047142857142857146,183.59,84.11,-435.12
977,1715374836080,-0.44,-2.5,-0.19,184.57,18.49,-497.86
978,1715374836090,-0.44,-2.5,-0.19,184.57,18.49,-497.86
979,1715374836100,-0.44,-2.5,-0.19,184.57,18.49,-497.86
980,1715374836110,-0.5314285714285714,-2.414285714285714,-0.1442857142857143,183.22714285714284,30.052857142857142,-485.76000000000005
981,1715374836120,-0.6,-2.35,-0.11,179.87,58.96,-455.51
982,1715374836130,-0.6,-2.35,-0.11,179.87,58.96,-455.51
983,1715374836140,-0.6,-2.35,-0.11,179.87000000000003,58.96,-455.50999999999993
984,1715374836150,-0.55625,-2.25625,-0.185,168.09,18.495,-433.625
985,1715374836160,-0.53,-2.2,-0.23,156.31,-21.97,-411.74
986,1715374836170,-0.53,-2.2,-0.23,156.31,-21.97,-411.74
987,1715374836180,-0.53,-2.2,-0.23,156.31,-21.97,-411.74000000000007
988,1715374836190,-0.48000000000000004,-2.2025,-0.25125000000000003,149.665,-22.64125,-411.93875
989,1715374836200,-0.13,-2.22,-0.4,103.15,-27.34,-413.33
990,1715374836210,-0.13,-2.22,-0.4,103.15,-27.34,-413.33
991,1715374836220,-0.13,-2.22,-0.4,103.15,-27.34,-413.33
992,1715374836230,-0.19125,-2.03625,-0.4875,77.88875,11.107500000000002,-372.85249999999996
993,1715374836240,-0.2,-2.01,-0.5,74.28,16.6,-367.07
994,1715374836250,-0.2,-2.01,-0.5,74.28,16.6,-367.07
995,1715374836260,-0.2,-2.01,-0.5,74.28,16.6,-367.07
996,1715374836270,-0.35,-1.35,-0.53,66.96,12.27,-377.01
997,1715374836280,-0.35,-1.35,-0.53,66.96,12.27,-377.00999999999993
998,1715374836290,-0.35,-1.35,-0.53,66.96,12.27,-377.01
999,1715374836300,-0.6775,-0.9800000000000001,-0.5625,59.37624999999999,19.6475,-372.265
1000,1715374836310,-1.6599999999999997,0.13,-0.66,6.29,71.29,-339.05
