id,timestamp,acc_x,acc_y,acc_z,gyro_x,gyro_y,gyro_z
0,1715374758730,0.13,-0.11,1.01,-12.57,-8.12,0.37
1,1715374758740,0.13,-0.11,1.01,-12.57,-8.12,0.37
2,1715374758750,0.13,-0.11,1.01,-12.57,-8.12,0.37
3,1715374758760,0.14714285714285716,-0.09857142857142856,1.0442857142857143,-24.884285714285713,-18.514285714285712,-0.6757142857142858
4,1715374758770,0.16,-0.09,1.07,-34.12,-26.31,-1.46
5,1715374758780,0.17125,-0.11249999999999999,1.07375,-36.15625,-16.37625,1.01125
6,1715374758790,0.19,-0.15,1.08,-39.55,0.18,5.13
7,1715374758800,0.19,-0.15,1.08,-39.55,0.18,5.13
8,1715374758810,0.19,-0.15,1.08,-39.55,0.18,5.13
9,1715374758820,0.1825,-0.15375,1.0762500000000002,-34.49125,1.6237500000000002,11.14875
10,1715374758830,0.17,-0.16,1.07,-26.06,4.03,21.18
11,1715374758840,0.17,-0.16,1.07,-26.06,4.03,21.18
12,1715374758850,0.17,-0.16,1.07,-26.06,4.03,21.18
13,1715374758860,0.17625,-0.185,1.0325,-34.64375,8.21875,22.92
14,1715374758870,0.18,-0.2,1.01,-48.95,15.2,25.82
15,1715374758880,0.18,-0.2,1.01,-48.95,15.2,25.82
16,1715374758890,0.18,-0.2,1.01,-48.95,15.2,25.82
17,1715374758900,0.2175,-0.15500000000000003,1.01,-35.370000000000005,12.94,22.525
18,1715374758910,0.23,-0.14,1.01,-21.79,10.679999999999998,19.23
19,1715374758920,0.23,-0.14,1.01,-21.79,10.68,19.23
20,1715374758930,0.23,-0.14,1.01,-21.79,10.68,19.23
21,1715374758940,0.215,-0.23750000000000002,1.0475,-72.6025,65.1975,14.790000000000001
22,1715374758950,0.21,-0.27,1.06,-89.54,83.37,13.31
23,1715374758960,0.21,-0.27,1.06,-89.54,83.37,13.31
24,1715374758970,0.21,-0.27,1.06,-89.54,83.37,13.31
25,1715374758980,0.08,-0.55,0.8099999999999999,-74.89,70.74,56.82
26,1715374758990,0.08,-0.55,0.81,-74.89,70.74,56.82
27,1715374759000,0.08,-0.55,0.81,-74.89,70.74,56.82
28,1715374759010,0.08,-0.55,0.8099999999999999,-74.89,70.74,56.82
29,1715374759020,0.07,-0.28,0.65,-77.09,-3.48,71.84
30,1715374759030,0.07,-0.28,0.65,-77.09,-3.48,71.84
31,1715374759040,0.07,-0.28,0.65,-77.09,-3.48,71.84
32,1715374759050,0.07,-0.28,0.65,-77.09,-3.48,71.84
33,1715374759060,0.07,-0.28,0.65,-77.09,-3.48,71.84
34,1715374759070,-0.065,-0.24250000000000002,0.38,-81.755,-20.505,72.935
35,1715374759080,-0.11,-0.23,0.29,-83.31,-26.18,73.3
36,1715374759090,-0.11,-0.23,0.29,-83.31000000000002,-26.18,73.3
37,1715374759100,0.02,-0.11,0.4,-187.5,-7.14,20.2
38,1715374759110,0.02,-0.11,0.4,-187.5,-7.14,20.2
39,1715374759120,0.02,-0.11,0.4,-187.5,-7.14,20.2
40,1715374759130,0.02,-0.11,0.4,-187.5,-7.14,20.2
41,1715374759140,0.02,-0.11,0.4000000000000001,-187.5,-7.14,20.2
42,1715374759150,0.02,-0.11,0.4,-187.5,-7.14,20.2
43,1715374759160,-0.0775,-0.275,0.13,-176.6475,8.835,-13.535
44,1715374759170,-0.13571428571428573,-0.4242857142857143,0.16857142857142857,-172.3014285714286,18.737142857142857,-17.194285714285716
45,1715374759180,-0.14,-0.44,0.19,-171.33,24.84,-7.08
46,1715374759190,-0.14,-0.44,0.19,-171.33,24.84,-7.08
47,1715374759200,-0.14,-0.44,0.19,-171.33,24.84,-7.08
48,1715374759210,0.16624999999999998,-0.65,0.09375,-231.37374999999997,-7.0912500000000005,5.88875
49,1715374759220,0.21,-0.68,0.08,-267.4,-26.25,13.67
50,1715374759230,0.21,-0.68,0.08,-267.4,-26.25,13.67
51,1715374759240,0.21,-0.68,0.08,-267.4,-26.25,13.67
52,1715374759250,0.41,-0.73,-0.06,-152.53,59.75,48.52
53,1715374759260,0.41,-0.7299999999999999,-0.06,-152.53,59.75,48.52
54,1715374759270,0.41,-0.73,-0.06,-152.53,59.75,48.52
55,1715374759280,0.50625,-0.8275,-0.09,-153.5825,54.95875,37.2825
56,1715374759290,1.18,-1.51,-0.3,-160.95,21.419999999999998,-41.38
57,1715374759300,1.18,-1.51,-0.3,-160.95,21.42,-41.38
58,1715374759310,1.18,-1.51,-0.3,-160.95,21.42,-41.38
59,1715374759320,1.18,-1.51,-0.3,-160.95,21.419999999999998,-41.38
60,1715374759330,1.635,-2.4025,-0.25625,-163.08499999999998,178.22,-69.58125
61,1715374759340,1.7,-2.53,-0.25,-163.39,200.62,-73.61
62,1715374759350,1.7,-2.53,-0.25,-163.39,200.62,-73.61
63,1715374759360,1.66,-2.8414285714285716,-0.11571428571428573,-149.56142857142854,233.9114285714286,-88.08428571428571
64,1715374759370,1.56,-3.62,0.22,-114.99,317.14,-124.27
65,1715374759380,1.56,-3.62,0.22,-114.99,317.14,-124.27
66,1715374759390,1.56,-3.62,0.22,-114.99,317.14,-124.27
67,1715374759400,1.7257142857142858,-3.8771428571428572,0.4714285714285715,-46.77285714285714,311.3514285714286,-165.32142857142858
68,1715374759410,1.85,-4.07,0.66,4.39,307.01,-196.11
69,1715374759420,1.85,-4.07,0.66,4.39,307.01,-196.11
70,1715374759430,1.85,-4.07,0.66,4.39,307.00999999999993,-196.10999999999999
71,1715374759440,1.5150000000000001,-4.175000000000001,0.665,37.352500000000006,301.10375,-236.985
72,1715374759450,1.18,-4.28,0.67,92.29,291.26,-305.11
73,1715374759460,1.18,-4.28,0.67,92.29,291.26,-305.11
74,1715374759470,1.18,-4.28,0.67,92.29,291.26,-305.11
75,1715374759480,-0.04571428571428572,-3.902857142857143,1.0728571428571427,159.3014285714286,197.35142857142858,-349.94714285714286
76,1715374759490,-0.25,-3.84,1.14,170.47,181.7,-357.42
77,1715374759500,-0.25,-3.84,1.14,170.47,181.7,-357.42
78,1715374759510,-0.25,-3.84,1.14,170.47,181.7,-357.42
79,1715374759520,-0.175,-3.48,1.3725,188.05,77.5175,-329.6775
80,1715374759530,-0.15,-3.36,1.45,193.91,42.79,-320.43
81,1715374759540,-0.15,-3.36,1.45,193.91,42.79,-320.43
82,1715374759550,-0.16749999999999998,-3.2562499999999996,1.41875,198.89124999999999,37.96,-312.93125
83,1715374759560,-0.29,-2.53,1.2,233.76,4.15,-260.44
84,1715374759570,-0.29,-2.53,1.2,233.76,4.15,-260.44
85,1715374759580,-0.29,-2.53,1.2,233.76,4.15,-260.44
86,1715374759590,-0.30624999999999997,-2.44875,1.13875,237.8425,-3.7537499999999993,-260.68375
87,1715374759600,-0.42,-1.8800000000000001,0.71,266.42,-59.08,-262.39
88,1715374759610,-0.42,-1.88,0.71,266.42,-59.08,-262.39
89,1715374759620,-0.42,-1.88,0.71,266.42,-59.08,-262.39
90,1715374759630,-0.3885714285714285,-1.8828571428571428,0.6185714285714285,266.42,-59.08,-262.39
91,1715374759640,-0.31,-1.89,0.39,287.48,-138.92,-326.97
92,1715374759650,-0.31,-1.89,0.39,287.48,-138.92,-326.97
93,1715374759660,-0.31,-1.89,0.39,287.48,-138.92,-326.97
94,1715374759670,-0.3085714285714286,-1.91,0.3442857142857143,287.51428571428573,-133.9842857142857,-331.1985714285715
95,1715374759680,-0.3,-2.03,0.07,287.72,-104.37,-356.57
96,1715374759690,-0.3,-2.03,0.07,287.72,-104.37,-356.57
97,1715374759700,-0.3,-2.03,0.07,287.72,-104.37,-356.57
98,1715374759710,-0.255,-1.9549999999999998,0.010000000000000002,277.44125,-100.68375,-364.5125
99,1715374759720,-0.21,-1.88,-0.05,260.31,-94.54,-377.75
100,1715374759730,-0.21,-1.8800000000000001,-0.05,260.31,-94.54,-377.75
101,1715374759740,-0.21,-1.88,-0.05,260.31,-94.54,-377.75
102,1715374759750,-0.16125,-1.86125,-0.07250000000000001,239.505,-100.51375,-405.3275
103,1715374759760,-0.08,-1.83,-0.11,204.83,-110.47,-451.29
104,1715374759770,-0.08,-1.83,-0.11,204.83,-110.47,-451.29
105,1715374759780,-0.08,-1.83,-0.11,204.83,-110.47,-451.29
106,1715374759790,-0.08,-1.83,-0.11,204.83,-110.47,-451.29
107,1715374759800,0.0075,-1.585,-0.18,158.21,-96.26875,-463.3125
108,1715374759810,0.02,-1.55,-0.19,151.55,-94.24,-465.03
109,1715374759820,0.02,-1.55,-0.19,151.55,-94.24,-465.03
110,1715374759830,-0.7,-1.03,-0.64,74.28,-99.3,-474.67
111,1715374759840,-0.7,-1.03,-0.64,74.28,-99.3,-474.67
112,1715374759850,-0.7,-1.03,-0.64,74.28,-99.3,-474.67
113,1715374759860,-0.9185714285714285,-0.8957142857142858,-0.67,74.28,-99.3,-474.67
114,1715374759870,-2.23,-0.09,-0.85,-41.93,-220.28,-449.52
115,1715374759880,-2.23,-0.09,-0.85,-41.93,-220.28,-449.52
116,1715374759890,-2.23,-0.09,-0.85,-41.93,-220.28,-449.52
117,1715374759900,-2.75125,-0.23249999999999998,-0.5762499999999999,-65.80250000000001,-220.64375,-376.395
118,1715374759910,-3.62,-0.47,-0.12,-105.59,-221.25,-254.52
119,1715374759920,-3.62,-0.47,-0.12,-105.59,-221.25,-254.52
120,1715374759930,-3.62,-0.47000000000000003,-0.12,-105.59,-221.25,-254.52
121,1715374759940,-3.96875,-0.5975,-0.21375,-39.582499999999996,-185.45250000000001,-151.1325
122,1715374759950,-4.55,-0.81,-0.37,70.43,-125.79,21.18
123,1715374759960,-4.55,-0.81,-0.37,70.43,-125.79,21.18
124,1715374759970,-4.55,-0.8099999999999999,-0.37,70.43,-125.79,21.18
125,1715374759980,-4.34375,-0.56,-0.42,80.84,-53.375,167.33
126,1715374759990,-4.22,-0.41,-0.45,91.25,19.04,313.48
127,1715374760000,-4.22,-0.41,-0.45,91.25,19.04,313.48
128,1715374760010,-4.22,-0.41,-0.45,91.25,19.04,313.48
129,1715374760020,-3.2925,-1.0925,-0.5549999999999999,101.225,-95.17000000000002,409.4275
130,1715374760030,-3.16,-1.19,-0.57,104.55,-133.24,441.41
131,1715374760040,-3.16,-1.19,-0.57,104.55,-133.24,441.41
132,1715374760050,-3.16,-1.19,-0.57,104.55,-133.24,441.41
133,1715374760060,-0.68,-3.4199999999999995,-1.3,122.42857142857143,-219.04000000000002,565.9171428571428
134,1715374760070,-0.68,-3.42,-1.3,129.58,-253.36,615.72
135,1715374760080,-0.68,-3.42,-1.3,129.58,-253.36,615.72
136,1715374760090,-0.68,-3.4199999999999995,-1.3,129.58,-253.35999999999999,615.72
137,1715374760100,0.96,-4.78,-1.78,122.92,-253.3,683.11
138,1715374760110,0.96,-4.78,-1.78,122.92,-253.3,683.11
139,1715374760120,0.96,-4.78,-1.78,122.92,-253.3,683.11
140,1715374760130,0.96,-4.78,-1.78,122.92,-253.3,683.11
141,1715374760140,2.0,-4.8,-1.5,60.73,-177.98,630.37
142,1715374760150,2.0,-4.8,-1.5,60.73,-177.98,630.37
143,1715374760160,2.0,-4.8,-1.5,60.73,-177.98,630.37
144,1715374760170,1.9628571428571429,-4.717142857142856,-1.3942857142857144,60.73,-177.98,630.37
145,1715374760180,1.74,-4.22,-0.76,56.76,-89.17,523.62
146,1715374760190,1.74,-4.22,-0.76,56.76,-89.17,523.62
147,1715374760200,1.74,-4.22,-0.76,56.76,-89.17,523.62
148,1715374760210,1.5775000000000001,-3.9899999999999998,-0.6275000000000001,58.0125,-64.5275,512.1925
149,1715374760220,1.09,-3.3,-0.23,61.77,9.4,477.91
150,1715374760230,1.09,-3.3,-0.23,61.77,9.4,477.91
151,1715374760240,1.09,-3.3,-0.23,61.77,9.4,477.91
152,1715374760250,1.09,-3.3,-0.23,61.77,9.4,477.91
153,1715374760260,0.9,-2.66,0.05,37.23,139.89,532.29
154,1715374760270,0.9,-2.66,0.05,37.23,139.89,532.29
155,1715374760280,0.9,-2.66,0.05,37.23,139.89,532.29
156,1715374760290,0.9642857142857143,-2.4528571428571433,0.20714285714285716,16.52285714285714,245.21857142857147,570.39
157,1715374760300,0.99,-2.37,0.27,8.24,287.35,585.63
158,1715374760310,0.99,-2.37,0.27,8.24,287.35,585.63
159,1715374760320,0.99,-2.37,0.27,8.24,287.35,585.63
160,1715374760330,1.04875,-2.2825,0.23875000000000002,2.0062499999999996,309.36125000000004,594.38125
161,1715374760340,1.46,-1.67,0.02,-41.63,463.44,655.64
162,1715374760350,1.4599999999999997,-1.67,0.02,-41.63,463.44,655.64
163,1715374760360,1.7575,-3.04375,0.6675,-181.86625,158.49375,306.095
164,1715374760370,1.8,-3.24,0.76,-201.9,114.93,256.16
165,1715374760380,1.8,-3.2399999999999998,0.76,-201.9,114.92999999999999,256.16
166,1715374760390,1.8,-3.24,0.76,-201.9,114.93,256.16
167,1715374760400,1.8,-3.2399999999999998,0.76,-201.9,114.92999999999999,256.16
168,1715374760410,1.8,-3.24,0.76,-201.9,114.93,256.16
169,1715374760420,1.8,-3.24,0.76,-201.9,114.93,256.16
170,1715374760430,1.8,-3.24,0.76,-201.9,114.93,256.16
171,1715374760440,1.8,-3.2399999999999998,0.76,-201.9,114.92999999999999,256.16
172,1715374760450,3.9174999999999995,-4.94625,1.45125,-19.03875,16.425,32.81125
173,1715374760460,4.22,-5.19,1.55,22.16,-31.19,-44.01
174,1715374760470,3.317142857142857,-5.172857142857143,1.1357142857142857,71.64857142857143,12.84142857142857,-100.78999999999999
175,1715374760480,1.06,-5.13,0.1,195.37,122.92,-242.74
176,1715374760490,1.06,-5.13,0.1,195.37,122.92,-242.74
177,1715374760500,1.06,-5.13,0.1,195.37000000000003,122.92,-242.74
178,1715374760510,0.89125,-4.965,0.31375000000000003,200.75125,113.5825,-221.33875
179,1715374760520,0.61,-4.69,0.67,209.72,98.02,-185.67
180,1715374760530,0.61,-4.69,0.67,209.72,98.02,-185.67
181,1715374760540,0.61,-4.69,0.67,209.72,98.02,-185.67
182,1715374760550,0.31,-4.04,0.35125,295.73875,96.76375,-196.42624999999998
183,1715374760560,0.13,-3.65,0.16,347.35,96.01,-202.88
184,1715374760570,0.13,-3.65,0.16,347.35,96.01,-202.88
185,1715374760580,0.13,-3.65,0.16,347.35,96.01,-202.87999999999997
186,1715374760590,0.13,-3.65,0.16,347.35,96.01,-202.88
187,1715374760600,-0.22,-3.25,0.01,389.95,-34.85,-285.4
188,1715374760610,-0.22,-3.25,0.01,389.95,-34.85,-285.4
189,1715374760620,-0.22,-3.25,0.01,389.95,-34.85,-285.4
190,1715374760630,-0.54,-2.98,-0.52,449.46,-61.65,-296.81
191,1715374760640,-0.54,-2.98,-0.52,449.46,-61.65,-296.81
192,1715374760650,-0.54,-2.98,-0.52,449.46,-61.65,-296.81
193,1715374760660,-0.595,-2.91,-0.6025,441.0075,-70.9425,-310.545
194,1715374760670,-0.76,-2.7,-0.85,415.65,-98.82,-351.75
195,1715374760680,-0.76,-2.7,-0.85,415.65,-98.82000000000001,-351.75
196,1715374760690,-0.76,-2.7,-0.85,415.65,-98.82,-351.75
197,1715374760700,-0.6799999999999999,-2.555,-0.765,395.2175,-109.2875,-367.39
198,1715374760710,-0.6,-2.41,-0.68,333.92,-140.69,-414.31
199,1715374760720,-0.6,-2.41,-0.68,333.92,-140.69,-414.31
200,1715374760730,-0.6,-2.41,-0.68,333.92,-140.69,-414.31
201,1715374760740,-0.5014285714285714,-2.448571428571429,-0.5171428571428571,312.0,-121.29571428571428,-407.68142857142857
202,1715374760750,-0.37,-2.5,-0.3,257.2,-72.81,-391.11
203,1715374760760,-0.37,-2.5,-0.3,257.2,-72.81,-391.11
204,1715374760770,-0.37,-2.5,-0.3,257.2,-72.81,-391.11
205,1715374760780,-0.18875,-2.5,-0.2375,235.1125,-12.085,-356.935
206,1715374760790,-0.08,-2.5,-0.2,221.86,24.35,-336.43
207,1715374760800,-0.08,-2.5,-0.2,221.85999999999999,24.35,-336.43
208,1715374760810,-0.08,-2.5,-0.2,221.86,24.35,-336.43
209,1715374760820,-0.14750000000000002,-2.0725,-0.4175,193.615,6.545,-360.9625
210,1715374760830,-0.17,-1.93,-0.49,184.2,0.61,-369.14
211,1715374760840,-0.17,-1.93,-0.48999999999999994,184.2,0.61,-369.14
212,1715374760850,-0.17,-1.93,-0.49,184.2,0.61,-369.14
213,1715374760860,-0.38,-1.4312500000000001,-0.5775,156.6625,1.4849999999999999,-388.365
214,1715374760870,-0.41,-1.36,-0.59,140.14,2.01,-399.9
215,1715374760880,-0.41,-1.36,-0.59,140.14,2.01,-399.9
216,1715374760890,-0.41,-1.36,-0.59,140.14,2.01,-399.9
217,1715374760900,-2.94,0.68,-1.78,205.38,-21.73,-431.88
218,1715374760910,-2.94,0.68,-1.78,205.38,-21.73,-431.88
219,1715374760920,-2.94,0.68,-1.78,205.37999999999997,-21.73,-431.88
220,1715374760930,-3.3049999999999997,0.87625,-1.8375,186.78,-20.15,-391.9325
221,1715374760940,-5.86,2.25,-2.24,56.58,-9.09,-112.3
222,1715374760950,-5.86,2.25,-2.24,56.58,-9.09,-112.3
223,1715374760960,-5.86,2.25,-2.24,56.58,-9.09,-112.3
224,1715374760970,-5.86,2.25,-2.24,56.58,-9.09,-112.3
225,1715374760980,-5.28,1.58,-2.25,11.6,-150.15,217.22
226,1715374760990,-5.28,1.58,-2.25,11.6,-150.15,217.22
227,1715374761000,-5.28,1.58,-2.25,11.6,-150.15,217.22
228,1715374761010,-3.5175,0.13625000000000004,-2.03125,-9.45625,-198.48125,353.5575
229,1715374761020,-2.46,-0.7299999999999999,-1.9,-22.09,-227.48,435.36
230,1715374761030,-2.46,-0.73,-1.9,-22.09,-227.48,435.36
231,1715374761040,-2.46,-0.73,-1.9,-22.09,-227.48,435.36
232,1715374761050,-0.6428571428571429,-2.5300000000000002,-1.5142857142857142,-51.151428571428575,-255.78285714285715,458.3014285714286
233,1715374761060,-0.34,-2.83,-1.45,-89.9,-293.52,488.89
234,1715374761070,-0.34,-2.83,-1.45,-89.9,-293.52,488.89
235,1715374761080,-0.34,-2.8300000000000005,-1.45,-89.9,-293.52,488.89
236,1715374761090,0.5,-3.31,-0.7675000000000001,-80.84,-284.82,464.77
237,1715374761100,0.78,-3.47,-0.54,-77.82,-281.92,456.73
238,1715374761110,0.78,-3.47,-0.54,-77.82000000000001,-281.92,456.73
239,1715374761120,0.79125,-3.4850000000000003,-0.50875,-77.82,-281.92,456.73
240,1715374761130,0.87,-3.59,-0.29,-46.51,-154.66,467.21999999999997
241,1715374761140,0.87,-3.59,-0.29,-46.51,-154.66,467.22
242,1715374761150,0.87,-3.59,-0.29,-46.51,-154.66,467.22
243,1715374761160,0.7987500000000001,-3.53375,-0.11374999999999999,-48.7525,-109.9975,477.26250000000005
244,1715374761170,0.68,-3.44,0.18,-55.48,23.99,507.39
245,1715374761180,0.68,-3.44,0.18,-55.48,23.99,507.39
246,1715374761190,0.68,-3.44,0.18,-55.48,23.99,507.39
247,1715374761200,0.5828571428571429,-3.2314285714285718,0.2057142857142857,-51.8,38.48142857142857,492.81
248,1715374761210,0.34,-2.71,0.27,-42.6,74.71,456.36
249,1715374761220,0.34,-2.71,0.27,-42.6,74.71,456.36
250,1715374761230,0.34,-2.71,0.27,-42.6,74.71,456.36
251,1715374761240,0.16,-2.51,0.23,-57.83,83.435,449.83000000000004
252,1715374761250,-0.02,-2.31,0.19,-73.06,92.16,443.3
253,1715374761260,-0.02,-2.31,0.19,-73.06,92.16,443.3
254,1715374761270,-0.02,-2.31,0.19,-73.06,92.16,443.3
255,1715374761280,-0.06375,-2.34125,0.33375,-80.91624999999999,90.63499999999999,444.9375
256,1715374761290,-0.09,-2.36,0.42,-85.63,89.72,445.92
257,1715374761300,-0.09,-2.36,0.42,-85.63,89.72,445.92
258,1715374761310,-0.09,-2.36,0.42,-85.63,89.72,445.92
259,1715374761320,0.23,-2.57,0.43,-68.6,146.42,491.33
260,1715374761330,0.23,-2.57,0.43,-68.6,146.42,491.33
261,1715374761340,0.23,-2.57,0.43,-68.6,146.42,491.33
262,1715374761350,0.23,-2.57,0.43,-68.6,146.42,491.33
263,1715374761360,1.26,-3.35,0.19,-110.99000000000001,76.15249999999999,423.86
264,1715374761370,1.26,-3.35,0.19,-125.12,52.73,401.37
265,1715374761380,1.26,-3.35,0.19,-125.12,52.73,401.37
266,1715374761390,1.7742857142857142,-3.7985714285714285,0.6128571428571429,-127.14285714285714,77.44142857142856,378.2271428571429
267,1715374761400,3.06,-4.92,1.67,-132.2,139.22,320.37
268,1715374761410,3.06,-4.92,1.67,-132.2,139.22,320.37
269,1715374761420,3.06,-4.92,1.67,-132.2,139.22,320.37
270,1715374761430,3.54375,-5.205,1.72625,-120.755,53.57375,239.3475
271,1715374761440,4.35,-5.68,1.82,-101.67999999999999,-89.17,104.31000000000002
272,1715374761450,4.35,-5.68,1.82,-101.68,-89.17,104.31
273,1715374761460,4.35,-5.68,1.82,-101.68,-89.17,104.31
274,1715374761470,3.912857142857143,-5.8428571428571425,1.657142857142857,-63.57714285714287,-65.47142857142858,58.69857142857143
275,1715374761480,3.33,-6.06,1.44,165.04,76.72,-214.97
276,1715374761490,3.33,-6.06,1.44,165.04,76.72,-214.97
277,1715374761500,3.33,-6.06,1.44,165.04,76.72,-214.97
278,1715374761510,2.1085714285714285,-5.232857142857142,1.0757142857142856,223.47571428571428,77.79142857142857,-254.35999999999999
279,1715374761520,0.48,-4.13,0.59,301.39,79.22,-306.88
280,1715374761530,0.48,-4.13,0.59,301.39,79.22,-306.88
281,1715374761540,0.48,-4.13,0.59,301.39,79.22,-306.88
282,1715374761550,0.43,-3.925,0.5599999999999999,304.7475,73.515,-283.87
283,1715374761560,0.28,-3.31,0.47,314.82,56.4,-214.84
284,1715374761570,0.28,-3.31,0.47000000000000003,314.82,56.4,-214.84
285,1715374761580,0.28,-3.31,0.47,314.82,56.4,-214.84
286,1715374761590,-0.22749999999999998,-2.9775,0.2425,358.185,-27.075,-306.4875
287,1715374761600,-0.3,-2.93,0.21,364.38,-39.0,-319.58
288,1715374761610,-0.3,-2.93,0.21,364.38,-39.0,-319.58
289,1715374761620,-0.3,-2.93,0.21,364.38,-39.0,-319.58
290,1715374761630,-0.3557142857142857,-2.9171428571428573,0.1357142857142857,370.23,-44.50142857142857,-324.9771428571429
291,1715374761640,-0.69,-2.84,-0.31,405.33,-77.51,-357.36
292,1715374761650,-0.6900000000000001,-2.84,-0.31,405.33,-77.51,-357.36
293,1715374761660,-0.7,-2.8225,-0.34125,389.74375,-97.0575,-374.27500000000003
294,1715374761670,-0.77,-2.7,-0.56,280.64,-233.89,-492.68
295,1715374761680,-0.77,-2.7,-0.56,280.64,-233.89,-492.68
296,1715374761690,-0.7700000000000001,-2.7,-0.56,280.64,-233.89000000000001,-492.68
297,1715374761700,-0.77,-2.7,-0.56,280.64,-233.89,-492.68
298,1715374761710,-0.7700000000000001,-2.7,-0.56,280.64,-233.89000000000001,-492.68
299,1715374761720,-0.5175000000000001,-2.7350000000000003,-0.46,253.815,-273.7,-550.6025
300,1715374761730,0.24,-2.84,-0.16,173.34,-393.13,-724.37
301,1715374761740,0.2275,-2.78375,-0.14750000000000002,142.09,-240.325,-660.4649999999999
302,1715374761750,0.22,-2.75,-0.14,110.84,-87.52,-596.56
303,1715374761760,0.22,-2.75,-0.14,110.84,-87.52,-596.5600000000001
304,1715374761770,0.22,-2.75,-0.14,110.84,-87.52,-596.56
305,1715374761780,0.08875,-2.35,-0.365,96.8775,15.167500000000002,-473.26625
306,1715374761790,0.01,-2.11,-0.5,88.5,76.78,-399.29
307,1715374761800,0.01,-2.11,-0.5,88.5,76.78,-399.29
308,1715374761810,0.01,-2.11,-0.5,88.5,76.78,-399.29
309,1715374761820,0.3025,-1.9075,-0.6725,12.787500000000001,48.58,-416.915
310,1715374761830,0.4,-1.84,-0.73,-12.45,39.18,-422.79
311,1715374761840,0.4,-1.84,-0.7299999999999999,-12.45,39.18,-422.79
312,1715374761850,0.32625000000000004,-1.81,-0.7474999999999999,-22.948749999999997,33.33625,-423.31625
313,1715374761860,-0.19,-1.6,-0.87,-96.44,-7.57,-427.0
314,1715374761870,-0.19,-1.6,-0.87,-96.43999999999998,-7.57,-427.0
315,1715374761880,-0.19,-1.6,-0.87,-96.44,-7.57,-427.0
316,1715374761890,-0.77,-1.5425,-0.7675,-101.6875,-21.637500000000003,-439.2375
317,1715374761900,-2.5100000000000002,-1.3699999999999999,-0.46,-117.42999999999999,-63.839999999999996,-475.95
318,1715374761910,-2.51,-1.37,-0.46,-117.43,-63.84,-475.95
319,1715374761920,-2.51,-1.37,-0.46,-117.43,-63.84,-475.95
320,1715374761930,-2.5100000000000002,-1.3699999999999999,-0.46,-117.42999999999999,-63.839999999999996,-475.95
321,1715374761940,-7.08,-1.86,1.63,14.1,29.66,-173.89
322,1715374761950,-7.08,-1.86,1.63,14.1,29.66,-173.89
323,1715374761960,-7.08,-1.86,1.6300000000000001,14.1,29.66,-173.89000000000001
324,1715374761970,-6.885,-1.44,1.145,173.125,23.59,3.2350000000000136
325,1715374761980,-6.69,-1.02,0.66,332.15,17.52,180.36
326,1715374761990,-6.69,-1.02,0.66,332.15,17.52,180.36
327,1715374762000,-6.69,-1.02,0.66,332.15,17.52,180.35999999999999
328,1715374762010,-4.815,-1.335,-0.75,329.07,-76.565,310.945
329,1715374762020,-4.19,-1.44,-1.22,325.99,-170.65,441.53
330,1715374762030,-4.19,-1.44,-1.22,325.99000000000007,-170.65,441.53000000000003
331,1715374762040,-4.19,-1.44,-1.22,325.99,-170.65,441.53
332,1715374762050,-0.98,-3.6,-2.14,208.3375,-310.46625,561.4224999999999
333,1715374762060,-0.9799999999999999,-3.6,-2.14,191.53,-330.44,578.55
334,1715374762070,-0.98,-3.6,-2.14,191.53,-330.44,578.55
335,1715374762080,-0.98,-3.6,-2.14,191.53,-330.44,578.55
336,1715374762090,1.65,-5.01,-2.32,225.655,-266.1975,638.05
337,1715374762100,1.65,-5.01,-2.32,230.53,-257.02,646.55
338,1715374762110,1.65,-5.01,-2.32,230.53,-257.02,646.55
339,1715374762120,1.7562499999999999,-4.94375,-2.2962499999999997,230.53,-257.02,646.55
340,1715374762130,2.5,-4.48,-2.13,205.14000000000001,13.67,664.3100000000001
341,1715374762140,2.5,-4.48,-2.13,205.14000000000001,13.67,664.3100000000001
342,1715374762150,2.5,-4.48,-2.13,205.14,13.67,664.31
343,1715374762160,2.4375,-4.385000000000001,-1.97375,191.67374999999998,22.185000000000002,660.4637499999999
344,1715374762170,2.0,-3.72,-0.88,97.41,81.79,633.54
345,1715374762180,2.0,-3.72,-0.88,97.41,81.79,633.54
346,1715374762190,2.0,-3.72,-0.88,97.41,81.79,633.54
347,1715374762200,1.345,-3.495,-0.5800000000000001,60.545,59.205,571.225
348,1715374762210,0.6900000000000001,-3.27,-0.28,23.68,36.62,508.91
349,1715374762220,0.69,-3.27,-0.28,23.68,36.62,508.91
350,1715374762230,0.69,-3.27,-0.28,23.68,36.62,508.91
351,1715374762240,0.565,-3.215,-0.015000000000000013,24.35,32.93,525.785
352,1715374762250,0.44,-3.16,0.25,25.02,29.24,542.66
353,1715374762260,0.44,-3.16,0.25,25.02,29.24,542.66
354,1715374762270,0.44,-3.16,0.25,25.02,29.24,542.66
355,1715374762280,0.5085714285714286,-2.7057142857142855,0.11285714285714286,10.842857142857143,159.2942857142857,629.5571428571428
356,1715374762290,0.52,-2.63,0.09,8.48,180.97,644.04
357,1715374762300,0.52,-2.63,0.09,8.48,180.97,644.04
358,1715374762310,0.52,-2.63,0.09,8.48,180.97,644.04
359,1715374762320,1.63,-2.47,0.21,-85.51,-12.82,457.03
360,1715374762330,1.63,-2.47,0.21,-85.51,-12.82,457.03
361,1715374762340,1.63,-2.47,0.21,-85.51,-12.82,457.03
362,1715374762350,1.8328571428571425,-2.6585714285714284,0.17285714285714285,-85.51,-12.820000000000002,457.03000000000003
363,1715374762360,2.34,-3.13,0.08,-81.135,-50.628750000000004,273.84875
364,1715374762370,2.34,-3.13,0.08,-80.51,-56.03000000000001,247.68
365,1715374762380,2.34,-3.13,0.08,-80.51,-56.03,247.68
366,1715374762390,3.76875,-3.385,-0.235,-60.59375,-35.82125,275.26125
367,1715374762400,6.15,-3.81,-0.76,-27.4,-2.14,321.23
368,1715374762410,6.15,-3.81,-0.76,-27.4,-2.14,321.23
369,1715374762420,6.15,-3.81,-0.76,-27.4,-2.14,321.23
370,1715374762430,4.9071428571428575,-4.545714285714285,-1.2671428571428571,-58.73714285714285,25.849999999999998,29.308571428571433
371,1715374762440,4.41,-4.84,-1.47,-100.52,63.17,-359.92
372,1715374762450,4.41,-4.84,-1.47,-100.52,63.17,-359.92
373,1715374762460,4.41,-4.839999999999999,-1.47,-100.52,63.17,-359.92
374,1715374762470,1.9575,-4.9,-1.005,-1.1887500000000006,172.12,-276.98875
375,1715374762480,1.14,-4.92,-0.85,58.41,237.49,-227.23
376,1715374762490,1.14,-4.92,-0.85,58.410000000000004,237.49,-227.23
377,1715374762500,1.14,-4.92,-0.85,58.41,237.49,-227.23
378,1715374762510,1.5525,-4.7025,-0.625,105.69749999999999,174.1825,-264.91
379,1715374762520,1.69,-4.63,-0.55,121.46,153.08,-277.47
380,1715374762530,1.69,-4.63,-0.55,121.46,153.08,-277.47
381,1715374762540,1.69,-4.63,-0.55,121.46,153.08,-277.47
382,1715374762550,0.87625,-3.79875,-0.515,186.93625,145.33625,-351.005
383,1715374762560,0.76,-3.68,-0.51,196.29,144.23,-361.51
384,1715374762570,0.76,-3.68,-0.51,196.29,144.23,-361.50999999999993
385,1715374762580,0.76,-3.68,-0.51,196.29,144.23,-361.51
386,1715374762590,0.17,-2.79,-0.41,235.29,62.74,-429.02
387,1715374762600,0.17,-2.79,-0.41,235.29,62.74,-429.02
388,1715374762610,0.17,-2.79,-0.41,235.29,62.74,-429.02
389,1715374762620,0.14,-2.7671428571428573,-0.4442857142857143,233.18,54.142857142857146,-442.4642857142857
390,1715374762630,-0.04,-2.63,-0.65,220.52,2.56,-523.13
391,1715374762640,-0.04,-2.63,-0.65,220.52,2.56,-523.13
392,1715374762650,-0.04,-2.63,-0.65,220.52,2.56,-523.13
393,1715374762660,-0.13,-2.6385714285714283,-0.6842857142857143,200.66428571428574,14.358571428571429,-511.51571428571424
394,1715374762670,-0.25,-2.65,-0.73,174.19,30.09,-496.03
395,1715374762680,-0.25,-2.65,-0.73,174.19,30.09,-496.03
396,1715374762690,-0.25,-2.65,-0.73,174.19,30.09,-496.03
397,1715374762700,-0.15,-2.575,-0.6799999999999999,154.69,31.166249999999998,-465.085
398,1715374762710,-0.05,-2.5,-0.63,122.18999999999998,32.96,-413.50999999999993
399,1715374762720,-0.05,-2.5,-0.63,122.19,32.96,-413.51
400,1715374762730,-0.05,-2.5,-0.63,122.19,32.96,-413.51
401,1715374762740,0.1285714285714286,-2.4785714285714286,-0.48,112.11,55.034285714285716,-417.34999999999997
402,1715374762750,0.2,-2.47,-0.42,104.55,71.59,-420.23
403,1715374762760,0.2,-2.47,-0.42,104.55,71.59,-420.23
404,1715374762770,0.2,-2.47,-0.42,104.55,71.59,-420.23
405,1715374762780,0.1,-2.27,-0.6325000000000001,95.0125,80.44,-412.21750000000003
406,1715374762790,0.04,-2.15,-0.76,89.29,85.75,-407.41
407,1715374762800,0.04,-2.15,-0.76,89.29,85.75,-407.41
408,1715374762810,0.04,-2.15,-0.76,89.29,85.75,-407.41
409,1715374762820,0.03125,-1.9224999999999999,-0.87375,21.145,64.7675,-410.455
410,1715374762830,0.03,-1.89,-0.89,11.41,61.77,-410.89
411,1715374762840,0.03,-1.89,-0.89,11.41,61.77,-410.89
412,1715374762850,-0.04250000000000001,-1.8099999999999998,-0.91,6.03875,62.89875000000001,-407.45625
413,1715374762860,-0.55,-1.25,-1.05,-31.56,70.8,-383.42
414,1715374762870,-0.55,-1.25,-1.05,-31.56,70.8,-383.42
415,1715374762880,-0.55,-1.25,-1.05,-31.56,70.8,-383.42
416,1715374762890,-0.55,-1.25,-1.05,-31.56,70.8,-383.42
417,1715374762900,-0.55,-1.25,-1.05,-31.56,70.8,-383.42
418,1715374762910,-1.4425,-0.7175,-0.51,-74.31,59.085,-359.0225
419,1715374762920,-1.74,-0.54,-0.33,-88.56,55.18,-350.89
420,1715374762930,-2.2971428571428567,-0.42857142857142855,-0.3785714285714286,-75.70857142857143,72.51285714285714,-334.6028571428571
421,1715374762940,-5.64,0.24,-0.67,1.4,176.51,-236.88
422,1715374762950,-5.64,0.24,-0.67,1.4,176.51,-236.88
423,1715374762960,-5.64,0.24,-0.67,1.4,176.51,-236.88
424,1715374762970,-6.0275,0.565,-0.7075,34.15625,141.0125,-118.68375
425,1715374762980,-6.26,0.76,-0.7299999999999999,88.75,81.85,78.31000000000002
426,1715374762990,-6.26,0.76,-0.73,88.75,81.85,78.31
427,1715374763000,-6.26,0.76,-0.73,88.75,81.85,78.31
428,1715374763010,-5.945,0.5675,-0.845,90.64,32.137499999999996,138.75
429,1715374763020,-5.0,-0.01,-1.19,96.31000000000002,-117.0,320.07
430,1715374763030,-5.0,-0.01,-1.19,96.31,-117.0,320.07
431,1715374763040,-5.0,-0.01,-1.19,96.31000000000002,-117.0,320.07
432,1715374763050,-2.8325,-1.72,-1.6325,82.03,-200.5425,509.26500000000004
433,1715374763060,-2.11,-2.29,-1.78,77.27,-228.39,572.33
434,1715374763070,-2.11,-2.29,-1.78,77.27,-228.39000000000001,572.33
435,1715374763080,-2.11,-2.29,-1.78,77.27,-228.39,572.33
436,1715374763090,0.71,-4.7,-1.78,28.17625,-244.4525,669.5675
437,1715374763100,0.71,-4.7,-1.78,-1.28,-254.09,727.91
438,1715374763110,0.71,-4.7,-1.78,-1.28,-254.09,727.91
439,1715374763120,0.9775,-4.7375,-1.655,-1.28,-254.09,727.91
440,1715374763130,1.78,-4.85,-1.28,-12.39,-204.47,593.63
441,1715374763140,1.78,-4.85,-1.28,-12.39,-204.47,593.63
442,1715374763150,1.78,-4.85,-1.28,-12.39,-204.47,593.63
443,1715374763160,1.76375,-4.795,-1.1675,-14.67875,-175.1275,592.84375
444,1715374763170,1.65,-4.41,-0.38,-30.7,30.27,587.34
445,1715374763180,1.65,-4.41,-0.38,-30.7,30.27,587.34
446,1715374763190,1.65,-4.41,-0.38,-30.7,30.27,587.34
447,1715374763200,1.305,-4.005,-0.18125,-40.65625,30.2475,538.90875
448,1715374763210,0.7299999999999999,-3.3300000000000005,0.15,-57.25,30.21,458.19
449,1715374763220,0.73,-3.33,0.15,-57.25,30.21,458.19
450,1715374763230,0.73,-3.33,0.15,-57.25,30.21,458.19
451,1715374763240,0.27999999999999997,-3.0300000000000002,0.27499999999999997,-65.9125,30.55375,434.92125
452,1715374763250,0.01,-2.85,0.35,-71.11,30.76,420.96
453,1715374763260,0.01,-2.85,0.35,-71.11,30.76,420.96
454,1715374763270,0.01,-2.85,0.35,-71.11,30.76,420.96
455,1715374763280,0.0475,-2.8425,0.485,-59.3,36.195,454.5
456,1715374763290,0.06,-2.84,0.53,-47.49,41.63,488.04
457,1715374763300,0.06,-2.84,0.53,-47.49,41.63,488.04
458,1715374763310,0.06,-2.84,0.53,-47.49,41.63,488.04
459,1715374763320,0.3675,-2.675,0.485,-76.5525,24.552500000000002,506.85
460,1715374763330,0.47000000000000003,-2.62,0.47000000000000003,-86.24,18.859999999999996,513.12
461,1715374763340,0.47,-2.62,0.47,-86.24,18.86,513.12
462,1715374763350,0.47000000000000003,-2.62,0.47000000000000003,-86.24,18.859999999999996,513.12
463,1715374763360,1.5374999999999999,-2.9,0.51375,-76.17125,-6.6587499999999995,459.9825
464,1715374763370,1.69,-2.94,0.52,-70.13,-21.97,428.1
465,1715374763380,1.69,-2.94,0.52,-70.13,-21.97,428.1
466,1715374763390,1.87875,-3.06625,0.50125,-70.13,-21.97,428.1
467,1715374763400,3.2,-3.95,0.37,-121.83,-43.46,327.50999999999993
468,1715374763410,3.2,-3.95,0.37,-121.83,-43.46,327.51
469,1715374763420,3.2,-3.95,0.37,-121.83,-43.46,327.51
470,1715374763430,5.0,-3.98375,-0.10625000000000001,-86.57374999999999,-70.285,292.43125
471,1715374763440,8.0,-4.04,-0.9,160.22,-258.06,46.88
472,1715374763450,8.0,-4.04,-0.9,160.22,-258.06,46.88
473,1715374763460,8.0,-4.04,-0.9,160.22,-258.06,46.88
474,1715374763470,6.00125,-4.516249999999999,-0.675,120.16624999999999,-124.75875,-117.66625
475,1715374763480,2.67,-5.31,-0.3,53.41,97.41,-391.91
476,1715374763490,2.67,-5.31,-0.3,53.41,97.41,-391.91
477,1715374763500,2.6699999999999995,-5.31,-0.3,53.410000000000004,97.41,-391.91
478,1715374763510,1.5899999999999999,-4.9157142857142855,-0.2542857142857143,75.34714285714286,169.7642857142857,-321.31857142857143
479,1715374763520,0.78,-4.62,-0.22,130.19,350.65,-144.84
480,1715374763530,0.78,-4.62,-0.22,130.19,350.65,-144.84
481,1715374763540,0.78,-4.62,-0.22,130.19,350.65,-144.84
482,1715374763550,0.5325,-4.095,-0.1375,186.74,285.21999999999997,-177.035
483,1715374763560,0.45,-3.9199999999999995,-0.11,243.29,219.79,-209.23
484,1715374763570,0.45,-3.92,-0.11,243.29,219.79,-209.23
485,1715374763580,0.45,-3.92,-0.11,243.29,219.79,-209.23
486,1715374763590,0.105,-3.2824999999999998,0.017499999999999998,276.4775,107.1325,-273.085
487,1715374763600,-0.01,-3.07,0.06,287.54,69.58,-294.37
488,1715374763610,-0.01,-3.07,0.06,287.54,69.58,-294.37
489,1715374763620,-0.01,-3.07,0.06,287.54,69.58,-294.37
490,1715374763630,-0.24571428571428575,-2.827142857142857,-0.06142857142857143,313.9542857142857,-11.027142857142861,-347.5128571428572
491,1715374763640,-0.34,-2.73,-0.11,324.52,-43.27,-368.77
492,1715374763650,-0.34,-2.73,-0.11,324.52,-43.27,-368.77
493,1715374763660,-0.34,-2.73,-0.11,324.52,-43.27,-368.77
494,1715374763670,-0.38,-2.77,-0.45,303.41,-130.62,-492.13
495,1715374763680,-0.38,-2.77,-0.45,303.41,-130.62,-492.13
496,1715374763690,-0.38,-2.77,-0.45,303.41,-130.62,-492.13
497,1715374763700,-0.38,-2.77,-0.45,303.41,-130.62,-492.13
498,1715374763710,-0.24,-2.83,-0.54,269.22375,-80.84125,-481.8225
499,1715374763720,-0.24,-2.83,-0.54,264.34,-73.73,-480.35
500,1715374763730,-0.24,-2.83,-0.54,264.34,-73.73,-480.35
501,1715374763740,-0.25999999999999995,-2.7600000000000002,-0.5671428571428572,260.55571428571426,-61.98571428571429,-468.51714285714286
502,1715374763750,-0.38,-2.34,-0.73,237.85,8.48,-397.52
503,1715374763760,-0.38,-2.34,-0.73,237.85,8.48,-397.52
504,1715374763770,-0.38,-2.34,-0.7299999999999999,237.85,8.48,-397.52
505,1715374763780,-0.275,-2.16,-0.69,218.64,-9.830000000000002,-411.39
506,1715374763790,-0.17,-1.98,-0.65,161.01,-64.76,-453.0
507,1715374763800,-0.17,-1.98,-0.65,161.01,-64.76,-453.0
508,1715374763810,-0.17,-1.98,-0.65,161.01,-64.76,-453.0
509,1715374763820,-0.015714285714285715,-1.957142857142857,-0.5928571428571429,102.59285714285714,-60.36571428571428,-475.67428571428576
510,1715374763830,0.1,-1.94,-0.55,58.78,-57.07,-492.68
511,1715374763840,0.1,-1.94,-0.55,58.78,-57.07,-492.68
512,1715374763850,0.1,-1.94,-0.55,58.78000000000001,-57.07,-492.68
513,1715374763860,0.037500000000000006,-1.8475,-0.5725,38.715,-53.1925,-485.645
514,1715374763870,-0.15,-1.57,-0.64,-21.48,-41.56,-464.54
515,1715374763880,-0.15,-1.57,-0.64,-21.48,-41.56,-464.54
516,1715374763890,-0.15,-1.57,-0.64,-21.48,-41.56,-464.54
517,1715374763900,-1.06,-0.98375,-0.5175,-70.19250000000001,-33.917500000000004,-465.22249999999997
518,1715374763910,-1.19,-0.9,-0.5,-86.43,-31.37,-465.45
519,1715374763920,-1.19,-0.9,-0.5,-86.42999999999999,-31.37,-465.45
520,1715374763930,-1.7462499999999999,-0.79,-0.45375,-86.43,-31.37,-465.45
521,1715374763940,-5.64,-0.02,-0.13,-47.79,102.23,-363.46
522,1715374763950,-5.64,-0.02,-0.13,-47.79,102.23,-363.46
523,1715374763960,-5.64,-0.02,-0.13,-47.79,102.23,-363.46
524,1715374763970,-6.0075,0.135,0.0175,-28.7925,73.3775,-261.04499999999996
525,1715374763980,-7.11,0.6,0.46,28.2,-13.179999999999998,46.2
526,1715374763990,-7.11,0.6,0.46,28.2,-13.18,46.2
527,1715374764000,-7.11,0.6,0.46,28.2,-13.18,46.2
528,1715374764010,-6.684285714285714,0.22571428571428573,0.3028571428571429,45.19428571428572,-49.39142857142857,80.65857142857143
529,1715374764020,-5.62,-0.71,-0.09,147.16,-266.66,287.41
530,1715374764030,-5.62,-0.71,-0.09,147.16,-266.66,287.41
531,1715374764040,-5.62,-0.71,-0.09,147.16,-266.66,287.41
532,1715374764050,-4.05,-1.785,-1.065,187.99,-279.875,441.525
533,1715374764060,-2.48,-2.86,-2.04,228.82,-293.09,595.64
534,1715374764070,-2.48,-2.86,-2.04,228.82,-293.09,595.64
535,1715374764080,-2.48,-2.86,-2.04,228.82,-293.09,595.64
536,1715374764090,-0.925,-3.67,-2.1550000000000002,175.72,-277.315,653.5
537,1715374764100,0.63,-4.48,-2.27,122.62,-261.54,711.36
538,1715374764110,0.63,-4.48,-2.27,122.62,-261.54,711.36
539,1715374764120,0.63,-4.48,-2.27,122.62,-261.54,711.36
540,1715374764130,1.0233333333333332,-4.46,-1.8233333333333335,73.14,-268.5733333333333,610.6133333333333
541,1715374764140,1.22,-4.45,-1.6,48.4,-272.09,560.24
542,1715374764150,1.22,-4.45,-1.6,48.4,-272.09,560.24
543,1715374764160,1.22,-4.45,-1.6,48.4,-272.09,560.24
544,1715374764170,1.125,-4.407500000000001,-1.4375,54.03,-234.01999999999998,558.5625
545,1715374764180,0.84,-4.28,-0.95,70.92,-119.81000000000002,553.53
546,1715374764190,0.84,-4.28,-0.95,70.92,-119.81,553.53
547,1715374764200,0.84,-4.28,-0.95,70.92,-119.81,553.53
548,1715374764210,0.625,-3.9850000000000003,-0.6849999999999999,71.805,-54.17,565.3399999999999
549,1715374764220,0.41,-3.69,-0.42,72.69,11.47,577.15
550,1715374764230,0.41,-3.69,-0.42,72.69,11.47,577.15
551,1715374764240,0.41,-3.69,-0.42,72.69,11.47,577.15
552,1715374764250,0.41,-3.69,-0.42,72.69,11.47,577.15
553,1715374764260,0.1357142857142857,-3.5014285714285713,-0.39714285714285713,58.91285714285714,14.23,567.452857142857
554,1715374764270,-0.07,-3.36,-0.38000000000000006,48.580000000000005,16.3,560.18
555,1715374764280,-0.001250000000000002,-3.3225,-0.31125,6.377499999999999,18.61,554.78
556,1715374764290,0.04,-3.3,-0.27,-63.96,22.46,545.78
557,1715374764300,0.04,-3.3,-0.27,-63.96,22.46,545.78
558,1715374764310,0.04,-3.3,-0.27,-63.96,22.46,545.78
559,1715374764320,0.62125,-3.21875,0.12374999999999999,-38.5975,-21.902500000000003,465.36125
560,1715374764330,0.97,-3.17,0.36,-23.38,-48.52,417.11
561,1715374764340,0.97,-3.1699999999999995,0.36,-23.38,-48.52,417.11
562,1715374764350,0.97,-3.17,0.36,-23.38,-48.52,417.11
563,1715374764360,1.21,-3.02,0.075,6.3149999999999995,9.154999999999998,397.185
564,1715374764370,1.2900000000000003,-2.97,-0.02,36.01,66.83,377.25999999999993
565,1715374764380,1.29,-2.97,-0.02,36.01,66.83,377.26
566,1715374764390,1.2900000000000003,-2.97,-0.02,36.01,66.83,377.25999999999993
567,1715374764400,2.835,-3.5325,0.2275,27.130000000000003,135.2225,374.9275
568,1715374764410,3.35,-3.72,0.31,24.17,158.02,374.15
569,1715374764420,3.35,-3.72,0.31,24.169999999999998,158.02,374.15
570,1715374764430,3.35,-3.72,0.31,24.17,158.02,374.15
571,1715374764440,6.38,-4.76,-0.63,42.97,-47.73,242.0
572,1715374764450,6.38,-4.76,-0.63,42.96999999999999,-47.73,242.0
573,1715374764460,6.38,-4.76,-0.63,42.97,-47.73,242.0
574,1715374764470,5.92,-4.84125,-0.62375,43.19875,-35.11125,160.10625
575,1715374764480,2.7,-5.410000000000001,-0.58,44.8,53.21999999999999,-413.15
576,1715374764490,2.7,-5.41,-0.58,44.8,53.22,-413.15
577,1715374764500,2.7,-5.41,-0.58,44.8,53.22,-413.15
578,1715374764510,1.59,-5.15,-0.45499999999999996,60.41,119.4125,-360.37
579,1715374764520,0.48,-4.89,-0.33,107.24,317.99000000000007,-202.03
580,1715374764530,0.48,-4.89,-0.33,107.24,317.99,-202.03
581,1715374764540,0.48,-4.89,-0.33,107.24,317.99,-202.03
582,1715374764550,0.45142857142857146,-4.392857142857142,-0.2671428571428572,140.46,265.6928571428571,-220.0957142857143
583,1715374764560,0.43,-4.02,-0.22,223.51,134.95,-265.26
584,1715374764570,0.43,-4.02,-0.22,223.51,134.95,-265.26
585,1715374764580,0.43,-4.02,-0.22,223.51,134.95,-265.26
586,1715374764590,0.16125,-3.45125,-0.1325,249.02874999999997,69.4875,-315.31
587,1715374764600,0.0,-3.11,-0.08,264.34,30.21,-345.34
588,1715374764610,0.0,-3.11,-0.08,264.34,30.21,-345.34
589,1715374764620,0.0,-3.11,-0.08,264.34,30.21,-345.34
590,1715374764630,-0.11375,-2.8475,-0.22,293.71375,-40.60375,-409.74875
591,1715374764640,-0.13,-2.81,-0.24,297.91,-50.71999999999999,-418.95
592,1715374764650,-0.13,-2.81,-0.24,297.91,-50.72,-418.95
593,1715374764660,-0.2842857142857143,-2.69,-0.5485714285714286,302.2557142857143,-87.5,-504.48428571428576
594,1715374764670,-0.31,-2.67,-0.6,302.98,-93.63,-518.74
595,1715374764680,-0.31,-2.67,-0.6,302.98,-93.63,-518.74
596,1715374764690,-0.31,-2.6699999999999995,-0.6,302.98,-93.63,-518.74
597,1715374764700,-0.39749999999999996,-2.495,-0.6875,227.2225,-129.4725,-582.0475
598,1715374764710,-0.41,-2.47,-0.7,201.97,-141.42,-603.15
599,1715374764720,-0.41,-2.47,-0.7,201.97,-141.42,-603.15
600,1715374764730,-0.41,-2.47,-0.7,201.97,-141.42,-603.15
601,1715374764740,-0.21,-2.18,-0.69,40.04,-214.11,-629.7
602,1715374764750,-0.21,-2.18,-0.69,40.04,-214.11,-629.7
603,1715374764760,-0.21,-2.18,-0.69,40.04,-214.11,-629.7
604,1715374764770,-0.10285714285714286,-2.2071428571428573,-0.647142857142857,24.49285714285714,-194.27428571428572,-615.5828571428572
605,1715374764780,0.54,-2.37,-0.39,-68.79,-75.26,-530.88
606,1715374764790,0.54,-2.37,-0.39,-68.79,-75.26,-530.88
607,1715374764800,0.54,-2.37,-0.39,-68.79,-75.26,-530.88
608,1715374764810,0.5085714285714286,-2.3514285714285714,-0.43571428571428567,-63.22714285714286,-46.12857142857143,-511.3142857142857
609,1715374764820,0.32,-2.24,-0.71,-29.85,128.66,-393.92
610,1715374764830,0.32,-2.24,-0.71,-29.85,128.66,-393.92
611,1715374764840,0.32,-2.24,-0.71,-29.85,128.66,-393.92
612,1715374764850,0.125,-1.9100000000000001,-0.8200000000000001,-33.51,125.31875,-379.6625
613,1715374764860,-0.07,-1.58,-0.93,-39.61,119.75,-355.9
614,1715374764870,-0.07,-1.58,-0.93,-39.61,119.75,-355.9
615,1715374764880,-0.07,-1.58,-0.93,-39.61,119.75,-355.9
616,1715374764890,-0.75125,-1.2237500000000001,-0.72375,-64.485,65.185,-402.01
617,1715374764900,-1.16,-1.01,-0.6,-89.36,10.62,-448.12
618,1715374764910,-1.16,-1.01,-0.6,-89.36,10.62,-448.12
619,1715374764920,-1.16,-1.01,-0.6,-89.36,10.62,-448.12
620,1715374764930,-3.77625,-0.37125,0.08249999999999999,-97.795,-41.66125,-383.93
621,1715374764940,-4.15,-0.28,0.18,-99.0,-49.13,-374.76
622,1715374764950,-4.15,-0.28,0.18,-99.0,-49.13,-374.75999999999993
623,1715374764960,-4.15,-0.28,0.18,-99.0,-49.13,-374.76
624,1715374764970,-5.34875,-0.09625,0.7312500000000001,-19.375,22.4275,-63.93375
625,1715374764980,-5.52,-0.07,0.81,-8.0,32.65,-19.53
626,1715374764990,-5.5200000000000005,-0.07,0.8099999999999999,-8.0,32.65,-19.53
627,1715374765000,-5.52,-0.07,0.81,-8.0,32.65,-19.53
628,1715374765010,-4.61,-0.28,0.26,104.92,-162.41,115.3
629,1715374765020,-4.61,-0.28,0.26,104.92,-162.41,115.3
630,1715374765030,-4.61,-0.28,0.26,104.92,-162.41,115.3
631,1715374765040,-4.125,-0.525,0.027499999999999997,134.95,-194.515,154.315
632,1715374765050,-2.67,-1.26,-0.67,225.04,-290.83,271.36
633,1715374765060,-2.6699999999999995,-1.26,-0.67,225.04,-290.83,271.36
634,1715374765070,-2.67,-1.26,-0.67,225.04,-290.83,271.36
635,1715374765080,-1.98375,-1.65375,-1.0225,227.4175,-274.99375,357.88
636,1715374765090,-0.84,-2.31,-1.61,231.38,-248.6,502.08
637,1715374765100,-0.84,-2.31,-1.61,231.37999999999997,-248.6,502.08
638,1715374765110,-0.84,-2.31,-1.61,231.38,-248.6,502.08
639,1715374765120,0.9075,-3.78,-1.4449999999999998,176.495,-218.3825,621.9225
640,1715374765130,1.49,-4.27,-1.39,158.2,-208.31,661.87
641,1715374765140,1.49,-4.27,-1.39,158.2,-208.31,661.87
642,1715374765150,1.49,-4.27,-1.39,158.2,-208.31,661.87
643,1715374765160,1.77875,-4.24375,-1.01375,132.70749999999998,-98.405,669.925
644,1715374765170,1.82,-4.24,-0.96,124.21,-61.77,672.61
645,1715374765180,1.82,-4.24,-0.96,124.21,-61.77,672.61
646,1715374765190,1.82,-4.24,-0.96,124.21,-61.77,672.61
647,1715374765200,1.1985714285714286,-3.8757142857142854,-0.7385714285714285,41.72428571428571,-64.29857142857144,578.3528571428571
648,1715374765210,0.95,-3.73,-0.65,8.73,-65.31,540.65
649,1715374765220,0.95,-3.73,-0.65,8.73,-65.31,540.65
650,1715374765230,0.9514285714285714,-3.698571428571429,-0.5457142857142857,7.831428571428572,-85.01571428571428,518.1285714285714
651,1715374765240,0.96,-3.51,0.08,2.44,-203.25,383.0
652,1715374765250,0.96,-3.5100000000000002,0.08,2.44,-203.25,383.0
653,1715374765260,0.96,-3.51,0.08,2.44,-203.25,383.0
654,1715374765270,0.91125,-3.3187499999999996,0.0575,47.69125,-131.49375,419.61875
655,1715374765280,0.83,-3.0,0.02,123.11,-11.9,480.65
656,1715374765290,0.83,-3.0,0.02,123.11,-11.9,480.65
657,1715374765300,0.83,-3.0,0.02,123.11,-11.9,480.65
658,1715374765310,0.8085714285714286,-2.73,-0.19857142857142857,122.46428571428571,-34.29142857142857,473.3614285714285
659,1715374765320,0.78,-2.37,-0.49,120.85,-90.27,455.14
660,1715374765330,0.78,-2.37,-0.49,120.85,-90.27,455.14
661,1715374765340,0.78,-2.37,-0.48999999999999994,120.85,-90.27,455.14
662,1715374765350,1.26,-2.46,-0.6174999999999999,102.08125,-66.23625,451.15749999999997
663,1715374765360,2.06,-2.61,-0.83,70.8,-26.18,444.52
664,1715374765370,2.06,-2.61,-0.83,70.8,-26.18,444.52
665,1715374765380,2.06,-2.61,-0.83,70.8,-26.18,444.52
666,1715374765390,2.50625,-2.745,-1.09625,71.715,-17.24,437.6375
667,1715374765400,3.25,-2.97,-1.54,74.46,9.58,416.99
668,1715374765410,3.25,-2.97,-1.54,74.46,9.58,416.99
669,1715374765420,3.25,-2.97,-1.5400000000000003,74.46,9.58,416.99000000000007
670,1715374765430,6.8125,-3.435,-2.9275,142.9425,-149.945,286.025
671,1715374765440,8.0,-3.59,-3.39,165.77,-203.12000000000003,242.37000000000003
672,1715374765450,8.0,-3.59,-3.39,165.77,-203.12,242.37
673,1715374765460,8.0,-3.59,-3.39,165.77,-203.12,242.37
674,1715374765470,7.271428571428571,-3.5528571428571425,-3.2114285714285713,122.47000000000001,-182.99714285714285,162.1257142857143
675,1715374765480,2.9,-3.33,-2.14,-137.33,-62.26,-319.34
676,1715374765490,2.9,-3.3300000000000005,-2.14,-137.33,-62.26,-319.34
677,1715374765500,2.9,-3.33,-2.14,-137.33,-62.26,-319.34
678,1715374765510,1.6,-4.27,-0.84,-83.77250000000001,199.6775,-198.9425
679,1715374765520,1.6,-4.27,-0.84,-65.92,286.99,-158.81
680,1715374765530,1.6,-4.27,-0.84,-65.92,286.99,-158.81
681,1715374765540,1.6,-4.27,-0.84,-65.92,286.99,-158.81
682,1715374765550,1.6,-4.27,-0.84,-65.92,286.99,-158.81
683,1715374765560,1.6,-4.27,-0.84,-65.92,286.99,-158.81
684,1715374765570,1.6,-4.27,-0.84,-65.92,286.99,-158.81
685,1715374765580,1.2725,-3.28625,-0.44375,-8.65625,221.52,-242.37625
686,1715374765590,1.02,-2.7,0.17,37.29,141.17,-350.52
687,1715374765600,1.02,-2.7,0.17,37.29,141.17,-350.52
688,1715374765610,1.02,-2.7,0.17,37.29,141.17,-350.52
689,1715374765620,0.8614285714285714,-2.5585714285714287,0.18714285714285714,48.294285714285714,142.07714285714286,-351.3228571428571
690,1715374765630,0.65,-2.37,0.21,114.32,147.52,-356.14
691,1715374765640,0.65,-2.37,0.21,114.32,147.52,-356.14
692,1715374765650,0.65,-2.37,0.21,114.32,147.52,-356.14
693,1715374765660,0.42000000000000004,-2.425,0.045,121.965,125.27250000000001,-387.84749999999997
694,1715374765670,0.19,-2.48,-0.12,144.9,58.53000000000001,-482.96999999999997
695,1715374765680,0.19,-2.48,-0.12,144.9,58.53,-482.97
696,1715374765690,0.19,-2.48,-0.12,144.9,58.53,-482.97
697,1715374765700,0.24000000000000002,-2.81125,-0.23875,100.23125,37.0925,-500.93875
698,1715374765710,0.27,-3.01,-0.31,73.43,24.23,-511.72
699,1715374765720,0.27,-3.0100000000000002,-0.31,73.42999999999999,24.23,-511.71999999999997
700,1715374765730,0.27,-3.01,-0.31,73.43,24.23,-511.72
701,1715374765740,0.32,-3.3314285714285714,-0.18857142857142858,105.65428571428572,96.97571428571429,-475.3342857142857
702,1715374765750,0.34,-3.46,-0.14,148.62,193.97,-426.82
703,1715374765760,0.34,-3.46,-0.14,148.62,193.97,-426.82
704,1715374765770,0.34,-3.46,-0.14,148.62000000000003,193.97,-426.82
705,1715374765780,0.1975,-3.19,-0.4775,175.2075,190.9575,-445.55125
706,1715374765790,0.15,-3.1,-0.59,191.16,189.15,-456.79
707,1715374765800,0.15,-3.1,-0.59,191.16,189.15,-456.79
708,1715374765810,0.15,-3.1,-0.59,191.16,189.15,-456.79
709,1715374765820,-0.26,-2.93,-0.75,166.37999999999997,209.72,-501.34
710,1715374765830,-0.26,-2.93,-0.75,166.38,209.72,-501.34
711,1715374765840,-0.26,-2.93,-0.75,166.38,209.72,-501.34
712,1715374765850,-0.37,-2.7350000000000003,-0.7424999999999999,165.625,204.50125,-495.22125
713,1715374765860,-0.7,-2.15,-0.72,160.34,167.97,-452.39
714,1715374765870,-0.7,-2.15,-0.72,160.34,167.97,-452.39
715,1715374765880,-0.7,-2.15,-0.72,160.34,167.97,-452.39
716,1715374765890,-0.88,-1.7099999999999997,-0.7571428571428571,161.07142857142858,151.4557142857143,-432.70142857142855
717,1715374765900,-1.33,-0.61,-0.85,162.9,110.17,-383.48
718,1715374765910,-1.33,-0.61,-0.85,162.9,110.17,-383.48
719,1715374765920,-1.33,-0.61,-0.85,162.9,110.17,-383.48
720,1715374765930,-3.69,0.11000000000000001,-1.587142857142857,171.37714285714287,95.54714285714286,-357.82142857142856
721,1715374765940,-5.46,0.65,-2.14,182.68,76.05,-323.61
722,1715374765950,-5.46,0.65,-2.14,182.68,76.05,-323.61
723,1715374765960,-5.46,0.65,-2.14,182.68,76.05,-323.61
724,1715374765970,-5.7475,0.5750000000000001,-1.84625,241.84249999999997,-92.13750000000002,-124.94125000000001
725,1715374765980,-5.92,0.53,-1.67,277.34,-193.05,-5.74
726,1715374765990,-5.92,0.53,-1.67,277.34,-193.05,-5.74
727,1715374766000,-5.92,0.53,-1.67,277.34,-193.05,-5.74
728,1715374766010,-3.995,-0.17,-2.53625,299.6175,31.037499999999994,409.71
729,1715374766020,-3.72,-0.27,-2.66,302.8,63.04999999999999,469.06
730,1715374766030,-3.72,-0.27,-2.66,302.8,63.05,469.06
731,1715374766040,-3.72,-0.27,-2.66,302.8,63.05,469.06
732,1715374766050,-1.78,-1.28,-1.84,16.36,-73.85,491.58
733,1715374766060,-1.78,-1.28,-1.84,16.36,-73.85,491.58
734,1715374766070,-1.78,-1.28,-1.84,16.36,-73.85,491.58
735,1715374766080,-1.582857142857143,-1.5742857142857143,-1.6185714285714285,-12.29142857142857,-72.41142857142857,510.83142857142855
736,1715374766090,-0.4,-3.34,-0.29,-184.2,-63.78,626.34
737,1715374766100,-0.4,-3.34,-0.29,-184.2,-63.78,626.34
738,1715374766110,-0.4,-3.34,-0.29,-184.2,-63.78000000000001,626.34
739,1715374766120,-0.4,-3.34,-0.29,-184.2,-63.78,626.34
740,1715374766130,0.5375000000000001,-4.08375,0.21625000000000003,-158.53125,-6.905000000000001,641.22125
741,1715374766140,1.1,-4.53,0.52,-143.13,27.22,650.15
742,1715374766150,1.1,-4.53,0.52,-143.13,27.22,650.15
743,1715374766160,0.92,-4.32,0.655,-127.06125,135.64375,642.3425
744,1715374766170,0.62,-3.97,0.88,-100.28,316.35,629.33
745,1715374766180,0.62,-3.97,0.88,-100.28,316.35,629.33
746,1715374766190,0.62,-3.97,0.88,-100.28,316.35,629.33
747,1715374766200,0.13999999999999999,-3.6671428571428573,0.9714285714285715,-110.15142857142858,283.23285714285714,588.647142857143
748,1715374766210,-0.22,-3.44,1.04,-134.83,200.44,486.94
749,1715374766220,-0.22,-3.44,1.04,-134.83,200.44,486.94
750,1715374766230,-0.22,-3.44,1.04,-134.83,200.44,486.94
751,1715374766240,-0.29714285714285715,-3.2214285714285715,0.9414285714285714,-133.8357142857143,150.47714285714284,461.6714285714285
752,1715374766250,-0.4,-2.93,0.81,-132.51,83.86,427.98
753,1715374766260,-0.4,-2.93,0.81,-132.51,83.86,427.98
754,1715374766270,-0.4,-2.93,0.8099999999999999,-132.51,83.86,427.98
755,1715374766280,-0.3775,-2.585,0.5175,-124.3125,13.6375,397.4025
756,1715374766290,-0.37,-2.47,0.42,-121.58,-9.77,387.21
757,1715374766300,-0.37,-2.47,0.42,-121.58,-9.77,387.21
758,1715374766310,-0.37,-2.47,0.42,-121.58,-9.77,387.21
759,1715374766320,0.29500000000000004,-2.49625,0.6125,-101.30000000000001,-35.9075,402.9525
760,1715374766330,0.39,-2.5,0.64,-94.54,-44.62,408.2
761,1715374766340,0.39,-2.5,0.64,-94.54,-44.62,408.2
762,1715374766350,0.39,-2.5,0.64,-94.54,-44.62,408.2
763,1715374766360,1.66,-2.82,0.39,32.23,160.16,416.75
764,1715374766370,1.66,-2.82,0.39,32.23,160.16,416.75
765,1715374766380,1.66,-2.82,0.39,32.23,160.16,416.75
766,1715374766390,2.2824999999999998,-3.0524999999999998,0.705,-6.970000000000001,171.345,393.6775
767,1715374766400,4.15,-3.75,1.65,-124.57000000000001,204.9,324.46
768,1715374766410,4.15,-3.75,1.65,-124.57,204.9,324.46
769,1715374766420,4.15,-3.75,1.65,-124.57000000000001,204.9,324.46
770,1715374766430,4.858750000000001,-4.50375,1.50375,-86.85249999999999,52.60125000000001,254.67624999999998
771,1715374766440,6.04,-5.76,1.26,-23.99,-201.23,138.37
772,1715374766450,6.04,-5.76,1.26,-23.99,-201.23,138.37
773,1715374766460,6.04,-5.76,1.26,-23.99,-201.23,138.37
774,1715374766470,6.04,-5.76,1.26,-23.99,-201.23,138.37
775,1715374766480,3.3625,-5.55875,0.8049999999999999,144.99,1.9187500000000024,-345.91625
776,1715374766490,2.98,-5.53,0.74,169.12999999999997,30.94,-415.1
777,1715374766500,2.98,-5.53,0.74,169.13,30.94,-415.1
778,1715374766510,1.3571428571428572,-4.930000000000001,0.8942857142857142,190.1242857142857,142.58571428571426,-312.80285714285714
779,1715374766520,0.14,-4.48,1.01,205.87,226.32,-236.08
780,1715374766530,0.14,-4.48,1.01,205.87,226.32,-236.08
781,1715374766540,0.14,-4.48,1.01,205.87,226.32,-236.08
782,1715374766550,0.11000000000000001,-4.0,0.8674999999999999,278.38,80.88749999999999,-271.33
783,1715374766560,0.1,-3.84,0.82,302.55,32.41,-283.08
784,1715374766570,0.1,-3.84,0.82,302.55,32.41,-283.08
785,1715374766580,0.1,-3.84,0.82,302.55,32.41,-283.08
786,1715374766590,-0.15714285714285717,-3.154285714285714,0.3842857142857143,343.5785714285715,-13.668571428571429,-311.1585714285714
787,1715374766600,-0.26,-2.88,0.21,359.99,-32.1,-322.39
788,1715374766610,-0.26,-2.88,0.21,359.99,-32.1,-322.39
789,1715374766620,-0.26,-2.88,0.21,359.99,-32.1,-322.39
790,1715374766630,-0.55,-2.41,-0.2,362.6042857142857,-117.00857142857141,-405.61857142857144
791,1715374766640,-0.55,-2.41,-0.2,363.04,-131.16,-419.49
792,1715374766650,-0.55,-2.41,-0.2,363.04,-131.16,-419.49000000000007
793,1715374766660,-0.55,-2.41,-0.2,363.04,-131.16,-419.49
794,1715374766670,-0.4642857142857143,-2.4314285714285715,-0.15,277.5042857142857,-138.92428571428573,-469.5828571428571
795,1715374766680,-0.43,-2.44,-0.13,243.29,-142.03,-489.62
796,1715374766690,-0.43,-2.44,-0.13,243.29,-142.03,-489.62
797,1715374766700,-0.3657142857142857,-2.4771428571428573,-0.09857142857142857,237.49142857142857,-142.98857142857145,-493.5971428571429
798,1715374766710,0.02,-2.7,0.09,202.7,-148.74,-517.46
799,1715374766720,0.02,-2.7,0.09,202.7,-148.74,-517.46
800,1715374766730,0.02,-2.7,0.09,202.7,-148.74,-517.46
801,1715374766740,0.02,-2.7,0.09,202.7,-148.74,-517.46
802,1715374766750,0.2825,-2.6475,-0.06,153.125,-113.04,-522.2149999999999
803,1715374766760,0.37,-2.63,-0.11,136.6,-101.14,-523.8
804,1715374766770,0.37,-2.63,-0.11,136.6,-101.14,-523.8
805,1715374766780,0.515,-2.705,-0.18,136.6,-101.14,-523.8
806,1715374766790,0.66,-2.78,-0.25,111.39,-44.74,-475.71
807,1715374766800,0.66,-2.78,-0.25,111.39,-44.74,-475.71
808,1715374766810,0.66,-2.78,-0.25,111.39,-44.74,-475.71
809,1715374766820,0.66,-2.78,-0.25,111.39,-44.74,-475.71
810,1715374766830,0.66,-2.78,-0.25,111.39,-44.74,-475.71
811,1715374766840,0.40375,-2.4675,-0.5375,114.05875,-20.29,-453.92875
812,1715374766850,0.25,-2.28,-0.71,115.66,-5.62,-440.86
813,1715374766860,-0.4375,-1.71125,-0.735,78.885,-64.82000000000001,-444.29125
814,1715374766870,-0.85,-1.37,-0.75,56.82,-100.34,-446.35
815,1715374766880,-0.85,-1.37,-0.75,56.82,-100.34,-446.35
816,1715374766890,-0.85,-1.3699999999999999,-0.75,56.82,-100.34,-446.35
817,1715374766900,-3.5012499999999998,-0.40750000000000003,0.05500000000000001,15.70375,-63.65125,-409.1275
818,1715374766910,-3.88,-0.27,0.17,9.83,-58.41,-403.81
819,1715374766920,-3.88,-0.27,0.17,9.83,-58.410000000000004,-403.81
820,1715374766930,-3.88,-0.27,0.17,9.83,-58.41,-403.81
821,1715374766940,-6.2299999999999995,-0.29,0.53,80.81857142857143,-115.06714285714285,-206.41857142857143
822,1715374766950,-6.23,-0.29,0.53,92.65,-124.51,-173.52
823,1715374766960,-6.23,-0.29,0.53,92.65,-124.51,-173.52
824,1715374766970,-6.235714285714287,-0.2742857142857143,0.48000000000000004,92.65,-124.51,-173.52
825,1715374766980,-6.27,-0.18,0.18,120.54,-61.65,139.77
826,1715374766990,-6.27,-0.18,0.18,120.54,-61.65,139.77
827,1715374767000,-6.2700000000000005,-0.18,0.18,120.54,-61.65,139.77
828,1715374767010,-5.1225,-0.70875,0.16874999999999998,156.13125,-120.24375,211.15875
829,1715374767020,-3.21,-1.59,0.15,215.45,-217.9,330.14
830,1715374767030,-3.21,-1.59,0.15,215.45,-217.9,330.14
831,1715374767040,-3.21,-1.59,0.15,215.45,-217.9,330.14
832,1715374767050,-1.685,-2.34,-0.575,236.00375,-194.9425,390.45125
833,1715374767060,-0.77,-2.79,-1.01,270.26,-156.68,490.97
834,1715374767070,-0.7700000000000001,-2.79,-1.01,270.26,-156.68,490.96999999999997
835,1715374767080,-0.77,-2.79,-1.01,270.26,-156.68,490.97
836,1715374767090,0.0062500000000000056,-3.135,-1.07375,257.3975,-151.9625,502.4825
837,1715374767100,1.3,-3.71,-1.18,235.96,-144.1,521.67
838,1715374767110,1.3,-3.71,-1.18,235.96,-144.1,521.67
839,1715374767120,1.3,-3.71,-1.18,235.96,-144.1,521.67
840,1715374767130,1.7428571428571427,-3.6814285714285715,-1.1157142857142859,233.78142857142856,-23.035714285714285,543.3342857142858
841,1715374767140,1.92,-3.6699999999999995,-1.09,232.91,25.390000000000004,552.0
842,1715374767150,1.92,-3.67,-1.09,232.91,25.39,552.0
843,1715374767160,1.92,-3.67,-1.09,232.91,25.39,552.0
844,1715374767170,1.7485714285714287,-3.3785714285714286,-0.4985714285714286,155.9557142857143,51.755714285714284,500.2114285714286
845,1715374767180,1.72,-3.33,-0.4,143.13,56.15,491.58
846,1715374767190,1.72,-3.33,-0.4,143.13,56.15,491.58
847,1715374767200,1.72,-3.33,-0.4,143.13,56.15,491.58
848,1715374767210,0.93,-2.89,-0.06,86.12,163.87999999999997,473.50999999999993
849,1715374767220,0.93,-2.89,-0.06,86.12,163.88,473.51
850,1715374767230,0.93,-2.89,-0.06,86.12,163.88,473.51
851,1715374767240,0.86375,-2.86375,-0.055,78.125,157.16625,475.07375
852,1715374767250,0.4,-2.68,-0.02,22.16,110.17,486.02
853,1715374767260,0.4,-2.68,-0.02,22.16,110.17,486.02
854,1715374767270,0.4,-2.68,-0.02,22.16,110.17,486.02
855,1715374767280,0.4857142857142857,-2.8085714285714287,0.12142857142857143,22.91857142857143,101.74857142857142,494.81
856,1715374767290,0.6,-2.98,0.31,23.93,90.52,506.53
857,1715374767300,0.6,-2.98,0.31,23.93,90.52,506.53
858,1715374767310,0.6,-2.98,0.31,23.93,90.52,506.53000000000003
859,1715374767320,0.69,-2.845,0.325,29.04,118.03,529.86
860,1715374767330,0.84,-2.62,0.35,44.37,200.56,599.85
861,1715374767340,0.84,-2.62,0.3499999999999999,44.37,200.56000000000003,599.85
862,1715374767350,0.84,-2.62,0.35,44.37,200.56,599.85
863,1715374767360,1.45,-2.725,0.044999999999999984,19.74375,187.675,587.01
864,1715374767370,2.06,-2.83,-0.26,-21.3,166.2,565.61
865,1715374767380,2.06,-2.8300000000000005,-0.26,-21.3,166.2,565.61
866,1715374767390,2.06,-2.83,-0.26,-21.3,166.2,565.61
867,1715374767400,4.1525,-4.015000000000001,0.49,-112.30499999999999,278.9475,517.775
868,1715374767410,4.85,-4.41,0.74,-142.64,316.53000000000003,501.83
869,1715374767420,4.85,-4.41,0.74,-142.64,316.53,501.83
870,1715374767430,4.85,-4.41,0.74,-142.64,316.53,501.83
871,1715374767440,6.04,-6.125,0.9149999999999999,-64.56375,70.2175,168.04375
872,1715374767450,6.21,-6.37,0.94,-53.41,35.03,120.36
873,1715374767460,6.21,-6.37,0.9400000000000001,-53.410000000000004,35.03,120.36
874,1715374767470,6.21,-6.37,0.94,-53.41,35.03,120.36
875,1715374767480,1.52,-5.7,0.06,133.67375,32.5275,-383.99875000000003
876,1715374767490,1.52,-5.7,0.06,160.4,32.17,-456.05
877,1715374767500,1.52,-5.7,0.06,160.4,32.17,-456.05
878,1715374767510,1.38625,-5.53125,0.1,166.03875,64.5175,-416.3625
879,1715374767520,0.45,-4.35,0.38,205.51,290.95,-138.55
880,1715374767530,0.45,-4.35,0.38,205.51,290.95,-138.55
881,1715374767540,0.45,-4.35,0.38,205.51,290.95,-138.55
882,1715374767550,0.3985714285714286,-4.178571428571429,0.37714285714285717,229.06714285714284,236.8385714285714,-168.00428571428571
883,1715374767560,0.27,-3.75,0.37,287.96,101.56,-241.64
884,1715374767570,0.27,-3.75,0.37,287.96,101.56000000000002,-241.64000000000001
885,1715374767580,0.27,-3.75,0.37,287.96,101.56,-241.64
886,1715374767590,0.11000000000000001,-3.4699999999999998,0.235,333.55499999999995,85.05000000000001,-263.885
887,1715374767600,-0.05,-3.19,0.1,379.15,68.54,-286.13
888,1715374767610,-0.05,-3.19,0.1,379.15,68.54,-286.13
889,1715374767620,-0.05,-3.19,0.1,379.15,68.54,-286.13
890,1715374767630,-0.4025,-2.92,-0.32,431.5675,21.62,-308.795
891,1715374767640,-0.52,-2.8300000000000005,-0.46,449.04,5.9799999999999995,-316.35
892,1715374767650,-0.52,-2.83,-0.46,449.04,5.98,-316.35
893,1715374767660,-0.52,-2.8300000000000005,-0.46,449.04,5.9799999999999995,-316.35
894,1715374767670,-0.6625,-2.605,-0.7000000000000001,442.5525,-11.8325,-333.93125000000003
895,1715374767680,-0.71,-2.53,-0.78,438.66,-22.52,-344.48
896,1715374767690,-0.71,-2.53,-0.78,438.66,-22.52,-344.48
897,1715374767700,-0.71,-2.53,-0.78,438.66,-22.52,-344.48
898,1715374767710,-0.64,-2.35,-0.68,356.93,-34.06,-330.81
899,1715374767720,-0.64,-2.35,-0.68,356.93,-34.06,-330.81
900,1715374767730,-0.64,-2.35,-0.68,356.93,-34.06,-330.81
901,1715374767740,-0.64,-2.35,-0.68,356.93,-34.06,-330.81
902,1715374767750,-0.26,-2.44,-0.38,270.02,-107.97,-377.81
903,1715374767760,-0.26,-2.44,-0.38,270.02,-107.97,-377.81
904,1715374767770,-0.26,-2.44,-0.38,270.02,-107.97,-377.81
905,1715374767780,-0.028571428571428564,-2.5085714285714285,-0.33285714285714285,246.00714285714284,-117.70285714285716,-404.38571428571424
906,1715374767790,0.28,-2.6,-0.27,213.99,-130.68,-439.82
907,1715374767800,0.28,-2.6,-0.27,213.99,-130.68,-439.82
908,1715374767810,0.28,-2.6,-0.27,213.99,-130.68,-439.82
909,1715374767820,0.33,-2.4850000000000003,-0.355,203.46,-88.23,-439.94
910,1715374767830,0.38,-2.37,-0.44,192.93,-45.78,-440.06
911,1715374767840,0.38,-2.37,-0.44,192.93,-45.78,-440.06
912,1715374767850,0.38,-2.37,-0.44,192.93,-45.78000000000001,-440.06
913,1715374767860,0.14750000000000002,-1.9725000000000001,-0.77,150.2425,-41.77375,-455.36
914,1715374767870,0.07,-1.84,-0.88,124.63,-39.37,-464.54
915,1715374767880,0.07,-1.84,-0.88,124.63,-39.37,-464.54
916,1715374767890,0.07,-1.84,-0.88,124.63,-39.37,-464.54
917,1715374767900,-0.524,-1.432,-0.9400000000000001,66.772,-76.798,-482.88800000000003
918,1715374767910,-0.92,-1.16,-0.98,28.2,-101.75,-495.12
919,1715374767920,-0.92,-1.16,-0.98,28.2,-101.75,-495.12
920,1715374767930,-1.3175,-1.035,-0.9725,28.2,-101.75,-495.12
921,1715374767940,-4.1,-0.16,-0.92,-71.78,-13.37,-440.25
922,1715374767950,-4.1,-0.16,-0.92,-71.78,-13.37,-440.25
923,1715374767960,-4.1,-0.16,-0.92,-71.78,-13.37,-440.25
924,1715374767970,-5.488571428571428,0.9285714285714286,-0.041428571428571495,-31.02285714285714,-119.07285714285715,-233.52428571428572
925,1715374767980,-7.34,2.38,1.13,23.320000000000004,-260.01,42.11
926,1715374767990,-7.34,2.38,1.13,23.320000000000004,-260.01,42.11
927,1715374768000,-7.34,2.38,1.13,23.32,-260.01,42.11
928,1715374768010,-7.34,2.38,1.13,23.32,-260.01,42.11
929,1715374768020,-6.691428571428572,1.5942857142857143,0.9814285714285713,1.3628571428571428,-261.9271428571429,54.387142857142855
930,1715374768030,-5.07,-0.37,0.61,-53.53,-266.72,85.08
931,1715374768040,-5.07,-0.37,0.61,-53.53000000000001,-266.72,85.08
932,1715374768050,-3.795,-1.01375,-0.27125000000000005,76.49749999999999,-256.1,222.2025
933,1715374768060,-3.03,-1.4,-0.8,293.21,-238.4,450.74
934,1715374768070,-3.03,-1.4,-0.8,293.21,-238.4,450.74
935,1715374768080,-3.03,-1.4,-0.8,293.21,-238.4,450.74
936,1715374768090,-3.03,-1.4,-0.8,293.21,-238.4,450.74000000000007
937,1715374768100,-3.03,-1.4,-0.8,293.21,-238.4,450.74
938,1715374768110,-2.644285714285714,-1.6085714285714285,-1.0157142857142858,274.3071428571428,-225.07714285714286,490.8142857142857
939,1715374768120,-0.33,-2.86,-2.31,160.89,-145.14,731.26
940,1715374768130,0.9385714285714285,-3.34,-1.9585714285714284,37.36714285714286,-190.39714285714285,588.5457142857142
941,1715374768140,1.15,-3.42,-1.9,16.78,-197.94,564.76
942,1715374768150,1.15,-3.4199999999999995,-1.9,16.78,-197.94,564.76
943,1715374768160,1.1237499999999998,-3.4325,-1.80125,10.798750000000002,-203.9825,546.3725
944,1715374768170,0.94,-3.52,-1.11,-31.07,-246.28,417.66
945,1715374768180,0.9400000000000001,-3.52,-1.11,-31.07,-246.28,417.66
946,1715374768190,0.94,-3.52,-1.11,-31.07,-246.28,417.66
947,1715374768200,0.9175,-3.485,-1.0175,-21.85375,-228.97625,431.50750000000005
948,1715374768210,0.85,-3.38,-0.74,42.660000000000004,-107.85,528.44
949,1715374768220,0.85,-3.38,-0.74,42.66,-107.85,528.44
950,1715374768230,0.85,-3.38,-0.74,42.66,-107.85,528.44
951,1715374768240,0.6185714285714285,-3.114285714285714,-0.6457142857142857,39.26857142857143,-107.82428571428571,517.4185714285715
952,1715374768250,0.31,-2.76,-0.52,18.92,-107.67,451.29
953,1715374768260,0.31,-2.76,-0.52,18.92,-107.67,451.29
954,1715374768270,0.31,-2.76,-0.52,18.92,-107.67,451.29
955,1715374768280,0.23714285714285716,-2.7985714285714285,-0.46,16.548571428571428,-109.48285714285714,449.2242857142857
956,1715374768290,0.14,-2.85,-0.38,2.32,-120.36,436.83
957,1715374768300,0.14,-2.85,-0.38,2.32,-120.36,436.83
958,1715374768310,0.14,-2.85,-0.38,2.32,-120.36,436.83
959,1715374768320,0.215,-2.83,-0.45,6.3774999999999995,-101.2575,454.36249999999995
960,1715374768330,0.29,-2.81,-0.52,18.55,-43.95,506.96
961,1715374768340,0.29,-2.81,-0.52,18.55,-43.95,506.96
962,1715374768350,0.29,-2.81,-0.52,18.55,-43.95,506.96
963,1715374768360,0.74625,-2.785,-0.36375,9.28125,-52.03125,477.585
964,1715374768370,1.02,-2.77,-0.27,3.72,-56.88,459.96
965,1715374768380,1.02,-2.77,-0.27,3.72,-56.88,459.96
966,1715374768390,1.02,-2.77,-0.27,3.72,-56.88,459.96
967,1715374768400,1.937142857142857,-3.087142857142857,-0.75,21.92571428571429,-61.019999999999996,423.54857142857145
968,1715374768410,2.09,-3.14,-0.83,24.96,-61.71,417.48
969,1715374768420,2.09,-3.14,-0.83,24.96,-61.71,417.48
970,1715374768430,2.09,-3.14,-0.83,24.96,-61.71,417.48
971,1715374768440,4.2425,-4.5925,-0.75125,0.6400000000000006,23.13,432.77
972,1715374768450,4.55,-4.8,-0.74,-23.68,107.97,448.06
973,1715374768460,4.55,-4.8,-0.74,-23.68,107.97,448.06
974,1715374768470,4.99,-4.9075,-0.8325,5.342499999999999,60.4075,339.845
975,1715374768480,6.31,-5.2299999999999995,-1.11,92.41,-82.28,15.2
976,1715374768490,6.31,-5.23,-1.11,92.41,-82.28,15.2
977,1715374768500,6.31,-5.23,-1.11,92.41,-82.28,15.2
978,1715374768510,5.158571428571428,-5.175714285714286,-1.1185714285714285,65.43285714285715,-53.26,-110.91714285714285
979,1715374768520,2.28,-5.04,-1.14,-2.01,19.29,-426.21
980,1715374768530,2.28,-5.04,-1.14,-2.01,19.29,-426.21
981,1715374768540,2.28,-5.04,-1.14,-2.01,19.29,-426.21
982,1715374768550,1.53,-4.615,-0.64625,59.67375,104.08874999999999,-356.67375
983,1715374768560,1.08,-4.36,-0.35,162.48,245.42,-240.78
984,1715374768570,1.08,-4.36,-0.35,162.48,245.42,-240.78
985,1715374768580,1.08,-4.36,-0.35,162.48,245.42,-240.78
986,1715374768590,0.8014285714285714,-3.6957142857142857,-0.42857142857142855,190.27428571428572,163.49428571428572,-318.59142857142854
987,1715374768600,0.69,-3.43,-0.46,211.12,102.05,-376.95
988,1715374768610,0.69,-3.43,-0.46,211.12,102.05,-376.95
989,1715374768620,0.69,-3.43,-0.46,211.12,102.05,-376.95
990,1715374768630,0.21857142857142858,-3.0785714285714287,-0.39142857142857146,223.10285714285715,67.99571428571429,-469.39285714285717
991,1715374768640,0.14,-3.02,-0.38,225.1,62.32,-484.8
992,1715374768650,0.14,-3.02,-0.38,225.1,62.32,-484.8
993,1715374768660,0.14,-3.02,-0.38,225.1,62.32,-484.8
994,1715374768670,-0.45,-2.68,-0.64,229.2125,49.76375,-521.1212499999999
995,1715374768680,-0.45,-2.68,-0.64,229.8,47.97,-526.31
996,1715374768690,-0.45,-2.68,-0.64,229.8,47.97,-526.31
997,1715374768700,-0.45,-2.68,-0.64,229.8,47.96999999999999,-526.31
998,1715374768710,-0.42374999999999996,-2.44375,-0.5525,156.5275,17.16125,-501.36375
999,1715374768720,-0.42,-2.41,-0.54,146.06,12.76,-497.8
1000,1715374768730,-0.42,-2.41,-0.54,146.06,12.76,-497.8
1001,1715374768740,-0.42,-2.41,-0.54,146.06,12.76,-497.8
