id,timestamp,acc_x,acc_y,acc_z,gyro_x,gyro_y,gyro_z
0,1715374667670,-0.10000000000000002,0.36999999999999994,0.91,50.169999999999995,-31.429999999999996,8.24
1,1715374667680,-0.07428571428571429,0.35571428571428576,0.9014285714285715,50.17,-31.43,8.24
2,1715374667690,-0.01,0.32,0.88,27.59,-41.87,18.68
3,1715374667700,-0.01,0.32,0.88,27.59,-41.87,18.68
4,1715374667710,-0.01,0.32,0.88,27.59,-41.87,18.68
5,1715374667720,0.03125,0.37625,0.92125,27.27,-45.47,18.77
6,1715374667730,0.1,0.47,0.99,26.31,-56.27,19.04
7,1715374667740,0.1,0.47000000000000003,0.99,26.31,-56.27,19.04
8,1715374667750,0.1,0.47,0.99,26.31,-56.27,19.04
9,1715374667760,0.1075,0.59,1.06125,22.919999999999998,-49.29125,11.487499999999999
10,1715374667770,0.12,0.79,1.18,17.27,-37.66,-1.1
11,1715374667780,0.12,0.79,1.18,17.27,-37.660000000000004,-1.1
12,1715374667790,0.12,0.79,1.18,17.27,-37.66,-1.1
13,1715374667800,0.095,0.6212500000000001,1.03,-16.880000000000003,-13.639999999999997,1.9200000000000002
14,1715374667810,0.08,0.52,0.9400000000000001,-51.03000000000001,10.38,4.94
15,1715374667820,0.08,0.52,0.94,-51.03,10.38,4.94
16,1715374667830,0.08,0.52,0.94,-51.03,10.38,4.94
17,1715374667840,0.02,0.4685714285714286,0.9228571428571428,-61.66571428571429,9.944285714285714,-1.4242857142857144
18,1715374667850,0.01,0.46,0.92,-65.92,9.77,-3.97
19,1715374667860,0.01,0.46,0.92,-65.92,9.77,-3.97
20,1715374667870,0.01,0.46,0.92,-65.92,9.77,-3.97
21,1715374667880,-0.05,0.31,0.85,-42.58375,6.9875,-3.27
22,1715374667890,-0.05,0.31,0.85,-39.25,6.59,-3.17
23,1715374667900,-0.05,0.31,0.85,-39.25,6.589999999999999,-3.1699999999999995
24,1715374667910,-0.0425,0.2975,0.82875,-39.25,6.59,-3.17
25,1715374667920,0.01,0.21,0.68,-51.121428571428574,1.2585714285714287,19.21857142857143
26,1715374667930,0.01,0.21,0.68,-53.1,0.37,22.95
27,1715374667940,0.01,0.21,0.68,-53.1,0.37,22.95
28,1715374667950,0.0071428571428571435,0.19857142857142857,0.5928571428571429,-53.26571428571429,-2.15,22.775714285714287
29,1715374667960,-0.01,0.13,0.07,-54.26,-17.27,21.73
30,1715374667970,-0.01,0.13,0.07,-54.26,-17.27,21.73
31,1715374667980,-0.01,0.13,0.07,-54.26,-17.27,21.73
32,1715374667990,-0.0012500000000000002,0.0975,0.0050000000000000044,-53.28375,-30.072499999999998,23.13375
33,1715374668000,0.06,-0.13,-0.45,-46.45,-119.69,32.96
34,1715374668010,0.06,-0.13,-0.45,-46.45,-119.68999999999998,32.96
35,1715374668020,0.06,-0.13,-0.45,-46.45,-119.69,32.96
36,1715374668030,0.22875,-0.1975,-0.48375,-68.995,-132.9425,47.495000000000005
37,1715374668040,0.51,-0.31,-0.54,-106.57000000000001,-155.03,71.72
38,1715374668050,0.51,-0.31,-0.54,-106.57,-155.03,71.72
39,1715374668060,0.51,-0.31,-0.54,-106.57,-155.03,71.72
40,1715374668070,0.74,-0.545,-0.5,-170.655,-162.965,61.435
41,1715374668080,0.97,-0.78,-0.46,-234.74,-170.9,51.15
42,1715374668090,0.97,-0.78,-0.46,-234.74,-170.9,51.15
43,1715374668100,0.97,-0.78,-0.46,-234.74,-170.9,51.15
44,1715374668110,1.6,-1.2825,0.29000000000000004,-309.035,-214.7975,44.97
45,1715374668120,1.81,-1.45,0.54,-333.8,-229.43,42.910000000000004
46,1715374668130,1.81,-1.45,0.54,-333.8,-229.43,42.91
47,1715374668140,1.81,-1.45,0.54,-333.8,-229.43,42.910000000000004
48,1715374668150,2.2824999999999998,-1.9675,2.16,-361.6775,-149.6,-20.855
49,1715374668160,2.44,-2.14,2.7,-370.97,-122.99,-42.11
50,1715374668170,2.44,-2.14,2.7,-370.96999999999997,-122.99,-42.11
51,1715374668180,2.44,-2.14,2.7,-370.97,-122.99,-42.11
52,1715374668190,1.945,-2.1550000000000002,2.67375,-357.07625,-57.34625,-24.4175
53,1715374668200,1.12,-2.18,2.63,-333.92,52.06,5.07
54,1715374668210,1.12,-2.18,2.63,-333.92,52.06,5.07
55,1715374668220,1.12,-2.18,2.63,-333.92,52.06,5.07
56,1715374668230,0.99,-1.31,2.15,-52.25,-164.43,-44.68
57,1715374668240,0.99,-1.31,2.15,-52.25,-164.43,-44.68
58,1715374668250,0.99,-1.31,2.15,-52.25,-164.43,-44.68
59,1715374668260,0.99,-1.31,2.15,-52.25,-164.43,-44.68
60,1715374668270,0.99,-1.31,2.15,-52.25,-164.43,-44.68
61,1715374668280,0.99,-1.31,2.15,-52.25,-164.43,-44.68
62,1715374668290,0.99,-1.31,2.15,-52.25,-164.43,-44.68
63,1715374668300,0.86125,-1.1025,2.09875,-44.8025,-138.68,-41.10125
64,1715374668310,0.19,-0.28,1.7,-39.06,-5.92,-20.51
65,1715374668320,0.19,-0.28,1.7,-39.06,-5.92,-20.51
66,1715374668330,0.19,-0.28,1.7,-39.06,-5.92,-20.51
67,1715374668340,0.0642857142857143,-0.1942857142857143,1.697142857142857,-12.554285714285715,-0.07714285714285728,-20.841428571428573
68,1715374668350,-0.25,0.02,1.69,53.71,14.53,-21.67
69,1715374668360,-0.25,0.02,1.69,53.71,14.53,-21.67
70,1715374668370,-0.25,0.02,1.69,53.71,14.53,-21.669999999999998
71,1715374668380,-0.42,-0.04,1.74,63.8425,42.1175,-5.692500000000001
72,1715374668390,-0.59,-0.1,1.79,94.24,124.88,42.24
73,1715374668400,-0.59,-0.1,1.7900000000000003,94.24,124.88,42.24
74,1715374668410,-0.59,-0.1,1.79,94.24,124.88,42.24
75,1715374668420,-0.5774999999999999,-0.28750000000000003,1.6775,106.55499999999999,164.95625,70.50375
76,1715374668430,-0.57,-0.4,1.61,127.08,231.75,117.61
77,1715374668440,-0.57,-0.4,1.61,127.08,231.75,117.61
78,1715374668450,-0.57,-0.4,1.61,127.08,231.75,117.61
79,1715374668460,-0.26999999999999996,-0.96875,1.72875,219.5425,193.94375,140.07875
80,1715374668470,-0.09,-1.31,1.8,275.02,171.26,153.56
81,1715374668480,-0.09,-1.31,1.8,275.02,171.26,153.56
82,1715374668490,-0.09,-1.31,1.8,275.02,171.26,153.56
83,1715374668500,0.765,-1.7000000000000002,2.265,291.4075,259.43,191.28500000000003
84,1715374668510,1.05,-1.83,2.4199999999999995,296.87,288.82,203.85999999999999
85,1715374668520,1.05,-1.83,2.42,296.87,288.82,203.86
86,1715374668530,1.05,-1.83,2.42,296.87,288.82,203.86
87,1715374668540,1.2,-2.28,2.31,408.33,210.14000000000001,206.85
88,1715374668550,1.2,-2.28,2.31,408.33,210.14,206.85
89,1715374668560,1.2,-2.28,2.31,408.33,210.14,206.85
90,1715374668570,1.1475,-2.1875,1.98,408.33,210.14,206.85
91,1715374668580,0.99,-1.91,0.99,544.62,86.55,168.33
92,1715374668590,0.99,-1.91,0.99,544.62,86.55,168.33
93,1715374668600,0.95625,-1.775,0.87375,533.4575,73.96124999999999,165.88125000000002
94,1715374668610,0.72,-0.83,0.06,455.32,-14.16,148.74
95,1715374668620,0.72,-0.83,0.06,455.32,-14.16,148.74
96,1715374668630,0.72,-0.83,0.06,455.32,-14.16,148.74
97,1715374668640,0.46875,-0.66125,-0.5587500000000001,420.00624999999997,-74.2875,127.0875
98,1715374668650,0.05,-0.38,-1.59,361.15,-174.5,91.0
99,1715374668660,0.05,-0.38,-1.59,361.15,-174.5,91.0
100,1715374668670,0.05,-0.38,-1.59,361.15,-174.5,91.0
101,1715374668680,-0.043750000000000004,-0.38,-1.6125,335.19374999999997,-184.61625,92.80125
102,1715374668690,-0.2,-0.38,-1.65,153.5,-255.43,105.41
103,1715374668700,-0.2,-0.38,-1.65,153.5,-255.43,105.41
104,1715374668710,-0.2,-0.38,-1.65,153.5,-255.43,105.41
105,1715374668720,-0.095,-0.6275,-1.48875,29.881249999999998,-229.47625,152.92625
106,1715374668730,0.08,-1.04,-1.22,-176.15,-186.22,232.12
107,1715374668740,0.08,-1.04,-1.22,-176.15,-186.22,232.12000000000003
108,1715374668750,0.08,-1.04,-1.22,-176.15,-186.22,232.12
109,1715374668760,0.5675,-1.2337500000000001,-0.9575,-237.98749999999998,-220.20749999999998,247.6075
110,1715374668770,0.86,-1.35,-0.8,-275.09,-240.6,256.9
111,1715374668780,0.86,-1.35,-0.8,-275.09,-240.6,256.9
112,1715374668790,0.86,-1.35,-0.8,-275.09,-240.6,256.9
113,1715374668800,1.0350000000000001,-1.28,-0.40625,-277.07124999999996,-227.09375,258.3125
114,1715374668810,1.06,-1.27,-0.35,-278.26,-218.99,259.16
115,1715374668820,1.06,-1.27,-0.35,-278.26,-218.99,259.16
116,1715374668830,1.06,-1.27,-0.35,-278.26,-218.99,259.16
117,1715374668840,0.94,-1.3,-0.49,-334.9,-195.5,242.42999999999998
118,1715374668850,0.9400000000000001,-1.3,-0.48999999999999994,-334.9,-195.5,242.43
119,1715374668860,0.94,-1.3,-0.49,-334.9,-195.5,242.43
120,1715374668870,0.9924999999999999,-1.3800000000000001,-0.385,-333.2675,-209.8725,240.1875
121,1715374668880,1.15,-1.6199999999999999,-0.07,-328.37,-252.99,233.46
122,1715374668890,1.15,-1.62,-0.07,-328.37,-252.99,233.46
123,1715374668900,1.15,-1.62,-0.07,-328.37,-252.99,233.46
124,1715374668910,1.252857142857143,-1.6857142857142857,0.04999999999999999,-322.0128571428572,-250.0257142857143,234.49714285714285
125,1715374668920,1.51,-1.85,0.35,-283.87,-232.24,240.72
126,1715374668930,1.51,-1.85,0.35,-283.87,-232.24,240.72
127,1715374668940,1.51,-1.85,0.35,-283.87,-232.24,240.72
128,1715374668950,1.7614285714285713,-2.3757142857142854,0.3385714285714286,-298.4871428571428,-190.00571428571428,260.9485714285714
129,1715374668960,1.95,-2.77,0.33,-309.45,-158.33,276.12
130,1715374668970,1.95,-2.77,0.33,-309.45,-158.33,276.12
131,1715374668980,1.95,-2.77,0.33,-309.45,-158.33,276.12
132,1715374668990,2.76875,-2.55125,0.73625,-303.84375,-167.2175,304.8825
133,1715374669000,3.26,-2.42,0.98,-300.48,-172.55,322.14
134,1715374669010,3.2600000000000002,-2.4199999999999995,0.9799999999999999,-300.48,-172.55,322.14
135,1715374669020,3.26,-2.42,0.98,-300.48,-172.55,322.14
136,1715374669030,3.1287499999999997,-1.41375,2.0999999999999996,-275.87375000000003,-21.7125,185.54
137,1715374669040,3.11,-1.27,2.26,-261.11,68.79,103.58
138,1715374669050,3.11,-1.27,2.26,-261.11,68.79,103.58
139,1715374669060,3.11,-1.27,2.26,-261.11,68.79,103.58
140,1715374669070,1.72,-2.14,1.39,-46.33,174.32,-14.34
141,1715374669080,1.72,-2.14,1.39,-46.33,174.32,-14.34
142,1715374669090,1.72,-2.14,1.39,-46.33,174.32,-14.34
143,1715374669100,1.69,-1.9875,1.15,-46.33,174.32,-14.34
144,1715374669110,1.6,-1.53,0.43,183.84,37.29,-6.65
145,1715374669120,1.6,-1.53,0.43,183.84,37.29,-6.65
146,1715374669130,1.6,-1.53,0.43,183.84,37.29,-6.65
147,1715374669140,1.6,-1.1657142857142857,0.41714285714285715,198.32999999999998,11.288571428571428,-33.645714285714284
148,1715374669150,1.6,-0.68,0.4,217.65,-23.38,-69.64
149,1715374669160,1.6,-0.68,0.4,217.65,-23.38,-69.64
150,1715374669170,1.6,-0.68,0.4,217.65,-23.38,-69.64
151,1715374669180,1.4700000000000002,-0.575,0.5800000000000001,201.845,14.495,-99.18
152,1715374669190,1.34,-0.47000000000000003,0.76,186.04,52.37,-128.72
153,1715374669200,1.34,-0.47,0.76,186.04,52.37,-128.72
154,1715374669210,1.34,-0.47,0.76,186.04,52.37,-128.72
155,1715374669220,1.2257142857142858,-0.34142857142857136,0.6171428571428572,194.6257142857143,96.44142857142856,-149.3414285714286
156,1715374669230,1.18,-0.29,0.56,198.06,114.07,-157.59
157,1715374669240,1.18,-0.29,0.56,198.06,114.07,-157.59
158,1715374669250,1.18,-0.29,0.56,198.06,114.07,-157.59
159,1715374669260,1.5057142857142858,-0.4957142857142857,0.62,251.68285714285713,134.78714285714287,-253.0157142857143
160,1715374669270,1.56,-0.53,0.63,260.62,138.24,-268.92
161,1715374669280,1.56,-0.53,0.63,260.62,138.24,-268.92
162,1715374669290,1.56,-0.53,0.63,260.62,138.24,-268.92
163,1715374669300,1.7525,-1.1425,0.63875,291.9325,160.215,-288.46500000000003
164,1715374669310,1.78,-1.23,0.64,302.37,167.54,-294.98
165,1715374669320,1.78,-1.23,0.64,302.37,167.54,-294.98
166,1715374669330,1.78,-1.23,0.64,302.37,167.54,-294.98
167,1715374669340,2.48,-1.3699999999999999,0.88,330.44,229.74,-399.71999999999997
168,1715374669350,2.48,-1.37,0.88,330.44,229.74,-399.72
169,1715374669360,2.48,-1.3699999999999999,0.88,330.44,229.74,-399.71999999999997
170,1715374669370,2.48,-1.37,0.88,330.44,229.74,-399.72
171,1715374669380,2.077142857142857,-1.5585714285714285,0.52,331.2542857142857,236.12142857142857,-383.45142857142855
172,1715374669390,1.54,-1.81,0.04,332.34,244.63,-361.76
173,1715374669400,1.54,-1.81,0.04,332.34,244.63,-361.76
174,1715374669410,1.3942857142857144,-1.6071428571428572,-0.05714285714285714,332.34,244.62999999999997,-361.75999999999993
175,1715374669420,1.03,-1.1,-0.3,367.375,61.658750000000005,-384.34375
176,1715374669430,1.03,-1.1,-0.3,372.38,35.52,-387.57
177,1715374669440,1.03,-1.1,-0.3,372.38,35.52,-387.57
178,1715374669450,1.03,-1.1,-0.3,372.38,35.52,-387.57
179,1715374669460,1.03,-1.1,-0.3,372.38,35.52,-387.57
180,1715374669470,1.03,-1.1,-0.3,372.38,35.52,-387.57
181,1715374669480,1.03,-1.1,-0.3,372.38,35.52,-387.57
182,1715374669490,0.38,-0.86875,-0.25,372.38,35.52,-387.57
183,1715374669500,-0.1175,-0.70875,-0.2275,339.61125,26.548750000000002,-355.16125
184,1715374669510,-0.87,-0.56,-0.28,110.23,-36.25,-128.3
185,1715374669520,-0.87,-0.56,-0.28,110.23,-36.25,-128.3
186,1715374669530,-0.9325,-0.6975,-0.43625,-9.438749999999995,14.712499999999999,28.756249999999994
187,1715374669540,-0.97,-0.78,-0.53,-81.24,45.29,122.99
188,1715374669550,-0.97,-0.78,-0.53,-81.24,45.29,122.99
189,1715374669560,-0.97,-0.78,-0.53,-81.24,45.29,122.99
190,1715374669570,-0.97,-0.78,-0.53,-81.24,45.29,122.99
191,1715374669580,-0.47000000000000003,-1.36,-0.79,-206.97,14.040000000000001,361.50999999999993
192,1715374669590,-0.47,-1.36,-0.79,-206.97,14.04,361.51
193,1715374669600,-0.1175,-1.415,-0.7625000000000001,-226.18,-19.575000000000003,387.97
194,1715374669610,0.94,-1.58,-0.68,-283.81,-120.42,467.35
195,1715374669620,0.9400000000000001,-1.58,-0.68,-283.81,-120.42,467.35
196,1715374669630,0.94,-1.58,-0.68,-283.81,-120.42,467.35
197,1715374669640,1.105,-1.5250000000000001,-0.5775,-275.1275,-156.385,445.6825
198,1715374669650,1.6,-1.36,-0.27,-249.08,-264.28,380.68
199,1715374669660,1.6,-1.36,-0.27,-249.08,-264.28,380.68
200,1715374669670,1.6,-1.36,-0.27,-249.08,-264.28,380.68
201,1715374669680,1.64125,-1.21375,-0.07875000000000001,-208.73000000000002,-273.54999999999995,356.53
202,1715374669690,1.7099999999999997,-0.97,0.24,-141.48,-289.0,316.28000000000003
203,1715374669700,1.71,-0.97,0.24,-141.48,-289.0,316.28
204,1715374669710,1.7099999999999997,-0.97,0.24,-141.48,-289.0,316.28000000000003
205,1715374669720,1.5825,-0.8687499999999999,0.1275,-123.46499999999999,-268.0825,298.79375
206,1715374669730,1.37,-0.7,-0.06,-93.44,-233.22,269.65
207,1715374669740,1.3699999999999999,-0.7,-0.06,-93.43999999999998,-233.22,269.65
208,1715374669750,1.3699999999999999,-0.7,-0.06,-93.43999999999998,-233.22,269.65
209,1715374669760,1.3650000000000002,-0.825,-0.024999999999999998,-91.61,-225.22,288.265
210,1715374669770,1.36,-0.95,0.01,-89.78,-217.22,306.88
211,1715374669780,1.36,-0.95,0.01,-89.78,-217.22,306.88
212,1715374669790,1.36,-0.95,0.01,-89.78,-217.22,306.88
213,1715374669800,1.6825,-1.115,-0.0575,-164.81,-132.035,289.675
214,1715374669810,1.79,-1.17,-0.08,-189.82,-103.64,283.94
215,1715374669820,1.79,-1.17,-0.08,-189.82,-103.64,283.94
216,1715374669830,1.7900000000000003,-1.17,-0.08,-189.82,-103.64,283.94
217,1715374669840,2.0875,-1.8875,-0.12375,-221.10125,-103.94624999999999,303.77125
218,1715374669850,2.13,-1.99,-0.13,-239.87,-104.13,315.67
219,1715374669860,2.13,-1.99,-0.13,-239.87,-104.13,315.67
220,1715374669870,2.13,-1.99,-0.13,-239.87000000000003,-104.13,315.67
221,1715374669880,3.1537499999999996,-1.31625,0.535,-217.85,-85.035,271.45
222,1715374669890,3.3,-1.22,0.63,-210.51,-78.67,256.71
223,1715374669900,3.3,-1.22,0.63,-210.51,-78.67,256.71
224,1715374669910,3.2971428571428567,-1.2242857142857144,0.7371428571428572,-210.51,-78.67,256.71
225,1715374669920,3.28,-1.25,1.38,-205.69,125.18,120.73
226,1715374669930,3.28,-1.25,1.38,-205.69,125.18,120.73
227,1715374669940,3.28,-1.25,1.3800000000000001,-205.69,125.17999999999999,120.73
228,1715374669950,2.8825,-1.21625,1.1925,-165.81125,130.4375,100.29
229,1715374669960,2.22,-1.16,0.88,113.34,167.24,-42.79
230,1715374669970,2.22,-1.16,0.88,113.34,167.24,-42.79
231,1715374669980,2.22,-1.16,0.88,113.34,167.24,-42.79
232,1715374669990,2.0,-0.94,0.395,160.6575,130.2225,-68.82
233,1715374670000,1.78,-0.72,-0.09,302.61,19.169999999999998,-146.91
234,1715374670010,1.78,-0.72,-0.09,302.61,19.17,-146.91
235,1715374670020,1.78,-0.72,-0.09,302.61,19.169999999999998,-146.91
236,1715374670030,1.76125,-0.6525,0.12375,278.09625,31.207500000000003,-165.26625
237,1715374670040,1.73,-0.54,0.48,237.24,51.27,-195.86
238,1715374670050,1.73,-0.54,0.48,237.24,51.27,-195.86
239,1715374670060,1.73,-0.54,0.48,237.24,51.27,-195.85999999999999
240,1715374670070,1.555,-0.5025,0.36124999999999996,187.76500000000001,153.04500000000002,-200.8975
241,1715374670080,1.45,-0.48,0.29,158.08,214.11,-203.92
242,1715374670090,1.45,-0.48,0.29,158.08,214.10999999999999,-203.92
243,1715374670100,1.45,-0.48,0.29,158.08,214.11,-203.92
244,1715374670110,1.51125,-0.5762499999999999,0.43,208.93,196.56625,-250.65125
245,1715374670120,1.52,-0.59,0.45,239.44,186.04,-278.69
246,1715374670130,1.52,-0.59,0.45,239.44,186.04,-278.69
247,1715374670140,1.52,-0.59,0.45,239.44,186.04,-278.69
248,1715374670150,2.14125,-1.1675,0.7999999999999999,172.52,381.97875,-269.3975
249,1715374670160,2.23,-1.25,0.85,162.96,409.96999999999997,-268.07
250,1715374670170,2.23,-1.25,0.85,162.96,409.97,-268.07
251,1715374670180,2.2025,-1.30625,0.76125,162.96,409.97,-268.07
252,1715374670190,2.01,-1.7,0.14,166.6725,499.73749999999995,-198.44
253,1715374670200,2.01,-1.7,0.14,167.91,529.66,-175.23
254,1715374670210,2.01,-1.7,0.14,167.91,529.66,-175.23
255,1715374670220,1.9374999999999998,-1.72,0.20750000000000002,236.62,464.65749999999997,-191.48
256,1715374670230,1.72,-1.78,0.41,442.75,269.65,-240.23
257,1715374670240,1.72,-1.78,0.41,442.75,269.65,-240.23
258,1715374670250,1.72,-1.78,0.41,442.75,269.65,-240.23
259,1715374670260,1.385,-1.4500000000000002,0.13,433.595,250.59249999999997,-239.89499999999998
260,1715374670270,1.05,-1.12,-0.15,406.13,193.42,-238.89000000000001
261,1715374670280,1.05,-1.12,-0.15,406.13,193.42,-238.89
262,1715374670290,1.05,-1.12,-0.15,406.13,193.42,-238.89
263,1715374670300,0.49000000000000005,-0.7942857142857144,-0.4985714285714286,410.63,92.21714285714286,-252.25714285714284
264,1715374670310,0.07,-0.55,-0.76,416.63,-42.71999999999999,-270.08
265,1715374670320,0.07,-0.55,-0.76,416.63,-42.72,-270.08
266,1715374670330,0.07,-0.55,-0.76,416.63,-42.72,-270.08
267,1715374670340,-0.5925,-0.05000000000000002,-0.94125,390.56,-120.3825,-242.84375
268,1715374670350,-0.99,0.25,-1.05,347.11,-249.82,-197.45
269,1715374670360,-0.99,0.25,-1.05,347.11,-249.82,-197.45
270,1715374670370,-0.99,0.25,-1.05,347.11,-249.82,-197.45
271,1715374670380,-0.8685714285714285,-3.96508223080413e-18,-0.6642857142857144,130.95285714285714,-239.87714285714287,-20.707142857142852
272,1715374670390,-0.82,-0.1,-0.51,44.49,-235.9,49.99
273,1715374670400,-0.82,-0.1,-0.51,44.49,-235.9,49.99
274,1715374670410,-0.82,-0.1,-0.51,44.49,-235.9,49.99
275,1715374670420,-0.35,-0.39,-0.21,-180.48,-62.74,235.47
276,1715374670430,-0.35,-0.39,-0.21,-180.48,-62.74,235.47
277,1715374670440,-0.35,-0.39,-0.21,-180.48,-62.74,235.47
278,1715374670450,-0.35,-0.39,-0.21,-180.48,-62.74,235.47
279,1715374670460,0.13,-1.23,-0.29,-286.99,-45.72,362.3
280,1715374670470,0.13,-1.23,-0.29,-286.99,-45.72,362.3
281,1715374670480,0.13,-1.23,-0.29,-286.99,-45.71999999999999,362.3
282,1715374670490,0.24125000000000002,-1.26125,-0.26249999999999996,-274.7975,-60.87125,373.09625
283,1715374670500,1.02,-1.48,-0.07,-189.45,-166.93,448.67
284,1715374670510,1.02,-1.48,-0.07,-189.45,-166.93,448.67
285,1715374670520,1.02,-1.48,-0.07,-189.45,-166.93,448.67
286,1715374670530,1.08125,-1.4,-0.09125,-189.45,-166.93,448.67
287,1715374670540,1.51,-0.84,-0.24,-58.96,-196.84,333.25
288,1715374670550,1.51,-0.84,-0.24,-58.96,-196.84,333.25
289,1715374670560,1.51,-0.84,-0.24,-58.96,-196.84,333.25
290,1715374670570,1.47375,-0.8262499999999999,-0.285,-64.735,-189.27125,322.7675
291,1715374670580,1.22,-0.73,-0.6,-105.16,-136.29,249.39
292,1715374670590,1.22,-0.7299999999999999,-0.6,-105.16,-136.29,249.39000000000001
293,1715374670600,1.22,-0.73,-0.6,-105.16,-136.29,249.39
294,1715374670610,1.18625,-0.79,-0.6,-169.26999999999998,-148.00875,223.45875
295,1715374670620,1.13,-0.89,-0.6,-276.12,-167.54,180.24
296,1715374670630,1.13,-0.89,-0.6,-276.12,-167.54,180.24
297,1715374670640,1.13,-0.89,-0.6,-276.12,-167.54,180.24
298,1715374670650,1.1675,-1.0662500000000001,-0.41625,-301.495,-152.0525,179.5525
299,1715374670660,1.23,-1.36,-0.11,-377.62,-105.59,177.49
300,1715374670670,1.23,-1.36,-0.11,-377.62,-105.59,177.49
301,1715374670680,1.23,-1.36,-0.11,-377.62,-105.59,177.49
302,1715374670690,1.385,-1.77,-0.04,-404.995,-86.76,193.235
303,1715374670700,1.54,-2.18,0.03,-432.37,-67.93,208.98
304,1715374670710,1.5400000000000003,-2.18,0.03,-432.37,-67.93,208.98
305,1715374670720,1.54,-2.18,0.03,-432.37,-67.93,208.98
306,1715374670730,1.7875,-2.42,0.06,-432.37,-67.93,208.98
307,1715374670740,2.2,-2.82,0.11,-432.37,-67.93,208.98
308,1715374670750,2.2,-2.82,0.11,-414.7975,-95.395,245.6475
309,1715374670760,2.2,-2.82,0.11,-408.94,-104.55,257.87
310,1715374670770,2.442857142857143,-2.6942857142857144,0.2642857142857143,-408.94,-104.55,257.87
311,1715374670780,3.9,-1.94,1.19,-232.6,-221.92,250.31
312,1715374670790,3.9,-1.94,1.19,-232.6,-221.92,250.31
313,1715374670800,3.9,-1.94,1.19,-232.6,-221.92,250.31
314,1715374670810,3.9,-1.94,1.19,-232.6,-221.92,250.31
315,1715374670820,3.6075,-1.76,1.53875,-159.43,-166.80625,171.275
316,1715374670830,3.12,-1.46,2.12,-37.48,-74.95,39.55
317,1715374670840,3.12,-1.46,2.12,-37.48,-74.95,39.55
318,1715374670850,2.382857142857143,-1.2085714285714286,1.3599999999999999,113.33142857142856,-34.910000000000004,-8.65
319,1715374670860,1.83,-1.02,0.79,226.44,-4.88,-44.8
320,1715374670870,1.83,-1.02,0.79,226.44,-4.88,-44.8
321,1715374670880,1.8125,-0.91125,0.7175,228.645,-6.123749999999999,-48.3625
322,1715374670890,1.69,-0.15,0.21,244.08,-14.83,-73.3
323,1715374670900,1.69,-0.15,0.21,244.08,-14.83,-73.3
324,1715374670910,1.69,-0.15,0.21,244.08,-14.83,-73.3
325,1715374670920,1.585,-0.075,0.29625,220.82625000000002,20.69375,-91.405
326,1715374670930,1.41,0.05,0.44,182.07,79.9,-121.58
327,1715374670940,1.41,0.05,0.44,182.07,79.9,-121.58
328,1715374670950,1.41,0.05,0.44,182.07,79.9,-121.58
329,1715374670960,1.2642857142857142,0.04142857142857143,0.41428571428571426,198.5842857142857,81.88571428571429,-133.94571428571427
330,1715374670970,1.07,0.03,0.38,239.87,86.85,-164.86
331,1715374670980,1.07,0.03,0.38,239.87,86.85,-164.86
332,1715374670990,1.07,0.03,0.38,239.87000000000003,86.85,-164.85999999999999
333,1715374671000,1.32,0.03,0.255,249.2375,86.745,-190.05
334,1715374671010,1.47,0.03,0.18,277.34,86.43,-265.62
335,1715374671020,1.47,0.03,0.18,277.34,86.42999999999999,-265.62
336,1715374671030,1.47,0.03,0.18,277.34,86.43,-265.62
337,1715374671040,1.6425,-0.44999999999999996,0.3375,218.2,132.60000000000002,-290.645
338,1715374671050,1.7,-0.61,0.39,159.06,178.77,-315.67
339,1715374671060,1.7,-0.61,0.39,159.06,178.77,-315.67
340,1715374671070,1.7,-0.61,0.39,159.06,178.77,-315.67
341,1715374671080,2.6100000000000003,-0.785,0.8625,125.305,251.58499999999998,-308.315
342,1715374671090,2.7399999999999998,-0.8099999999999999,0.93,91.55,324.4,-300.96
343,1715374671100,2.74,-0.81,0.93,91.55,324.4,-300.96
344,1715374671110,2.74,-0.81,0.93,91.55,324.4,-300.96
345,1715374671120,3.0462499999999997,-1.5975,1.23625,116.015,452.94625,-321.5225
346,1715374671130,3.09,-1.7099999999999997,1.28,119.51,471.31,-324.46
347,1715374671140,3.09,-1.7099999999999997,1.28,119.51,471.31,-324.46
348,1715374671150,3.0075,-1.6875,1.315,119.51,471.31,-324.46
349,1715374671160,2.43,-1.53,1.56,211.04375,466.935,-239.70749999999998
350,1715374671170,2.43,-1.53,1.56,224.12000000000003,466.31,-227.6
351,1715374671180,2.43,-1.53,1.56,224.12,466.31,-227.6
352,1715374671190,1.84,-1.5899999999999999,1.02,277.755,414.90250000000003,-244.3225
353,1715374671200,1.25,-1.65,0.48,438.66,260.68,-294.49
354,1715374671210,1.25,-1.65,0.48,438.66,260.68,-294.49000000000007
355,1715374671220,1.25,-1.65,0.48,438.66,260.68,-294.49
356,1715374671230,0.41875,-1.35625,-0.445,418.95375,200.8525,-271.03000000000003
357,1715374671240,-0.08,-1.18,-1.0,386.11,101.14,-231.93
358,1715374671250,-0.08,-1.18,-1.0,386.11,101.14,-231.93
359,1715374671260,-0.08,-1.18,-1.0,386.11,101.14,-231.93
360,1715374671270,-0.6657142857142857,-0.6942857142857142,-1.0357142857142858,250.08857142857144,23.532857142857143,-117.75142857142858
361,1715374671280,-0.9,-0.5,-1.05,195.68,-7.51,-72.08
362,1715374671290,-0.9,-0.5,-1.05,195.68,-7.51,-72.08
363,1715374671300,-0.9,-0.5,-1.05,195.68,-7.51,-72.08
364,1715374671310,-1.43375,-0.68375,-1.6099999999999999,22.455,51.008750000000006,39.83875
365,1715374671320,-1.51,-0.71,-1.69,-81.48,86.12,106.99
366,1715374671330,-1.51,-0.71,-1.69,-81.48,86.12,106.99
367,1715374671340,-1.51,-0.71,-1.69,-81.48,86.12,106.99
368,1715374671350,-0.6875,-1.45375,-1.865,-261.40625,-39.22375,287.24
369,1715374671360,-0.57,-1.56,-1.89,-287.11,-57.13,312.99
370,1715374671370,-0.57,-1.56,-1.89,-287.11,-57.13,312.99000000000007
371,1715374671380,-0.38499999999999995,-1.5987500000000001,-1.79625,-280.51,-92.83500000000001,312.80625
372,1715374671390,0.91,-1.87,-1.14,-234.31,-342.77,311.52
373,1715374671400,0.91,-1.8699999999999999,-1.14,-234.31,-342.77,311.52
374,1715374671410,0.91,-1.87,-1.14,-234.31,-342.77,311.52
375,1715374671420,1.1725,-1.6787500000000002,-0.9225,-230.3425,-348.63,311.03249999999997
376,1715374671430,1.61,-1.36,-0.56,-218.44,-366.21,309.57
377,1715374671440,1.61,-1.36,-0.56,-218.44,-366.21,309.57
378,1715374671450,1.61,-1.36,-0.56,-218.44,-366.21,309.57
379,1715374671460,1.6325,-1.3725,-0.5225000000000001,-235.5,-359.86249999999995,290.60249999999996
380,1715374671470,1.7,-1.41,-0.41,-286.68,-340.82,233.7
381,1715374671480,1.7,-1.41,-0.41,-286.68,-340.82,233.7
382,1715374671490,1.7,-1.41,-0.41,-286.68,-340.82,233.7
383,1715374671500,1.7149999999999999,-1.45,-0.15499999999999997,-272.795,-320.435,243.13
384,1715374671510,1.73,-1.49,0.1,-258.91,-300.05,252.56
385,1715374671520,1.73,-1.49,0.1,-258.91,-300.05,252.56
386,1715374671530,1.73,-1.49,0.1,-258.91,-300.05,252.56
387,1715374671540,1.8071428571428572,-1.6785714285714286,-0.02,-269.20285714285717,-216.47142857142856,306.05285714285714
388,1715374671550,1.82,-1.71,-0.04,-273.32,-183.04,327.45
389,1715374671560,1.82,-1.7099999999999997,-0.04,-273.32,-183.04,327.45
390,1715374671570,1.82,-1.71,-0.04,-273.32,-183.04,327.45
391,1715374671580,2.2025,-2.775,-0.31,-316.4825,-208.2175,310.8825
392,1715374671590,2.33,-3.13,-0.4,-330.87,-216.61,305.36
393,1715374671600,2.3300000000000005,-3.13,-0.4,-330.87,-216.60999999999999,305.36
394,1715374671610,2.33,-3.13,-0.4,-330.87,-216.61,305.36
395,1715374671620,4.33,-3.16,0.25,-231.69,-325.56,441.83
396,1715374671630,4.33,-3.16,0.25,-231.69,-325.56,441.83
397,1715374671640,4.33,-3.16,0.25,-231.69,-325.56,441.83
398,1715374671650,4.425,-2.8487500000000003,0.4775,-231.69,-325.56,441.83
399,1715374671660,5.09,-0.67,2.07,-171.82250000000002,-209.78,240.23000000000002
400,1715374671670,5.089999999999999,-0.67,2.07,-163.27,-193.24,211.43
401,1715374671680,5.09,-0.67,2.07,-163.27,-193.24,211.43
402,1715374671690,3.9125,-1.06375,1.9462499999999998,-91.15,-54.1,95.135
403,1715374671700,1.95,-1.72,1.74,29.05,177.8,-98.69
404,1715374671710,1.95,-1.72,1.74,29.05,177.8,-98.68999999999998
405,1715374671720,1.95,-1.72,1.74,29.05,177.8,-98.69
406,1715374671730,1.79,-1.13,0.765,142.73000000000002,113.16000000000001,-54.015
407,1715374671740,1.6300000000000001,-0.54,-0.21,256.41,48.52,-9.34
408,1715374671750,1.63,-0.54,-0.21,256.41,48.52,-9.34
409,1715374671760,1.63,-0.54,-0.21,256.41,48.52,-9.34
410,1715374671770,1.6185714285714285,-0.2485714285714286,0.05285714285714286,231.75285714285715,0.18285714285714402,-83.59142857142857
411,1715374671780,1.61,-0.03,0.25,213.26,-36.07,-139.28
412,1715374671790,1.61,-0.03,0.25,213.26,-36.07,-139.28
413,1715374671800,1.61,-0.03,0.25,213.26,-36.07,-139.28
414,1715374671810,1.4100000000000001,-0.25857142857142856,0.6071428571428571,208.62714285714284,8.372857142857141,-146.03
415,1715374671820,1.33,-0.35,0.75,202.45,67.63,-155.03
416,1715374671830,1.33,-0.35,0.75,202.45,67.63,-155.03
417,1715374671840,1.33,-0.35,0.75,202.45,67.63,-155.03
418,1715374671850,1.6600000000000001,-0.0725,0.5175,201.67749999999998,110.7475,-218.885
419,1715374671860,1.77,0.02,0.44,201.42,125.12,-240.17
420,1715374671870,1.77,0.02,0.44,201.42,125.12,-240.17
421,1715374671880,1.77,0.02,0.44,201.42,125.12,-240.17
422,1715374671890,1.89,-0.775,0.59,182.4225,177.995,-324.95
423,1715374671900,1.93,-1.04,0.64,176.09,195.62000000000003,-353.21
424,1715374671910,1.93,-1.04,0.64,176.09,195.62,-353.21
425,1715374671920,1.93,-1.04,0.64,176.09,195.62000000000003,-353.21
426,1715374671930,2.2362499999999996,-1.27625,0.7887500000000001,175.97625,294.36375000000004,-340.015
427,1715374671940,2.28,-1.31,0.81,175.96,308.47,-338.13
428,1715374671950,2.28,-1.31,0.81,175.96,308.47,-338.13
429,1715374671960,2.28,-1.31,0.81,175.96,308.47,-338.13
430,1715374671970,2.44,-2.05,0.67,190.85999999999999,429.08,-335.39
431,1715374671980,2.44,-2.05,0.67,190.86,429.08,-335.39
432,1715374671990,2.44,-2.05,0.67,190.86,429.08,-335.39
433,1715374672000,2.44,-2.05,0.67,190.86,429.08,-335.39
434,1715374672010,2.4814285714285718,-2.1285714285714286,0.8142857142857143,197.41714285714286,449.03000000000003,-316.4342857142857
435,1715374672020,2.73,-2.6,1.68,236.76,568.73,-202.7
436,1715374672030,2.73,-2.6,1.68,236.76,568.73,-202.7
437,1715374672040,2.73,-2.6,1.68,236.76,568.73,-202.7
438,1715374672050,2.485,-2.4375,1.23,269.9625,585.1025,-175.295
439,1715374672060,1.75,-1.95,-0.12,369.57,634.22,-93.08
440,1715374672070,1.75,-1.95,-0.12,369.57,634.22,-93.08
441,1715374672080,1.09375,-1.50375,-0.6525000000000001,390.42,486.84125,-80.375
442,1715374672090,0.0,-0.76,-1.54,425.17,241.21,-59.2
443,1715374672100,0.0,-0.76,-1.5400000000000003,425.17,241.21,-59.2
444,1715374672110,0.0,-0.76,-1.54,425.17,241.21,-59.2
445,1715374672120,0.0,-0.76,-1.54,425.17,241.21,-59.2
446,1715374672130,0.0,-0.76,-1.5400000000000003,425.17,241.21,-59.2
447,1715374672140,-0.0625,-0.46,-1.5475,425.17,241.21,-59.2
448,1715374672150,-0.25,0.44,-1.57,329.62875,2.3787500000000024,-11.3025
449,1715374672160,-0.36,0.92,-1.92,-61.339999999999996,7.0200000000000005,81.17999999999999
450,1715374672170,-0.36,0.92,-1.92,-61.34,7.02,81.18
451,1715374672180,-0.36,0.92,-1.92,-61.34,7.02,81.18
452,1715374672190,-0.25,0.36,-1.98,-306.15,2.32,68.66
453,1715374672200,-0.25,0.36,-1.98,-306.15,2.32,68.66
454,1715374672210,-0.25,0.36,-1.98,-306.15,2.32,68.66
455,1715374672220,-0.25,0.36,-1.98,-306.15,2.32,68.66
456,1715374672230,0.22,-1.4,-1.4,-451.42,-193.3,36.44
457,1715374672240,0.22,-1.4,-1.4,-451.42,-193.3,36.44
458,1715374672250,0.22,-1.4,-1.4,-451.42,-193.3,36.44
459,1715374672260,0.41428571428571426,-1.5971428571428572,-1.1342857142857141,-444.36571428571426,-218.4114285714286,43.84285714285714
460,1715374672270,0.9,-2.09,-0.47,-402.04,-369.08,88.26
461,1715374672280,0.9,-2.09,-0.47,-402.04,-369.08,88.26
462,1715374672290,1.0162499999999999,-1.92875,-0.26375,-394.685,-371.72749999999996,91.27375
463,1715374672300,1.2099999999999997,-1.66,0.08,-343.2,-390.25999999999993,112.37
464,1715374672310,1.21,-1.66,0.08,-343.2,-390.26,112.37
465,1715374672320,1.21,-1.66,0.08,-343.2,-390.26,112.37
466,1715374672330,1.0728571428571427,-1.4314285714285713,0.23428571428571426,-311.6685714285714,-329.7457142857143,130.71285714285713
467,1715374672340,0.97,-1.26,0.35,-288.02,-284.36,144.47
468,1715374672350,0.97,-1.26,0.35,-288.02,-284.36,144.47
469,1715374672360,0.97,-1.26,0.35,-288.02,-284.36,144.47
470,1715374672370,1.0342857142857143,-0.9742857142857143,0.1357142857142857,-305.9685714285714,-241.40857142857143,167.5142857142857
471,1715374672380,1.06,-0.86,0.05,-329.9,-184.14,198.24
472,1715374672390,1.06,-0.86,0.05,-329.9,-184.14000000000001,198.24
473,1715374672400,1.06,-0.86,0.05,-329.9,-184.14,198.24
474,1715374672410,0.99875,-1.1312499999999999,-0.23,-292.9925,-229.2725,94.69250000000001
475,1715374672420,0.99,-1.17,-0.27,-287.72,-235.72,79.9
476,1715374672430,0.99,-1.17,-0.27,-287.72,-235.72,79.9
477,1715374672440,1.05625,-1.3499999999999999,-0.29375,-294.0525,-243.88375,86.66625
478,1715374672450,1.52,-2.61,-0.46,-338.38,-301.03000000000003,134.03
479,1715374672460,1.52,-2.61,-0.46,-338.38,-301.03,134.03
480,1715374672470,1.52,-2.61,-0.46,-338.38,-301.03,134.03
481,1715374672480,1.52,-2.61,-0.46,-338.38,-301.03000000000003,134.03
482,1715374672490,2.70125,-3.56375,0.09999999999999999,-356.37874999999997,-336.275,158.27625
483,1715374672500,2.87,-3.7,0.18,-358.95,-341.31,161.74
484,1715374672510,2.87,-3.7,0.18,-358.95,-341.31,161.74
485,1715374672520,3.18,-3.43,0.585,-340.83,-330.2925,167.645
486,1715374672530,4.11,-2.62,1.8,-213.99,-253.17,208.98
487,1715374672540,4.11,-2.62,1.8,-213.99,-253.17,208.98
488,1715374672550,4.11,-2.62,1.8,-213.99,-253.17,208.98
489,1715374672560,3.4762500000000003,-2.3537500000000002,1.84125,-195.74625,-121.54124999999999,155.14875
490,1715374672570,2.4199999999999995,-1.91,1.91,-165.34,97.84,65.43
491,1715374672580,2.42,-1.91,1.91,-165.34,97.84,65.43
492,1715374672590,2.4199999999999995,-1.91,1.91,-165.34,97.84,65.43
493,1715374672600,2.015,-1.595,1.33,10.590000000000003,71.44,39.795
494,1715374672610,1.61,-1.28,0.75,186.52,45.04,14.16
495,1715374672620,1.61,-1.28,0.75,186.52,45.04,14.16
496,1715374672630,1.61,-1.28,0.75,186.52,45.04,14.16
497,1715374672640,1.6025,-0.5750000000000001,0.2925,232.255,14.875,-33.9525
498,1715374672650,1.6,-0.34,0.14,247.5,4.82,-49.99
499,1715374672660,1.6,-0.34,0.14,247.5,4.82,-49.99
500,1715374672670,1.6,-0.34,0.14,247.5,4.82,-49.99
501,1715374672680,1.1800000000000002,-0.23500000000000001,0.385,218.7525,7.797499999999999,-87.16
502,1715374672690,1.12,-0.22,0.42,209.17,8.79,-99.55
503,1715374672700,1.12,-0.22,0.42,209.17,8.79,-99.55
504,1715374672710,1.12,-0.22,0.42,209.17,8.79,-99.55
505,1715374672720,1.03,0.05,0.17,207.7,65.25,-97.47
506,1715374672730,1.03,0.05,0.17,207.7,65.25,-97.47
507,1715374672740,1.03,0.05,0.17,207.7,65.25,-97.47
508,1715374672750,1.1057142857142856,0.021428571428571432,0.25857142857142856,207.7,65.25,-97.47
509,1715374672760,1.56,-0.15,0.79,207.7,65.25,-97.47
510,1715374672770,1.56,-0.15,0.79,255.76375,-12.668750000000001,-215.875
511,1715374672780,1.56,-0.15,0.79,262.63,-23.8,-232.79
512,1715374672790,1.62375,-0.42375,0.84625,250.0875,36.2875,-235.535
513,1715374672800,1.73,-0.88,0.94,212.46,216.55,-243.77
514,1715374672810,1.73,-0.88,0.9400000000000001,212.46,216.55,-243.77
515,1715374672820,1.73,-0.88,0.94,212.46,216.55,-243.77
516,1715374672830,1.8714285714285714,-1.06,0.9871428571428572,235.6114285714286,260.4957142857143,-280.00142857142856
517,1715374672840,2.06,-1.3,1.05,266.48,319.09,-328.31
518,1715374672850,2.06,-1.3,1.05,266.48,319.09,-328.31
519,1715374672860,2.06,-1.3,1.05,266.48,319.09,-328.31
520,1715374672870,2.0742857142857143,-1.8714285714285717,1.1142857142857143,282.00142857142856,404.4971428571429,-322.07428571428574
521,1715374672880,2.08,-2.1,1.14,288.21,438.66,-319.58
522,1715374672890,2.08,-2.1,1.14,288.21,438.66,-319.58
523,1715374672900,2.08,-2.1,1.14,288.21,438.66,-319.58
524,1715374672910,1.4628571428571429,-1.44,0.7714285714285714,384.3128571428571,274.3885714285714,-311.0514285714286
525,1715374672920,1.36,-1.33,0.71,400.33,247.01,-309.63
526,1715374672930,1.36,-1.33,0.71,400.33,247.01,-309.63
527,1715374672940,1.36,-1.33,0.71,400.33,247.01,-309.63
528,1715374672950,0.34,-0.67,0.13,462.71,-31.43,-381.96
529,1715374672960,0.34,-0.67,0.13,462.71,-31.43,-381.96
530,1715374672970,0.34,-0.67,0.13,462.71,-31.43,-381.96
531,1715374672980,0.2085714285714286,-0.6371428571428571,0.07285714285714286,440.3885714285714,-56.07142857142857,-366.83142857142855
532,1715374672990,-0.58,-0.44,-0.27,306.46,-203.92,-276.06
533,1715374673000,-0.58,-0.44,-0.27,306.46,-203.92,-276.06
534,1715374673010,-0.58,-0.44,-0.27,306.46,-203.92,-276.06
535,1715374673020,-0.7125,-0.48,-0.2675,259.41749999999996,-186.785,-224.9275
536,1715374673030,-1.11,-0.6,-0.26,118.29,-135.38,-71.53
537,1715374673040,-1.11,-0.6,-0.26,118.29,-135.38,-71.53
538,1715374673050,-1.11,-0.6,-0.26,118.29,-135.38,-71.53
539,1715374673060,-1.025,-0.95,-0.375,20.876250000000006,-85.62125,25.561249999999998
540,1715374673070,-0.94,-1.3,-0.49,-141.48,-2.69,187.38
541,1715374673080,-0.9400000000000001,-1.3,-0.48999999999999994,-141.48,-2.69,187.37999999999997
542,1715374673090,-0.94,-1.3,-0.49,-141.48,-2.69,187.38
543,1715374673100,-0.3525,-1.55,-0.6525,-160.065,-12.149999999999999,282.93
544,1715374673110,0.0,-1.7,-0.75,-178.65,-21.61,378.48
545,1715374673120,0.0,-1.7,-0.75,-178.65,-21.609999999999996,378.48
546,1715374673130,0.0,-1.7,-0.75,-178.65,-21.61,378.48
547,1715374673140,0.4114285714285714,-1.6314285714285715,-1.03,-187.0557142857143,-80.30714285714285,382.14285714285717
548,1715374673150,0.72,-1.58,-1.24,-193.36,-124.33,384.89
549,1715374673160,0.72,-1.58,-1.24,-193.36,-124.33,384.89
550,1715374673170,0.72,-1.58,-1.24,-193.35999999999999,-124.33,384.89
551,1715374673180,0.7424999999999999,-1.5425,-0.9775,-294.6175,-134.4925,334.58
552,1715374673190,0.75,-1.53,-0.89,-328.37,-137.88,317.81
553,1715374673200,0.75,-1.53,-0.89,-328.37,-137.88,317.81
554,1715374673210,0.75,-1.53,-0.89,-328.37,-137.88,317.81
555,1715374673220,0.9500000000000001,-1.637142857142857,-0.8257142857142857,-399.77714285714285,-161.98714285714283,286.98857142857145
556,1715374673230,1.03,-1.68,-0.8,-428.34,-171.63,274.66
557,1715374673240,1.03,-1.68,-0.8,-428.34,-171.62999999999997,274.66
558,1715374673250,1.03,-1.68,-0.8,-428.34,-171.63,274.66
559,1715374673260,1.79,-2.24,-0.14,-365.54,-319.46,252.93
560,1715374673270,1.7900000000000003,-2.24,-0.14,-365.54,-319.46,252.93
561,1715374673280,1.79,-2.24,-0.14,-365.54,-319.46,252.93
562,1715374673290,1.79,-2.24,-0.14,-365.54,-319.46,252.93
563,1715374673300,1.7900000000000003,-2.24,-0.14,-365.54,-319.46,252.93
564,1715374673310,1.9275,-2.2600000000000002,-0.15500000000000003,-343.20125,-321.5725,258.69
565,1715374673320,2.89,-2.4,-0.26,-186.83,-336.36,299.01
566,1715374673330,3.25,-2.53875,-0.365,-186.83,-336.36,299.01
567,1715374673340,3.85,-2.77,-0.54,-161.4157142857143,-404.33142857142855,305.81
568,1715374673350,3.85,-2.77,-0.54,-151.25,-431.52,308.53000000000003
569,1715374673360,3.85,-2.77,-0.54,-151.25,-431.52,308.53
570,1715374673370,3.85,-2.77,-0.54,-151.25,-431.52,308.53
571,1715374673380,3.85,-2.77,-0.54,-151.25,-431.52,308.53000000000003
572,1715374673390,4.255,-1.6675,1.0275,-202.3775,-301.1475,297.22749999999996
573,1715374673400,4.39,-1.3,1.55,-219.42,-257.69,293.46
574,1715374673410,3.407142857142857,-1.237142857142857,1.5957142857142856,-166.11142857142858,-138.70714285714286,201.12285714285713
575,1715374673420,2.67,-1.19,1.63,-32.84,158.75,-29.72
576,1715374673430,2.67,-1.19,1.63,-32.84,158.75,-29.72
577,1715374673440,2.6699999999999995,-1.19,1.6300000000000001,-32.84,158.75,-29.72
578,1715374673450,2.20125,-1.3025,0.46749999999999997,168.235,88.94375,-66.65125
579,1715374673460,1.92,-1.37,-0.23,288.88,47.06,-88.81
580,1715374673470,1.92,-1.37,-0.23,288.88,47.06,-88.81
581,1715374673480,1.92,-1.3699999999999999,-0.23,288.88,47.06,-88.81000000000002
582,1715374673490,1.77,-0.635,-0.27499999999999997,271.5775,-46.55500000000001,-134.5825
583,1715374673500,1.72,-0.39,-0.29,265.81,-77.76,-149.84
584,1715374673510,1.72,-0.39,-0.29,265.81,-77.76,-149.84
585,1715374673520,1.72,-0.39,-0.29,265.81,-77.76,-149.84
586,1715374673530,1.5325,-0.3025,0.1225,197.41,-17.5225,-188.40875
587,1715374673540,1.42,-0.25,0.37,156.37,18.62,-211.55
588,1715374673550,1.42,-0.25,0.37,156.37000000000003,18.62,-211.55
589,1715374673560,1.42,-0.25,0.37,156.37,18.62,-211.55
590,1715374673570,1.48,-0.21,0.34,75.87,145.81,-251.77
591,1715374673580,1.48,-0.21,0.34,75.87,145.81,-251.77
592,1715374673590,1.4799999999999998,-0.21,0.34,75.87,145.81,-251.77
593,1715374673600,1.51875,-0.22875,0.365,81.29375,150.73125,-263.61875
594,1715374673610,1.7900000000000003,-0.36,0.54,119.26,185.18,-346.56
595,1715374673620,1.79,-0.36,0.54,119.26,185.18,-346.56
596,1715374673630,1.79,-0.36,0.54,119.26,185.18,-346.56
597,1715374673640,1.87,-0.5725,0.5700000000000001,128.905,238.77,-376.8325
598,1715374673650,2.11,-1.2099999999999997,0.66,157.84,399.54,-467.65
599,1715374673660,2.11,-1.21,0.66,157.84,399.54,-467.65
600,1715374673670,2.11,-1.21,0.66,157.84,399.54,-467.65
601,1715374673680,2.0285714285714285,-1.1714285714285713,0.4585714285714286,143.21714285714285,399.19714285714286,-401.18285714285713
602,1715374673690,1.92,-1.12,0.19,123.72,398.74,-312.56
603,1715374673700,1.92,-1.12,0.19,123.72,398.74,-312.56
604,1715374673710,1.92,-1.12,0.19,123.72,398.74000000000007,-312.56
605,1715374673720,2.02,-1.28,0.545,154.48000000000002,393.615,-296.51
606,1715374673730,2.12,-1.44,0.9,185.24,388.49,-280.46
607,1715374673740,2.12,-1.44,0.9,185.24,388.49000000000007,-280.46
608,1715374673750,2.12,-1.44,0.9,185.24,388.49,-280.46
609,1715374673760,1.945,-1.34,0.65625,265.38,357.66499999999996,-274.475
610,1715374673770,1.84,-1.28,0.51,345.52,326.84,-268.49
611,1715374673780,1.84,-1.28,0.51,345.52,326.84,-268.49
612,1715374673790,1.84,-1.28,0.51,345.52,326.84,-268.49
613,1715374673800,0.8775,-0.9650000000000001,-0.17250000000000001,376.60749999999996,244.2525,-292.5275
614,1715374673810,0.74,-0.92,-0.27,395.26,194.7,-306.95
615,1715374673820,0.74,-0.92,-0.27,395.26,194.7,-306.95
616,1715374673830,-0.32285714285714284,-0.5942857142857143,-0.9214285714285715,422.2085714285714,28.131428571428568,-312.65000000000003
617,1715374673840,-0.5,-0.54,-1.03,426.7,0.37,-313.6
618,1715374673850,-0.5,-0.54,-1.03,426.7,0.37,-313.6
619,1715374673860,-0.58125,-0.51875,-1.02125,426.7,0.37,-313.6
620,1715374673870,-1.15,-0.37,-0.96,295.47625,-157.1825,-168.81375
621,1715374673880,-1.15,-0.37,-0.96,276.73,-179.69,-148.12999999999997
622,1715374673890,-1.15,-0.37,-0.96,276.73,-179.69,-148.13
623,1715374673900,-1.13,-0.4425,-0.8724999999999999,276.73,-179.69,-148.13
624,1715374673910,-1.07,-0.66,-0.61,3.78,-104.55,119.2
625,1715374673920,-1.07,-0.66,-0.61,3.78,-104.55,119.2
626,1715374673930,-1.07,-0.66,-0.61,3.78,-104.55,119.2
627,1715374673940,-0.8728571428571429,-0.8685714285714285,-0.59,3.78,-104.55,119.2
628,1715374673950,-0.38,-1.39,-0.54,-272.71,9.34,387.76
629,1715374673960,-0.38,-1.39,-0.54,-272.71,9.34,387.75999999999993
630,1715374673970,-0.38,-1.39,-0.54,-272.71,9.34,387.76
631,1715374673980,-0.04000000000000001,-1.4874999999999998,-0.5425,-301.1825,-8.467500000000001,419.635
632,1715374673990,0.9799999999999999,-1.78,-0.55,-386.6,-61.89,515.26
633,1715374674000,0.98,-1.78,-0.55,-386.6,-61.89,515.26
634,1715374674010,0.98,-1.78,-0.55,-386.6,-61.89,515.26
635,1715374674020,1.3924999999999998,-1.255,-0.51875,-352.45000000000005,-114.96000000000001,478.76
636,1715374674030,1.64,-0.9400000000000001,-0.5,-318.3,-168.03,442.25999999999993
637,1715374674040,1.64,-0.9400000000000001,-0.5,-318.3,-168.03,442.25999999999993
638,1715374674050,1.64,-0.94,-0.5,-318.3,-168.03,442.26
639,1715374674060,1.355,-0.9475,-1.0775000000000001,-306.3525,-224.81625,359.24625
640,1715374674070,1.26,-0.95,-1.27,-286.44,-319.46,220.89
641,1715374674080,1.26,-0.95,-1.27,-286.44,-319.46,220.89000000000001
642,1715374674090,1.26,-0.95,-1.27,-286.44,-319.46,220.89
643,1715374674100,1.63625,-1.81625,-0.56125,-341.55,-396.635,243.915
644,1715374674110,1.69,-1.94,-0.46,-359.92,-422.36,251.59
645,1715374674120,1.69,-1.94,-0.46,-359.92,-422.36,251.59
646,1715374674130,1.69,-1.94,-0.46,-359.92,-422.36,251.59
647,1715374674140,2.1014285714285714,-1.82,0.002857142857142836,-354.9714285714286,-335.9714285714286,288.38428571428574
648,1715374674150,2.41,-1.73,0.35,-351.26,-271.18,315.98
649,1715374674160,2.41,-1.73,0.35,-351.25999999999993,-271.18,315.98
650,1715374674170,2.415,-1.805,0.285,-350.13875,-258.095,316.09375
651,1715374674180,2.45,-2.33,-0.17,-342.29,-166.5,316.89
652,1715374674190,2.45,-2.33,-0.17,-342.29,-166.5,316.89
653,1715374674200,2.45,-2.33,-0.17,-342.29,-166.5,316.89
654,1715374674210,2.6957142857142857,-2.164285714285714,-0.06714285714285716,-338.9585714285714,-164.77428571428572,312.6528571428571
655,1715374674220,3.31,-1.75,0.19,-330.63,-160.46,302.06
656,1715374674230,3.31,-1.75,0.19,-330.63,-160.46,302.06
657,1715374674240,3.31,-1.75,0.19,-330.63,-160.46,302.06
658,1715374674250,3.1375,-1.56625,0.5275000000000001,-321.36,-103.79,242.98625
659,1715374674260,2.85,-1.26,1.09,-305.91,-9.34,144.53
660,1715374674270,2.85,-1.26,1.09,-305.91,-9.34,144.53
661,1715374674280,2.85,-1.26,1.09,-305.91,-9.34,144.53
662,1715374674290,2.3985714285714286,-1.5171428571428571,1.0385714285714287,-189.17285714285714,37.25428571428572,105.46714285714286
663,1715374674300,2.06,-1.71,1.0,-101.62,72.2,76.17
664,1715374674310,2.06,-1.71,1.0,-101.62,72.2,76.17
665,1715374674320,2.06,-1.7099999999999997,1.0,-101.62,72.2,76.17
666,1715374674330,1.935,-1.47875,0.45,70.3425,5.7875,11.282500000000002
667,1715374674340,1.86,-1.34,0.12,173.52,-34.06,-27.65
668,1715374674350,1.86,-1.34,0.12,173.52,-34.06,-27.65
669,1715374674360,1.86,-1.34,0.12,173.52,-34.06,-27.65
670,1715374674370,1.51,-0.91125,0.26,215.595,-67.77875,-53.39999999999999
671,1715374674380,1.4599999999999997,-0.85,0.28,240.84,-88.01,-68.85
672,1715374674390,1.46,-0.85,0.28,240.84,-88.01,-68.85
673,1715374674400,1.46,-0.85,0.28,240.84,-88.01,-68.85
674,1715374674410,1.3725,-0.43875,0.42875,214.6775,6.411249999999998,-63.45125
675,1715374674420,1.36,-0.38,0.45,210.94,19.9,-62.68
676,1715374674430,1.36,-0.38,0.45,210.94,19.9,-62.68
677,1715374674440,1.36,-0.38,0.45,210.94,19.9,-62.67999999999999
678,1715374674450,1.19,0.03,0.29,125.55,156.49,-77.82
679,1715374674460,1.19,0.03,0.29,125.55,156.49,-77.82
680,1715374674470,1.19,0.03,0.29,125.55,156.49,-77.82000000000001
681,1715374674480,1.16375,0.1725,0.16249999999999998,136.3675,140.1325,-99.16749999999999
682,1715374674490,1.12,0.41,-0.05,168.82,91.06000000000002,-163.21
683,1715374674500,1.12,0.41,-0.05,168.82,91.06,-163.21
684,1715374674510,1.12,0.41,-0.05,168.82,91.06,-163.21
685,1715374674520,1.1571428571428573,0.3885714285714285,-0.01285714285714286,196.13857142857142,61.118571428571435,-195.63714285714286
686,1715374674530,1.38,0.26,0.21,360.05,-118.53,-390.2
687,1715374674540,1.38,0.26,0.21,360.05,-118.53,-390.2
688,1715374674550,1.3800000000000001,0.26,0.21,360.05,-118.53,-390.2
689,1715374674560,1.38,0.26,0.21,360.05,-118.53,-390.2
690,1715374674570,1.3800000000000001,0.26,0.21,360.05,-118.53,-390.2
691,1715374674580,1.38,0.26,0.21,360.05,-118.53,-390.2
692,1715374674590,1.4925,-0.11499999999999999,0.3375,236.6375,10.65,-392.5775
693,1715374674600,1.7112500000000002,-0.35875,0.1925,115.58125,143.58499999999998,-367.05125
694,1715374674610,1.82,-0.43,0.08,67.63,197.51,-351.25999999999993
695,1715374674620,1.82,-0.43,0.08,67.63,197.51,-351.26
696,1715374674630,1.82,-0.43,0.08,67.63,197.51,-351.26
697,1715374674640,2.0942857142857143,-0.5157142857142858,0.1657142857142857,60.30428571428571,249.85857142857142,-335.97999999999996
698,1715374674650,2.14,-0.53,0.18,54.81,289.12,-324.52
699,1715374674660,2.14,-0.53,0.18,54.81,289.12,-324.52
700,1715374674670,2.14,-0.53,0.18,54.81,289.12,-324.52
701,1715374674680,2.525714285714286,-0.20857142857142857,0.41571428571428576,114.66714285714286,195.04142857142855,-319.3342857142857
702,1715374674690,2.68,-0.08,0.51,138.61,157.41,-317.26
703,1715374674700,2.68,-0.08,0.51,138.61,157.41,-317.26
704,1715374674710,2.5675000000000003,-0.12375,0.4675,150.82500000000002,142.57874999999999,-323.38625
705,1715374674720,1.78,-0.43,0.17,236.33,38.76,-366.27
706,1715374674730,1.78,-0.43,0.17,236.33,38.76,-366.27
707,1715374674740,1.78,-0.43,0.17,236.33,38.76,-366.27
708,1715374674750,1.62375,-0.44,0.12875,234.10250000000002,27.445,-355.65749999999997
709,1715374674760,0.53,-0.51,-0.16,218.51,-51.76,-281.37
710,1715374674770,0.53,-0.51,-0.16,218.51,-51.76,-281.37
711,1715374674780,0.53,-0.51,-0.16,218.51,-51.76,-281.37
712,1715374674790,0.14750000000000002,-0.5325,-0.15625,155.49875,-31.982499999999998,-217.33125
713,1715374674800,-0.49,-0.57,-0.15,50.48,0.98,-110.6
714,1715374674810,-0.48999999999999994,-0.57,-0.15,50.48,0.9799999999999999,-110.6
715,1715374674820,-0.49,-0.57,-0.15,50.48,0.98,-110.6
716,1715374674830,-0.6950000000000001,-0.75,-0.175,-24.115000000000002,45.95375,-23.622499999999995
717,1715374674840,-0.9,-0.93,-0.2,-148.44,120.91,121.34
718,1715374674850,-0.9,-0.93,-0.2,-148.44,120.91,121.34
719,1715374674860,-0.9,-0.93,-0.2,-148.44,120.91,121.34
720,1715374674870,-0.4575,-1.2525000000000002,-0.26749999999999996,-232.485,94.0825,314.6975
721,1715374674880,-0.31,-1.36,-0.29,-260.5,85.14,379.15
722,1715374674890,-0.31,-1.36,-0.29,-260.5,85.14,379.15
723,1715374674900,-0.31,-1.36,-0.29,-260.5,85.14,379.15
724,1715374674910,0.35000000000000003,-1.1885714285714286,-0.22999999999999998,-231.72571428571428,-16.405714285714286,424.34714285714284
725,1715374674920,0.46,-1.16,-0.22,-226.93,-33.33,431.88
726,1715374674930,0.46,-1.16,-0.22,-226.93,-33.33,431.88
727,1715374674940,0.46,-1.16,-0.22,-226.93,-33.33,431.88
728,1715374674950,0.74,-0.5825,-0.22875,-105.64625,-130.5775,352.4125
729,1715374674960,0.78,-0.5,-0.23,-88.32,-144.47,341.06
730,1715374674970,0.78,-0.5,-0.23,-88.32,-144.47,341.06
731,1715374674980,0.7471428571428572,-0.5057142857142857,-0.2542857142857143,-75.67714285714285,-154.46285714285713,328.1042857142857
732,1715374674990,0.55,-0.54,-0.4,0.18,-214.42,250.37
733,1715374675000,0.55,-0.54,-0.4,0.18,-214.42,250.37
734,1715374675010,0.55,-0.54,-0.4,0.18,-214.42,250.37000000000003
735,1715374675020,0.5637500000000001,-0.555,-0.36375,2.9725,-216.06,255.49625
736,1715374675030,0.66,-0.66,-0.11,22.52,-227.54,291.38
737,1715374675040,0.66,-0.66,-0.11,22.52,-227.54,291.38
738,1715374675050,0.66,-0.66,-0.11,22.52,-227.54,291.38
739,1715374675060,0.765,-0.6825,-0.15125,15.77625,-216.6075,295.28625
740,1715374675070,0.9400000000000001,-0.72,-0.22,-31.43,-140.08,322.63
741,1715374675080,0.94,-0.72,-0.22,-31.43,-140.08,322.63
742,1715374675090,0.94,-0.72,-0.22,-31.43,-140.08,322.63
743,1715374675100,1.1842857142857142,-1.2128571428571429,-0.3742857142857143,-43.777142857142856,-148.18857142857146,318.2885714285714
744,1715374675110,1.51,-1.87,-0.58,-60.24,-159.0,312.5
745,1715374675120,1.51,-1.87,-0.58,-60.24,-159.0,312.5
746,1715374675130,1.51,-1.8699999999999999,-0.58,-60.24,-159.0,312.5
747,1715374675140,2.6225,-2.31375,-0.33625,-81.11625000000001,-180.53625,339.18875
748,1715374675150,3.29,-2.5800000000000005,-0.19,-115.91,-216.43,383.67
749,1715374675160,3.29,-2.58,-0.19,-115.91,-216.43,383.67
750,1715374675170,3.29,-2.58,-0.19,-115.91,-216.43,383.67
751,1715374675180,3.9757142857142855,-1.3085714285714285,0.6814285714285714,-166.56714285714287,-72.34428571428572,263.5128571428571
752,1715374675190,4.25,-0.8,1.03,-186.83,-14.71,215.45
753,1715374675200,4.25,-0.8,1.03,-186.83,-14.71,215.45
754,1715374675210,4.25,-0.8,1.03,-186.83,-14.709999999999999,215.45
755,1715374675220,3.14,-1.265,0.9475,-137.8025,168.53,43.835
756,1715374675230,2.77,-1.42,0.92,-121.46,229.61,-13.37
757,1715374675240,2.77,-1.42,0.92,-121.46,229.61,-13.37
758,1715374675250,2.77,-1.42,0.92,-121.46,229.61,-13.37
759,1715374675260,1.85,-0.86,-0.35,146.91,94.42,-68.66
760,1715374675270,1.85,-0.86,-0.35,146.91,94.42,-68.66
761,1715374675280,1.85,-0.86,-0.35,146.91,94.42,-68.66
762,1715374675290,1.85,-0.86,-0.35,146.91,94.42,-68.66
763,1715374675300,1.56,-0.29,-0.12,141.97,-30.76,-148.56
764,1715374675310,1.56,-0.29,-0.12,141.97,-30.76,-148.56
765,1715374675320,1.56,-0.29,-0.12,141.97,-30.76,-148.56
766,1715374675330,1.56,-0.29,-0.12,141.97,-30.76,-148.56
767,1715374675340,1.51625,-0.19374999999999998,0.48374999999999996,80.0725,58.91,-182.30875
768,1715374675350,1.51,-0.18,0.57,71.23,71.72,-187.13
769,1715374675360,1.475,-0.16499999999999998,0.5149999999999999,62.3025,98.83500000000001,-198.635
770,1715374675370,1.3699999999999999,-0.12,0.35,35.52,180.18,-233.15
771,1715374675380,1.37,-0.12,0.35,35.52,180.18,-233.15
772,1715374675390,1.37,-0.12,0.35,35.52,180.18,-233.15
773,1715374675400,1.3775,-0.10875,0.27125,50.76375,171.3675,-263.2025
774,1715374675410,1.39,-0.09,0.14,76.17,156.68,-313.29
775,1715374675420,1.39,-0.09,0.14,76.17,156.68,-313.29
776,1715374675430,1.39,-0.09,0.14,76.17,156.68,-313.29
777,1715374675440,1.5328571428571427,-0.31857142857142856,0.3628571428571429,78.96857142857142,182.36428571428573,-335.10857142857145
778,1715374675450,1.64,-0.49,0.53,82.7,216.61,-364.2
779,1715374675460,1.64,-0.49,0.53,82.7,216.61,-364.2
780,1715374675470,1.64,-0.48999999999999994,0.53,82.7,216.60999999999999,-364.2
781,1715374675480,1.815,-0.58375,0.2675,67.0625,278.82875,-364.08125
782,1715374675490,1.92,-0.64,0.11,57.68,316.16,-364.01
783,1715374675500,1.92,-0.64,0.11,57.68,316.16,-364.01
784,1715374675510,1.92,-0.64,0.11,57.68,316.16,-364.00999999999993
785,1715374675520,2.3175,-0.9175,0.5375000000000001,125.46000000000001,271.605,-421.355
786,1715374675530,2.45,-1.01,0.68,193.24,227.05,-478.7
787,1715374675540,2.45,-1.01,0.68,193.24,227.05,-478.7
788,1715374675550,2.45,-1.01,0.68,193.24,227.05,-478.7
789,1715374675560,1.72,-1.32,0.28,223.63,218.02,-424.38
790,1715374675570,1.72,-1.32,0.28,223.62999999999997,218.02,-424.38
791,1715374675580,1.72,-1.32,0.28,223.63,218.02,-424.38
792,1715374675590,1.54,-1.1500000000000001,0.25,245.465,174.5625,-425.265
793,1715374675600,1.0,-0.64,0.16,310.96999999999997,44.19,-427.92
794,1715374675610,1.0,-0.64,0.16,310.97,44.19,-427.92
795,1715374675620,1.0,-0.64,0.16,310.97,44.19,-427.92
796,1715374675630,0.375,-0.435,0.0,313.87,-44.099999999999994,-410.31
797,1715374675640,-0.25,-0.23,-0.16,316.77,-132.39,-392.7
798,1715374675650,-0.25,-0.23,-0.16,316.77,-132.39,-392.7
799,1715374675660,-0.25,-0.23,-0.16,316.77,-132.39,-392.7
800,1715374675670,-0.7125,-0.18625,-0.022500000000000003,233.245,-110.19999999999999,-308.625
801,1715374675680,-0.99,-0.16,0.06,149.72,-88.01,-224.55
802,1715374675690,-0.99,-0.16,0.06,149.72,-88.01,-224.55
803,1715374675700,-0.99,-0.16,0.06,149.72,-88.01,-224.55
804,1715374675710,-1.575,-0.5725,-0.48750000000000004,-33.47500000000001,55.449999999999996,-14.160000000000004
805,1715374675720,-1.77,-0.71,-0.67,-94.54,103.27,55.97
806,1715374675730,-1.77,-0.71,-0.67,-94.54,103.27,55.97
807,1715374675740,-1.77,-0.71,-0.67,-94.54,103.27,55.96999999999999
808,1715374675750,-1.17,-1.35,-0.72,-174.27125,72.945,266.7325
809,1715374675760,-1.17,-1.35,-0.72,-222.11,54.75,393.19
810,1715374675770,-1.17,-1.35,-0.72,-222.11,54.75,393.19
811,1715374675780,-1.17,-1.35,-0.72,-222.10999999999999,54.75,393.19
812,1715374675790,0.3875,-1.5425,-0.44875,-270.8125,-32.14625,537.38125
813,1715374675800,0.61,-1.57,-0.41,-277.77,-44.56,557.98
814,1715374675810,0.61,-1.57,-0.41,-277.77,-44.56,557.98
815,1715374675820,0.8325,-1.5625,-0.31,-277.9375,-60.0325,549.085
816,1715374675830,1.5,-1.54,-0.01,-278.44,-106.45,522.4
817,1715374675840,1.5,-1.5400000000000003,-0.01,-278.44,-106.45,522.4
818,1715374675850,1.5,-1.54,-0.01,-278.44,-106.45,522.4
819,1715374675860,1.44,-1.33375,-0.058750000000000004,-252.235,-113.93125,481.40875
820,1715374675870,1.34,-0.99,-0.14,-208.56,-126.4,413.09
821,1715374675880,1.34,-0.99,-0.14,-208.56,-126.4,413.09
822,1715374675890,1.34,-0.99,-0.14,-208.56,-126.4,413.09
823,1715374675900,1.28,-0.985,-0.215,-188.785,-171.69,348.115
824,1715374675910,1.22,-0.9799999999999999,-0.29,-169.01,-216.98,283.14
825,1715374675920,1.22,-0.98,-0.29,-169.01,-216.98,283.14
826,1715374675930,1.22,-0.98,-0.29,-169.01,-216.98,283.14
827,1715374675940,1.22,-0.9799999999999999,-0.29,-169.01,-216.98,283.14
828,1715374675950,1.20125,-1.0474999999999999,-0.15125,-146.4425,-248.61124999999998,277.66875
829,1715374675960,1.17,-1.16,0.08,-108.83,-301.33,268.55
830,1715374675970,1.17,-1.16,0.08,-108.83,-301.33,268.55
831,1715374675980,1.275,-1.19,0.02,-71.4725,-261.7375,288.005
832,1715374675990,1.31,-1.2,0.0,-59.02,-248.54,294.49
833,1715374676000,1.31,-1.2,0.0,-59.02,-248.54,294.49000000000007
834,1715374676010,1.31,-1.2,0.0,-59.02,-248.54,294.49
835,1715374676020,1.832857142857143,-2.0228571428571427,-0.37714285714285717,-123.47714285714287,-199.88000000000002,318.7642857142857
836,1715374676030,1.92,-2.16,-0.44,-134.22,-191.77,322.81
837,1715374676040,1.92,-2.16,-0.44,-134.22,-191.77,322.81
838,1715374676050,1.92,-2.16,-0.44,-134.22,-191.77,322.81
839,1715374676060,3.2742857142857145,-2.125714285714286,-0.13142857142857142,-83.26285714285713,-233.89000000000001,394.0128571428572
840,1715374676070,3.5,-2.12,-0.08,-74.77,-240.91,405.88
841,1715374676080,3.5,-2.12,-0.08,-74.77,-240.91,405.88
842,1715374676090,3.5828571428571427,-1.9942857142857144,-0.0028571428571428597,-74.77,-240.91,405.88
843,1715374676100,4.08,-1.24,0.46,-97.2475,-126.145,275.2825
844,1715374676110,4.08,-1.24,0.46,-104.74,-87.89,231.75
845,1715374676120,4.08,-1.24,0.46,-104.74,-87.89,231.75
846,1715374676130,4.08,-1.24,0.46,-104.74,-87.89,231.75
847,1715374676140,3.03,-1.02,0.72,-85.08,99.37,57.62
848,1715374676150,3.03,-1.02,0.72,-85.08,99.37,57.62
849,1715374676160,3.03,-1.02,0.72,-85.08,99.37,57.62
850,1715374676170,2.7849999999999997,-0.9325,0.5375,-42.677499999999995,108.875,21.35
851,1715374676180,2.05,-0.67,-0.01,84.53,137.39,-87.46
852,1715374676190,2.05,-0.67,-0.01,84.53,137.39,-87.46
853,1715374676200,2.05,-0.67,-0.01,84.53,137.39,-87.46
854,1715374676210,1.795,-0.555,-0.21,90.8325,124.8475,-105.2375
855,1715374676220,1.54,-0.44,-0.41,109.74,87.22,-158.57
856,1715374676230,1.5400000000000003,-0.44,-0.41,109.74,87.22,-158.57
857,1715374676240,1.54,-0.44,-0.41,109.74,87.22,-158.57
858,1715374676250,1.3525,-0.3125,-0.1025,87.465,81.545,-168.06
859,1715374676260,1.2900000000000003,-0.27,0.0,65.19,75.87,-177.55
860,1715374676270,1.29,-0.27,0.0,65.19,75.87,-177.55
861,1715374676280,1.2900000000000003,-0.27,0.0,65.19,75.87,-177.55
862,1715374676290,1.23,-0.035,0.11,72.42,83.405,-205.26
863,1715374676300,1.17,0.2,0.22,79.65,90.94,-232.97
864,1715374676310,1.17,0.2,0.22,79.65,90.93999999999998,-232.97
865,1715374676320,1.17,0.2,0.22,79.65,90.94,-232.97
866,1715374676330,1.34,-0.07,0.18,91.13,106.45,-336.49
867,1715374676340,1.34,-0.07,0.18,91.13,106.45,-336.49000000000007
868,1715374676350,1.34,-0.07,0.18,91.13,106.45,-336.49000000000007
869,1715374676360,1.3625,-0.12,0.2075,87.24625,119.67125,-338.96875
870,1715374676370,1.52,-0.47,0.4,60.06,212.22,-356.32
871,1715374676380,1.52,-0.47000000000000003,0.4,60.06,212.22,-356.32
872,1715374676390,1.52,-0.47,0.4,60.06,212.22,-356.32
873,1715374676400,1.6428571428571428,-0.5728571428571428,0.3485714285714286,54.28857142857142,244.82857142857145,-362.46
874,1715374676410,1.95,-0.83,0.22,39.86,326.35,-377.81
875,1715374676420,1.95,-0.83,0.22,39.86,326.35,-377.81
876,1715374676430,1.95,-0.83,0.22,39.86,326.35,-377.81
877,1715374676440,2.21,-0.88,0.3,82.795,283.66,-418.03
878,1715374676450,2.47,-0.93,0.38,125.73,240.97,-458.25
879,1715374676460,2.47,-0.93,0.38,125.73,240.97,-458.25
880,1715374676470,2.47,-0.93,0.38,125.72999999999999,240.96999999999997,-458.25
881,1715374676480,2.47,-0.8512500000000001,0.57125,156.42375,203.4775,-455.52750000000003
882,1715374676490,2.47,-0.72,0.89,207.58,140.99,-450.99
883,1715374676500,2.47,-0.72,0.89,207.58,140.99,-450.99
884,1715374676510,2.47,-0.72,0.89,207.58,140.99,-450.99000000000007
885,1715374676520,1.90125,-0.645,0.5275,221.68,95.94500000000001,-441.56
886,1715374676530,1.56,-0.6,0.31,235.78,50.9,-432.13
887,1715374676540,1.56,-0.6,0.31,235.78,50.9,-432.13
888,1715374676550,1.56,-0.6,0.31,235.78,50.9,-432.13
889,1715374676560,0.44875,-0.57375,0.05625,243.1525,-22.9825,-364.795
890,1715374676570,0.29,-0.57,0.02,245.61,-47.61,-342.35
891,1715374676580,0.29,-0.57,0.02,245.61000000000004,-47.61,-342.35
892,1715374676590,0.29,-0.57,0.02,245.61,-47.60999999999999,-342.3500000000001
893,1715374676600,-0.83,-0.7275,0.0025,89.50125,46.81125,-138.55375
894,1715374676610,-0.99,-0.75,0.0,67.2,60.3,-109.44
895,1715374676620,-0.99,-0.75,0.0,67.2,60.3,-109.44
896,1715374676630,-1.195,-0.905,-0.185,67.2,60.3,-109.44
897,1715374676640,-1.81,-1.3699999999999999,-0.74,-84.67714285714285,143.06571428571428,147.17142857142858
898,1715374676650,-1.81,-1.37,-0.74,-109.99,156.86,189.94
899,1715374676660,-1.81,-1.3699999999999999,-0.74,-109.99,156.85999999999999,189.94
900,1715374676670,-1.48,-1.46,-0.76,-114.33749999999999,114.0275,254.89749999999998
901,1715374676680,-0.49,-1.73,-0.82,-127.38,-14.47,449.77
902,1715374676690,-0.49,-1.73,-0.82,-127.38,-14.47,449.77
903,1715374676700,-0.48999999999999994,-1.73,-0.82,-127.38,-14.47,449.77
904,1715374676710,0.22499999999999998,-1.755,-0.5599999999999999,-95.70375,-64.02250000000001,475.5175
905,1715374676720,0.9400000000000001,-1.78,-0.3,-42.910000000000004,-146.60999999999999,518.43
906,1715374676730,0.94,-1.78,-0.3,-42.91,-146.61,518.43
907,1715374676740,0.94,-1.78,-0.3,-42.91,-146.61,518.43
908,1715374676750,1.1328571428571428,-1.272857142857143,-0.20714285714285713,-31.83142857142857,-116.21714285714286,504.47999999999996
909,1715374676760,1.21,-1.07,-0.17,-27.4,-104.06,498.9
910,1715374676770,1.21,-1.07,-0.17,-27.4,-104.06,498.9
911,1715374676780,1.21,-1.07,-0.17,-27.4,-104.06,498.9
912,1715374676790,1.0457142857142858,-1.02,-0.2485714285714286,-111.72142857142856,-63.21714285714286,465.07142857142856
913,1715374676800,0.98,-1.0,-0.28,-145.45,-46.88,451.54
914,1715374676810,0.98,-1.0,-0.28,-145.45,-46.88,451.54
915,1715374676820,0.98,-1.0,-0.28,-145.45,-46.88,451.54
916,1715374676830,0.92,-0.9828571428571429,-0.05714285714285715,-186.83285714285714,16.84857142857143,445.7285714285714
917,1715374676840,0.91,-0.98,-0.02,-193.73,27.47,444.76
918,1715374676850,0.91,-0.98,-0.02,-193.73,27.47,444.76
919,1715374676860,0.91,-0.98,-0.02,-193.73,27.47,444.76
920,1715374676870,1.124285714285714,-1.237142857142857,-0.62,-300.13571428571424,16.95285714285714,388.31714285714287
921,1715374676880,1.16,-1.28,-0.72,-317.87,15.2,378.91
922,1715374676890,1.16,-1.28,-0.72,-317.87,15.2,378.91
923,1715374676900,1.2871428571428571,-1.5271428571428571,-0.7171428571428571,-310.59857142857146,-23.19142857142857,368.3671428571429
924,1715374676910,2.05,-3.01,-0.7,-266.97,-253.54,305.11
925,1715374676920,2.05,-3.01,-0.7,-266.97,-253.54,305.11
926,1715374676930,2.05,-3.0100000000000002,-0.7,-266.97,-253.54,305.11
927,1715374676940,2.405,-2.9574999999999996,-0.44499999999999995,-226.13750000000002,-294.03749999999997,318.8125
928,1715374676950,3.47,-2.8,0.32,-103.64,-415.53,359.92
929,1715374676960,3.47,-2.8,0.32,-103.64,-415.53000000000003,359.92
930,1715374676970,3.47,-2.8,0.32,-103.64,-415.53,359.92
931,1715374676980,3.5142857142857147,-2.5157142857142856,0.43714285714285717,-104.50285714285714,-372.86571428571426,338.75857142857143
932,1715374676990,3.78,-0.81,1.14,-109.68,-116.88,211.79
933,1715374677000,3.78,-0.81,1.14,-109.68,-116.88,211.79
934,1715374677010,3.78,-0.8099999999999999,1.14,-109.67999999999999,-116.88,211.79
935,1715374677020,2.955,-1.3475,0.80875,-36.39875,6.407499999999999,21.358749999999993
936,1715374677030,2.46,-1.67,0.61,7.57,80.38,-92.9
937,1715374677040,2.46,-1.67,0.61,7.57,80.38,-92.9
938,1715374677050,2.46,-1.67,0.61,7.57,80.38,-92.9
939,1715374677060,1.8525,-1.5425,0.06999999999999999,88.4125,78.28,-99.305
940,1715374677070,1.65,-1.5,-0.11,115.36,77.58,-101.44
941,1715374677080,1.65,-1.5,-0.11,115.36,77.58,-101.44
942,1715374677090,1.65,-1.5,-0.11,115.36,77.58,-101.43999999999998
943,1715374677100,1.5375,-0.9225,-0.1475,81.16,73.14,-123.0925
944,1715374677110,1.5,-0.73,-0.16,69.76,71.66,-130.31
945,1715374677120,1.5,-0.7299999999999999,-0.16,69.76,71.66,-130.31
946,1715374677130,1.5,-0.73,-0.16,69.76,71.66,-130.31
947,1715374677140,1.5,-0.73,-0.16,69.76,71.66,-130.31
948,1715374677150,1.4785714285714284,-0.6914285714285714,-0.11714285714285715,64.75571428571429,78.57428571428571,-136.94571428571427
949,1715374677160,1.35,-0.46,0.14,34.73,120.06,-176.76
950,1715374677170,1.35,-0.46,0.14,34.73,120.06,-176.76
951,1715374677180,1.2757142857142856,-0.3742857142857143,0.17428571428571432,35.98714285714286,136.94,-195.94285714285712
952,1715374677190,1.22,-0.31,0.2,36.93,149.6,-210.33
953,1715374677200,1.22,-0.31,0.2,36.93,149.6,-210.33
954,1715374677210,1.217142857142857,-0.2671428571428572,0.21714285714285714,36.93,149.6,-210.33
955,1715374677220,1.21,-0.16,0.26,84.11,131.9,-286.8
956,1715374677230,1.21,-0.16,0.26,84.11,131.9,-286.8
957,1715374677240,1.2099999999999997,-0.16,0.26,84.11,131.9,-286.8
958,1715374677250,1.2125,-0.2375,0.28,84.11,131.9,-286.8
959,1715374677260,1.22,-0.47,0.34,105.65,169.07,-339.6
960,1715374677270,1.22,-0.47000000000000003,0.34,105.65,169.07,-339.6
961,1715374677280,1.22,-0.47,0.34,105.65,169.07,-339.6
962,1715374677290,1.3625,-0.485,0.38125000000000003,103.43,199.89875,-329.7825
963,1715374677300,1.6,-0.51,0.45,99.73,251.28,-313.42
964,1715374677310,1.6,-0.51,0.45,99.73,251.28,-313.42
965,1715374677320,1.6,-0.51,0.45,99.73,251.28,-313.42
966,1715374677330,2.3000000000000003,-0.7242857142857143,0.45,-4.162857142857141,445.41571428571433,-269.86285714285714
967,1715374677340,2.58,-0.81,0.45,-45.72,523.07,-252.44
968,1715374677350,2.58,-0.81,0.45,-45.72,523.07,-252.44
969,1715374677360,2.58,-0.81,0.45,-45.72,523.07,-252.44
970,1715374677370,1.94,-1.22,0.44,92.70142857142856,495.99857142857144,-253.6614285714286
971,1715374677380,1.94,-1.22,0.44,148.07,485.17,-254.15
972,1715374677390,1.94,-1.22,0.44,148.07,485.17,-254.15
973,1715374677400,1.94,-1.22,0.44,148.07,485.17,-254.15
974,1715374677410,1.14,-0.84,0.26,259.90375,309.40875,-289.50875
975,1715374677420,1.14,-0.84,0.26,275.88,284.3,-294.56
976,1715374677430,1.14,-0.84,0.26,275.88,284.3,-294.56
977,1715374677440,0.85,-0.815,0.1325,279.96125,262.57875,-291.85875
978,1715374677450,-0.02,-0.74,-0.25,308.53000000000003,110.53,-272.95
979,1715374677460,-0.02,-0.74,-0.25,308.53,110.53,-272.95
980,1715374677470,-0.02,-0.74,-0.25,308.53000000000003,110.53,-272.95
981,1715374677480,-0.2,-0.685,-0.33999999999999997,308.53,110.53,-272.95
982,1715374677490,-0.74,-0.52,-0.61,199.34,-59.94,-99.3
983,1715374677500,-0.74,-0.52,-0.61,199.34,-59.94,-99.3
984,1715374677510,-0.7414285714285713,-0.5157142857142858,-0.5628571428571428,180.24428571428572,-66.86285714285714,-74.59
985,1715374677520,-0.75,-0.49,-0.28,65.67,-108.4,73.67
986,1715374677530,-0.75,-0.49,-0.28,65.67,-108.4,73.67
987,1715374677540,-0.75,-0.48999999999999994,-0.28,65.67,-108.4,73.67
988,1715374677550,-0.6075,-0.58375,-0.36250000000000004,-17.321249999999992,-62.60125,159.1325
989,1715374677560,-0.37,-0.74,-0.5,-155.64,13.73,301.57
990,1715374677570,-0.37,-0.74,-0.5,-155.64000000000001,13.73,301.57
991,1715374677580,-0.37,-0.74,-0.5,-155.64,13.73,301.57
992,1715374677590,-0.05499999999999999,-1.065,-0.765,-230.44,-33.205,332.975
993,1715374677600,0.26,-1.39,-1.03,-305.24000000000007,-80.14,364.38
994,1715374677610,0.26,-1.39,-1.03,-305.24,-80.14,364.38
995,1715374677620,0.26,-1.39,-1.03,-305.24,-80.14,364.38
996,1715374677630,0.6942857142857143,-1.4528571428571428,-0.9842857142857142,-250.96142857142857,-165.33571428571426,356.1385714285714
997,1715374677640,1.02,-1.5,-0.95,-178.59,-278.93,345.15
998,1715374677650,1.02,-1.5,-0.95,-178.59,-278.93,345.15
999,1715374677660,1.02,-1.5,-0.95,-178.59,-278.93,345.15
1000,1715374677670,1.00125,-1.275,-0.6625,-248.47750000000002,-250.66125,315.93125
1001,1715374677680,0.99,-1.14,-0.49,-290.41,-233.7,298.4
