id,timestamp,acc_x,acc_y,acc_z,gyro_x,gyro_y,gyro_z
0,1715374811450,0.3,-0.18,0.85,13.92,-22.71,6.839999999999999
1,1715374811460,0.32625000000000004,-0.25,0.96375,-3.39,-26.137500000000003,5.7375
2,1715374811470,0.33,-0.26,0.9799999999999999,-9.16,-27.28,5.37
3,1715374811480,0.33,-0.26,0.9799999999999999,-9.16,-27.28,5.37
4,1715374811490,0.33,-0.26,0.9799999999999999,-9.16,-27.28,5.37
5,1715374811500,0.33,-0.32125000000000004,1.0325,-18.677500000000002,-12.6325,11.505
6,1715374811510,0.33,-0.33,1.04,-21.85,-7.75,13.55
7,1715374811520,0.33,-0.33,1.04,-21.85,-7.75,13.55
8,1715374811530,0.33,-0.33,1.04,-21.85,-7.75,13.55
9,1715374811540,0.28625,-0.34249999999999997,1.05875,-19.21875,-1.875,24.118750000000002
10,1715374811550,0.26,-0.35,1.07,-17.64,1.65,30.46
11,1715374811560,0.26,-0.35,1.07,-17.64,1.65,30.46
12,1715374811570,0.26,-0.35,1.07,-17.64,1.65,30.46
13,1715374811580,0.275,-0.285,1.0150000000000001,-28.075,3.51,37.11
14,1715374811590,0.29,-0.22,0.96,-38.51,5.37,43.76
15,1715374811600,0.29,-0.22,0.96,-38.51,5.37,43.76
16,1715374811610,0.29,-0.22,0.96,-38.51,5.37,43.76
17,1715374811620,0.29,-0.22,0.96,-38.51,5.37,43.76
18,1715374811630,0.29,-0.22,0.96,-38.51,5.37,43.76
19,1715374811640,0.29,-0.22,0.96,-38.51,5.37,43.76
20,1715374811650,0.29,-0.22,0.96,-38.51,5.37,43.76
21,1715374811660,0.29,-0.22,0.96,-38.51,5.37,43.76
22,1715374811670,0.26375,-0.22,0.91125,-39.88625,1.06875,52.73375
23,1715374811680,0.22,-0.22,0.83,-42.18,-6.1,67.69
24,1715374811690,0.19714285714285715,-0.2657142857142857,0.8214285714285714,-54.05428571428571,3.682857142857143,72.99
25,1715374811700,0.14,-0.38,0.8,-83.74,28.14,86.24
26,1715374811710,0.14,-0.38,0.8,-83.74,28.140000000000004,86.24
27,1715374811720,0.14,-0.38000000000000006,0.8000000000000002,-83.74,28.14,86.24
28,1715374811730,-0.1,-0.2,0.62,31.86,-28.2,111.39
29,1715374811740,-0.1,-0.2,0.62,31.86,-28.2,111.39
30,1715374811750,-0.1,-0.2,0.62,31.86,-28.2,111.39
31,1715374811760,-0.0825,-0.18125000000000002,0.61625,26.33625,-32.12125,110.04
32,1715374811770,0.04,-0.05,0.59,-12.33,-59.57,100.59
33,1715374811780,0.04,-0.05,0.59,-12.33,-59.57,100.59
34,1715374811790,0.04,-0.05,0.59,-12.33,-59.57,100.59
35,1715374811800,-0.007142857142857141,-0.08142857142857143,0.5528571428571428,-12.33,-59.57,100.59
36,1715374811810,-0.29,-0.27,0.33,-89.17,-12.76,145.32
37,1715374811820,-0.29,-0.27,0.33,-89.17,-12.76,145.32
38,1715374811830,-0.29,-0.27,0.33,-89.17,-12.76,145.32
39,1715374811840,-0.26,-0.26625,0.24375000000000002,-91.91875,-31.7575,138.5025
40,1715374811850,-0.21,-0.26,0.1,-96.5,-63.42,127.14
41,1715374811860,-0.21,-0.26,0.1,-96.5,-63.42,127.14
42,1715374811870,-0.21,-0.26,0.1,-96.5,-63.42,127.14
43,1715374811880,-0.18,-0.43,0.165,-106.44749999999999,-63.205,121.28
44,1715374811890,-0.15,-0.6,0.23,-136.29,-62.56,103.7
45,1715374811900,-0.15,-0.6,0.23,-136.29,-62.56,103.7
46,1715374811910,-0.15,-0.6,0.23,-136.29,-62.56,103.7
47,1715374811920,0.047142857142857146,-0.54,0.05,-106.64714285714285,-69.62428571428572,116.07857142857142
48,1715374811930,0.08,-0.53,0.02,-94.79,-72.45,121.03
49,1715374811940,0.08,-0.53,0.02,-94.79,-72.45,121.03
50,1715374811950,0.08,-0.53,0.02,-94.79,-72.45,121.03
51,1715374811960,0.5449999999999999,-0.845,-0.12250000000000001,-135.485,-106.22999999999999,107.2075
52,1715374811970,0.7,-0.95,-0.17,-149.05,-117.49,102.6
53,1715374811980,0.7,-0.95,-0.17,-149.05,-117.49,102.6
54,1715374811990,0.7,-0.95,-0.17,-149.05,-117.49,102.6
55,1715374812000,1.48,-1.82,-0.25,-163.09,-0.31,52.73
56,1715374812010,1.48,-1.82,-0.25,-163.09,-0.31,52.73
57,1715374812020,1.48,-1.82,-0.25,-163.09,-0.31,52.73
58,1715374812030,1.615,-2.2325,-0.175,-182.7725,39.927499999999995,13.012499999999998
59,1715374812040,2.02,-3.47,0.05,-241.82,160.64000000000001,-106.14
60,1715374812050,2.02,-3.47,0.05,-241.82,160.64,-106.14
61,1715374812060,2.02,-3.47,0.05,-241.82,160.64000000000001,-106.14
62,1715374812070,2.02,-3.67,0.11249999999999999,-241.82,160.64,-106.14
63,1715374812080,2.02,-4.27,0.3,-120.42,286.68,-212.59
64,1715374812090,2.02,-4.27,0.3,-120.42,286.68,-212.59
65,1715374812100,2.02,-4.27,0.3,-120.42,286.68,-212.59
66,1715374812110,1.775,-4.51,0.585,-112.8,286.36125,-251.03875
67,1715374812120,1.53,-4.75,0.87,-100.1,285.83,-315.12
68,1715374812130,1.53,-4.75,0.87,-100.1,285.83,-315.12
69,1715374812140,1.53,-4.75,0.87,-100.1,285.83,-315.12
70,1715374812150,0.8157142857142857,-4.47,1.1957142857142855,-49.42,243.86999999999998,-337.33714285714285
71,1715374812160,0.28,-4.26,1.44,-11.41,212.4,-354.0
72,1715374812170,0.28,-4.26,1.44,-11.41,212.4,-354.0
73,1715374812180,0.28,-4.26,1.44,-11.41,212.4,-354.0
74,1715374812190,-0.0575,-3.675,1.5899999999999999,27.860000000000003,103.32,-352.77
75,1715374812200,-0.17,-3.48,1.64,40.95,66.96,-352.36
76,1715374812210,-0.17,-3.48,1.64,40.95,66.96,-352.36
77,1715374812220,-0.17,-3.48,1.64,40.95,66.96,-352.36
78,1715374812230,-0.28,-2.8,1.26,143.86,-12.88,-350.77
79,1715374812240,-0.28,-2.8,1.26,143.86,-12.88,-350.77
80,1715374812250,-0.28,-2.8,1.26,143.86,-12.88,-350.77
81,1715374812260,-0.28500000000000003,-2.7249999999999996,1.19,152.66375000000002,-25.78875,-357.66625
82,1715374812270,-0.32,-2.2,0.7,214.29,-116.15,-405.94
83,1715374812280,-0.32,-2.2,0.7,214.29,-116.15,-405.94
84,1715374812290,-0.32,-2.2,0.6999999999999998,214.29,-116.15000000000002,-405.94
85,1715374812300,-0.28,-2.2350000000000003,0.6799999999999999,204.265,-137.725,-424.0225
86,1715374812310,-0.16,-2.34,0.62,174.19,-202.45,-478.27
87,1715374812320,-0.16,-2.34,0.62,174.19,-202.45,-478.27
88,1715374812330,-0.16,-2.34,0.62,174.19,-202.45,-478.27
89,1715374812340,-0.13142857142857142,-2.3685714285714283,0.4428571428571429,161.8814285714286,-183.4442857142857,-508.89285714285717
90,1715374812350,-0.11,-2.39,0.31,152.65,-169.19,-531.86
91,1715374812360,-0.11,-2.39,0.31,152.65,-169.19,-531.86
92,1715374812370,-0.11,-2.39,0.31,152.65,-169.19,-531.86
93,1715374812380,-0.22249999999999998,-2.265,0.16625,128.4625,-133.40875,-526.17875
94,1715374812390,-0.29,-2.19,0.08,113.95,-111.93999999999998,-522.77
95,1715374812400,-0.29,-2.19,0.08,113.95,-111.94,-522.77
96,1715374812410,-0.29,-2.19,0.08,113.95,-111.93999999999998,-522.77
97,1715374812420,-0.3725,-2.0475,0.035,85.89250000000001,-62.7775,-500.15
98,1715374812430,-0.4,-2.0,0.02,76.54,-46.39,-492.61
99,1715374812440,-0.4,-2.0,0.02,76.54,-46.39,-492.61
100,1715374812450,-0.4,-2.0,0.02,76.54,-46.39,-492.61
101,1715374812460,-0.47000000000000003,-1.83,-0.02,37.47714285714286,-49.94428571428572,-476.95285714285717
102,1715374812470,-0.47,-1.83,-0.02,8.18,-52.61,-465.21
103,1715374812480,-0.47,-1.83,-0.02,8.18,-52.61,-465.21
104,1715374812490,-0.6542857142857142,-1.5514285714285714,-0.13999999999999999,-11.045714285714284,-44.78857142857142,-442.73999999999995
105,1715374812500,-0.9,-1.18,-0.3,-36.68,-34.36,-412.78
106,1715374812510,-0.9,-1.18,-0.3,-36.68,-34.36,-412.78000000000003
107,1715374812520,-0.9,-1.18,-0.3,-36.68,-34.36,-412.78
108,1715374812530,-1.58125,-0.5549999999999999,-0.38125,-76.77375,-43.55375,-367.22999999999996
109,1715374812540,-1.99,-0.18,-0.43,-100.83,-49.07,-339.9
110,1715374812550,-1.99,-0.18,-0.43,-100.83,-49.07,-339.9
111,1715374812560,-1.99,-0.18,-0.43,-100.83,-49.07,-339.9
112,1715374812570,-2.8328571428571427,-0.0014285714285714218,-0.13,-114.64142857142858,-61.76714285714286,-258.2885714285714
113,1715374812580,-3.17,0.07,-0.01,-125.0,-71.29,-197.08
114,1715374812590,-3.1699999999999995,0.07,-0.01,-125.0,-71.29,-197.08
115,1715374812600,-3.17,0.07,-0.01,-125.0,-71.29,-197.08
116,1715374812610,-4.4557142857142855,0.4642857142857143,-0.06142857142857144,-24.602857142857143,4.0442857142857145,3.7571428571428527
117,1715374812620,-4.67,0.53,-0.07,-7.87,16.6,37.23
118,1715374812630,-4.67,0.53,-0.07,-7.87,16.6,37.23
119,1715374812640,-4.66125,0.5375,-0.022500000000000006,-15.9875,-9.767499999999998,42.28874999999999
120,1715374812650,-4.6,0.59,0.31,-72.81,-194.34,77.7
121,1715374812660,-4.6,0.59,0.31,-72.81,-194.34,77.7
122,1715374812670,-4.6,0.59,0.31,-72.81,-194.34,77.7
123,1715374812680,-4.145,-0.09000000000000002,0.355,13.751250000000002,-196.7175,157.46625
124,1715374812690,-3.69,-0.7700000000000001,0.4,158.02,-200.68,290.41
125,1715374812700,-3.69,-0.77,0.4,158.02,-200.68,290.41
126,1715374812710,-3.69,-0.77,0.4,158.02,-200.68,290.41
127,1715374812720,-2.6571428571428575,-1.5114285714285713,-0.1957142857142857,188.7571428571429,-229.06428571428572,356.95428571428573
128,1715374812730,-1.28,-2.5,-0.99,229.74,-266.91,445.68
129,1715374812740,-1.28,-2.5,-0.99,229.74,-266.91,445.68
130,1715374812750,-1.28,-2.5,-0.99,229.74,-266.91,445.68
131,1715374812760,-1.05375,-2.7225,-1.03375,236.8125,-264.46875,455.14
132,1715374812770,0.53,-4.28,-1.34,286.32,-247.37999999999997,521.36
133,1715374812780,0.53,-4.28,-1.34,286.32,-247.38,521.36
134,1715374812790,1.2514285714285713,-4.451428571428571,-1.4042857142857144,286.32,-247.37999999999997,521.36
135,1715374812800,1.54,-4.52,-1.43,293.3925,-203.08875,547.63625
136,1715374812810,1.5400000000000003,-4.52,-1.43,305.18,-129.27,591.43
137,1715374812820,1.54,-4.52,-1.43,305.18,-129.27,591.43
138,1715374812830,1.93375,-4.33625,-0.975,266.9525,-55.935,550.915
139,1715374812840,1.99,-4.31,-0.91,254.21,-31.49,537.41
140,1715374812850,1.99,-4.31,-0.91,254.21,-31.49,537.41
141,1715374812860,1.99,-4.31,-0.91,254.21,-31.49,537.41
142,1715374812870,1.3800000000000001,-3.37,-0.5,194.58,64.88,517.21
143,1715374812880,1.38,-3.37,-0.5,194.58,64.88,517.21
144,1715374812890,1.3800000000000001,-3.37,-0.5,194.58,64.88,517.21
145,1715374812900,1.38,-3.37,-0.5,194.58,64.88,517.21
146,1715374812910,1.3800000000000001,-3.37,-0.5,194.58,64.88,517.21
147,1715374812920,1.005,-2.9575,-0.1925,119.8725,109.28,499.12750000000005
148,1715374812930,0.88,-2.82,-0.09,94.97,124.08,493.1
149,1715374812940,0.8525,-2.785,-0.042499999999999996,84.1675,146.13,500.165
150,1715374812950,0.7700000000000001,-2.68,0.1,51.76,212.28,521.36
151,1715374812960,0.77,-2.68,0.1,51.76,212.28,521.36
152,1715374812970,0.77,-2.68,0.1,51.76,212.28,521.36
153,1715374812980,0.7325,-2.5100000000000002,0.10250000000000001,36.21,218.3825,521.7575
154,1715374812990,0.62,-2.0,0.11,-10.44,236.69,522.95
155,1715374813000,0.62,-2.0,0.11,-10.44,236.69,522.95
156,1715374813010,0.62,-2.0,0.11,-10.44,236.69,522.95
157,1715374813020,0.995,-2.1325,0.115,-31.695,187.5875,485.94750000000005
158,1715374813030,2.12,-2.53,0.13,-95.46,40.28000000000001,374.94
159,1715374813040,2.12,-2.53,0.13,-95.46,40.28,374.94
160,1715374813050,2.12,-2.53,0.13,-95.46,40.28,374.94
161,1715374813060,4.3774999999999995,-3.37,0.20500000000000002,-90.1975,90.59875000000001,348.35249999999996
162,1715374813070,5.13,-3.65,0.23,-87.04,120.79,332.4
163,1715374813080,5.13,-3.65,0.23,-87.04,120.79,332.4
164,1715374813090,5.13,-3.65,0.23,-87.04,120.79,332.4
165,1715374813100,5.85,-4.001428571428571,-0.06999999999999999,-19.865714285714287,-5.4499999999999975,16.354285714285712
166,1715374813110,5.97,-4.06,-0.12,-8.67,-26.49,-36.32
167,1715374813120,5.97,-4.06,-0.12,-8.67,-26.49,-36.32
168,1715374813130,5.97,-4.06,-0.12,-8.67,-26.49,-36.32
169,1715374813140,4.003333333333333,-5.501666666666666,-0.03666666666666667,36.855,136.47666666666666,-257.06166666666667
170,1715374813150,3.61,-5.79,-0.02,45.96,169.07,-301.21
171,1715374813160,3.61,-5.79,-0.02,45.96,169.07,-301.21
172,1715374813170,3.61,-5.79,-0.02,45.96,169.07,-301.21
173,1715374813180,1.3,-5.15,-0.06,158.66000000000003,257.8771428571428,-248.67428571428573
174,1715374813190,1.3,-5.15,-0.06,203.74,293.4,-227.66
175,1715374813200,1.3,-5.15,-0.06,203.74,293.4,-227.66
176,1715374813210,1.3,-5.15,-0.06,203.74,293.4,-227.66
177,1715374813220,0.58,-3.76,-0.05,271.73,151.49,-320.25
178,1715374813230,0.58,-3.76,-0.05,271.73,151.49,-320.25
179,1715374813240,0.58,-3.7600000000000002,-0.05,271.73,151.49,-320.25
180,1715374813250,0.44749999999999995,-3.5949999999999998,-0.06,283.295,135.285,-328.765
181,1715374813260,0.05,-3.1,-0.09,317.99,86.67,-354.31
182,1715374813270,0.05,-3.1,-0.09,317.99000000000007,86.67,-354.31
183,1715374813280,0.05,-3.1,-0.09,317.99,86.67,-354.31
184,1715374813290,-0.2,-2.87,-0.255,333.92,45.870000000000005,-391.53999999999996
185,1715374813300,-0.45,-2.64,-0.42,349.85,5.07,-428.77
186,1715374813310,-0.45,-2.64,-0.42,349.85,5.07,-428.77
187,1715374813320,-0.45,-2.64,-0.42,349.85,5.07,-428.77
188,1715374813330,-0.4875,-2.46,-0.435,296.86875,-45.480000000000004,-465.4325
189,1715374813340,-0.5,-2.4,-0.44,265.08,-75.81000000000002,-487.43
190,1715374813350,-0.5,-2.4,-0.44,265.08,-75.81,-487.43
191,1715374813360,-0.5,-2.4,-0.44,265.08,-75.81,-487.43
192,1715374813370,-0.3,-2.43,-0.31,246.9085714285714,-56.86714285714286,-465.2814285714286
193,1715374813380,-0.3,-2.43,-0.31,233.28,-42.66,-448.67
194,1715374813390,-0.3,-2.43,-0.31,233.28,-42.66,-448.67
195,1715374813400,-0.3,-2.43,-0.31,233.28,-42.660000000000004,-448.67
196,1715374813410,0.1,-2.05,-0.31,145.45,-76.17,-471.5
197,1715374813420,0.1,-2.05,-0.31,145.45,-76.17,-471.5
198,1715374813430,0.1,-2.05,-0.31,145.45,-76.17,-471.5
199,1715374813440,0.12714285714285714,-2.0628571428571427,-0.2914285714285714,137.90714285714284,-69.16857142857143,-469.23285714285714
200,1715374813450,0.29,-2.14,-0.18,92.65,-27.16,-455.63
201,1715374813460,0.29,-2.14,-0.18,92.65,-27.16,-455.63
202,1715374813470,0.29,-2.14,-0.18,92.65,-27.16,-455.63
203,1715374813480,0.18428571428571425,-1.9885714285714289,-0.24571428571428572,89.51285714285714,-1.9257142857142864,-437.09285714285716
204,1715374813490,-0.08,-1.61,-0.41,81.67,61.16,-390.75
205,1715374813500,-0.08,-1.61,-0.41,81.67,61.16,-390.75
206,1715374813510,-0.08,-1.61,-0.41,81.67,61.16,-390.75
207,1715374813520,-0.6000000000000001,-1.235,-0.475,42.145,22.86,-385.71500000000003
208,1715374813530,-1.12,-0.86,-0.54,2.62,-15.44,-380.68
209,1715374813540,-1.12,-0.86,-0.54,2.62,-15.44,-380.68
210,1715374813550,-1.12,-0.86,-0.54,2.62,-15.44,-380.68
211,1715374813560,-2.1574999999999998,-0.2725,-0.45875,-33.19875,-87.80874999999999,-379.4175
212,1715374813570,-2.78,0.08,-0.41,-54.69,-131.23,-378.66
213,1715374813580,-2.78,0.08,-0.41,-54.69,-131.23,-378.66
214,1715374813590,-2.78,0.08,-0.41,-54.69,-131.23,-378.66
215,1715374813600,-4.0025,-0.2425,-0.012499999999999997,-4.702499999999999,-189.95499999999998,-221.3775
216,1715374813610,-4.41,-0.35,0.12,11.96,-209.53,-168.95
217,1715374813620,-4.41,-0.35,0.12,11.96,-209.53,-168.95
218,1715374813630,-4.41,-0.35,0.12,11.96,-209.53,-168.95
219,1715374813640,-4.72,0.31,-0.2,106.14,-6.47,148.44
220,1715374813650,-4.72,0.31,-0.2,106.14,-6.47,148.44
221,1715374813660,-4.72,0.31,-0.2,106.14,-6.47,148.44
222,1715374813670,-4.654999999999999,0.22,-0.2975,109.08500000000001,-24.772499999999997,164.995
223,1715374813680,-4.46,-0.05,-0.59,129.7,-152.89000000000001,280.88
224,1715374813690,-4.46,-0.05,-0.59,129.7,-152.89,280.88
225,1715374813700,-4.46,-0.05,-0.59,129.7,-152.89,280.88
226,1715374813710,-3.8275,-0.585,-0.73,138.0775,-173.445,344.6325
227,1715374813720,-1.93,-2.19,-1.15,163.21,-235.11,535.89
228,1715374813730,-1.93,-2.19,-1.15,163.21,-235.10999999999999,535.89
229,1715374813740,-1.93,-2.19,-1.15,163.21,-235.11,535.89
230,1715374813750,-0.7,-3.245,-1.67,142.76250000000002,-239.7475,563.7825
231,1715374813760,0.53,-4.3,-2.19,81.42,-253.66,647.46
232,1715374813770,0.53,-4.3,-2.19,81.42,-253.66,647.46
233,1715374813780,0.53,-4.3,-2.19,81.42,-253.66,647.46
234,1715374813790,1.5299999999999998,-4.585714285714286,-2.0185714285714282,88.1857142857143,-285.8885714285714,573.6257142857143
235,1715374813800,2.28,-4.8,-1.89,93.26,-310.06,518.25
236,1715374813810,2.28,-4.8,-1.89,93.26,-310.06,518.25
237,1715374813820,2.28,-4.8,-1.89,93.26,-310.06,518.25
238,1715374813830,2.2424999999999997,-4.1775,-1.185,110.35,-153.475,531.005
239,1715374813840,2.23,-3.97,-0.9499999999999998,127.44,3.11,543.76
240,1715374813850,2.23,-3.97,-0.95,127.44000000000001,3.11,543.76
241,1715374813860,2.10125,-3.845,-0.8737499999999999,122.2675,4.5600000000000005,527.9975
242,1715374813870,1.2,-2.97,-0.34,86.06000000000002,14.709999999999999,417.66
243,1715374813880,1.2,-2.97,-0.34,86.06,14.71,417.66
244,1715374813890,1.2,-2.97,-0.34,86.06,14.71,417.66
245,1715374813900,1.2,-2.97,-0.34,86.06000000000002,14.709999999999999,417.66
246,1715374813910,0.47,-2.47,-0.05,59.57,33.14,419.43
247,1715374813920,0.47,-2.47,-0.05,59.57,33.14,419.43
248,1715374813930,0.47,-2.47,-0.05,59.57,33.14,419.43
249,1715374813940,0.4628571428571428,-2.475714285714286,-0.01285714285714286,57.957142857142856,47.48285714285714,434.6985714285714
250,1715374813950,0.42,-2.51,0.21,48.28,133.54,526.31
251,1715374813960,0.42,-2.51,0.21,48.28,133.54,526.31
252,1715374813970,0.42,-2.5100000000000002,0.21,48.28000000000001,133.54,526.31
253,1715374813980,0.535,-2.4724999999999997,0.1625,34.805,158.23,548.0975
254,1715374813990,0.88,-2.36,0.02,-5.62,232.3,613.46
255,1715374814000,0.88,-2.36,0.02,-5.62,232.3,613.46
256,1715374814010,0.88,-2.36,0.02,-5.62,232.3,613.46
257,1715374814020,1.3625,-2.2575,0.175,-36.272499999999994,240.1425,573.6975
258,1715374814030,2.81,-1.95,0.64,-128.23,263.67,454.41
259,1715374814040,2.81,-1.95,0.64,-128.23,263.67,454.41
260,1715374814050,2.81,-1.95,0.64,-128.23,263.67,454.41
261,1715374814060,3.4975,-4.4125,1.09625,-169.9475,199.4625,434.52750000000003
262,1715374814070,3.91,-5.89,1.37,-295.1,6.84,374.88
263,1715374814080,3.91,-5.89,1.37,-295.1,6.84,374.88
264,1715374814090,3.91,-5.89,1.3699999999999999,-295.1,6.839999999999999,374.88
265,1715374814100,3.58375,-5.80375,0.7325,-171.73625,3.84,64.9725
266,1715374814110,3.04,-5.66,-0.33,33.87,-1.16,-451.54
267,1715374814120,3.04,-5.660000000000001,-0.33,33.87,-1.16,-451.54
268,1715374814130,3.04,-5.66,-0.33,33.87,-1.16,-451.54
269,1715374814140,0.9775,-5.4125,0.195,202.1475,285.445,-258.4525
270,1715374814150,0.29,-5.33,0.37,258.24,380.98,-194.09
271,1715374814160,0.29,-5.33,0.37,258.24,380.98,-194.09
272,1715374814170,0.29,-5.33,0.37,258.24,380.98,-194.09
273,1715374814180,0.29,-5.33,0.37,258.24,380.98,-194.09
274,1715374814190,0.29,-5.33,0.37,258.24,380.98,-194.09
275,1715374814200,0.29,-5.33,0.37,258.24,380.98,-194.09
276,1715374814210,0.23374999999999999,-4.64,0.485,218.5275,231.56125,-167.27125
277,1715374814220,0.4,-3.73,0.29,362.85,106.81000000000002,-156.01
278,1715374814230,0.4,-3.73,0.29,362.85,106.81,-156.01
279,1715374814240,0.4,-3.73,0.29,362.85,106.81,-156.01
280,1715374814250,0.2525,-3.4975,0.22249999999999998,377.4375,83.45,-170.4275
281,1715374814260,-0.19,-2.8,0.02,421.2,13.37,-213.68
282,1715374814270,-0.19,-2.8,0.02,421.2,13.37,-213.68
283,1715374814280,-0.19,-2.8,0.02,421.2,13.37,-213.68
284,1715374814290,-0.395,-2.77,-0.21,422.48249999999996,-19.1925,-245.5875
285,1715374814300,-0.6,-2.7399999999999998,-0.44,426.33,-116.88,-341.31
286,1715374814310,-0.6,-2.74,-0.44,426.33,-116.88,-341.31
287,1715374814320,-0.59625,-2.725,-0.51875,411.8175,-154.4175,-395.96625
288,1715374814330,-0.59,-2.7,-0.65,387.63,-216.98,-487.06
289,1715374814340,-0.59,-2.7,-0.65,387.63,-216.98,-487.06
290,1715374814350,-0.59,-2.7,-0.65,387.63,-216.98,-487.06
291,1715374814360,-0.5542857142857143,-2.6771428571428575,-0.6428571428571429,376.5128571428572,-213.8842857142857,-494.68142857142857
292,1715374814370,-0.34,-2.54,-0.6,309.81,-195.31,-540.41
293,1715374814380,-0.34,-2.54,-0.6,309.81,-195.31,-540.41
294,1715374814390,-0.34,-2.54,-0.6,309.81,-195.31,-540.41
295,1715374814400,-0.27125,-2.3400000000000003,-0.55625,266.9725,-138.92875,-511.0725
296,1715374814410,-0.23,-2.22,-0.53,241.27,-105.1,-493.47
297,1715374814420,-0.23,-2.22,-0.53,241.27,-105.1,-493.46999999999997
298,1715374814430,-0.23,-2.22,-0.53,241.27,-105.1,-493.47
299,1715374814440,-0.05,-2.1225,-0.47750000000000004,203.005,-63.0325,-437.2575
300,1715374814450,0.01,-2.09,-0.46,190.25,-49.01,-418.52
301,1715374814460,0.01,-2.09,-0.46,190.25,-49.01,-418.52
302,1715374814470,0.01,-2.09,-0.46,190.25,-49.01,-418.52
303,1715374814480,0.24625000000000002,-1.81,-0.60875,111.26375,1.03125,-353.525
304,1715374814490,0.28,-1.77,-0.63,99.98,8.18,-344.24000000000007
305,1715374814500,0.28,-1.77,-0.63,99.98,8.18,-344.24
306,1715374814510,0.04000000000000001,-1.6225,-0.6775,75.6875,-1.2800000000000002,-369.14250000000004
307,1715374814520,-0.68,-1.18,-0.82,2.81,-29.66,-443.85
308,1715374814530,-0.68,-1.18,-0.82,2.81,-29.66,-443.85
309,1715374814540,-0.68,-1.18,-0.82,2.81,-29.66,-443.85
310,1715374814550,-1.2525000000000002,-0.865,-0.6849999999999999,2.81,-29.66,-443.85
311,1715374814560,-2.97,0.08,-0.28,-78.49,-120.73,-428.34
312,1715374814570,-2.97,0.08,-0.28,-78.49,-120.73,-428.34
313,1715374814580,-2.97,0.08,-0.28,-78.49,-120.73,-428.34
314,1715374814590,-4.3325000000000005,0.36750000000000005,-0.19875,-78.64625,-69.805,-225.13375
315,1715374814600,-5.15,0.54,-0.15,-78.74,-39.25,-103.21
316,1715374814610,-5.15,0.54,-0.15,-78.74,-39.25,-103.21
317,1715374814620,-5.15,0.54,-0.15,-78.74,-39.25,-103.21
318,1715374814630,-5.307142857142857,0.5971428571428571,0.12142857142857144,1.8742857142857139,-102.46428571428571,49.16142857142857
319,1715374814640,-5.37,0.62,0.23,34.12,-127.75,110.11
320,1715374814650,-5.37,0.62,0.23,34.12,-127.75,110.11
321,1715374814660,-5.37,0.62,0.23,34.12,-127.75,110.11
322,1715374814670,-4.5128571428571425,0.2342857142857143,-0.33571428571428574,100.35142857142857,-223.63857142857142,269.0928571428571
323,1715374814680,-4.37,0.17,-0.43,111.39,-239.62,295.59
324,1715374814690,-4.37,0.17,-0.43,111.39,-239.62,295.59
325,1715374814700,-4.37,0.17,-0.43,111.39,-239.62000000000003,295.59
326,1715374814710,-2.5999999999999996,-1.525,-1.0975000000000001,106.3575,-302.5675,424.0875
327,1715374814720,-2.01,-2.09,-1.32,104.67999999999999,-323.55,466.92
328,1715374814730,-2.01,-2.09,-1.32,104.68,-323.55,466.92
329,1715374814740,-2.01,-2.09,-1.32,104.68,-323.55,466.92
330,1715374814750,0.71,-3.8,-1.9599999999999997,133.61,-271.55,527.89
331,1715374814760,0.71,-3.8,-1.96,133.61,-271.55,527.89
332,1715374814770,0.71,-3.8,-1.96,133.61,-271.55,527.89
333,1715374814780,0.7742857142857142,-3.7728571428571427,-1.9414285714285715,128.6042857142857,-252.07,531.9885714285714
334,1715374814790,1.16,-3.61,-1.83,98.57,-135.19,556.58
335,1715374814800,1.16,-3.61,-1.83,98.57,-135.19,556.58
336,1715374814810,1.16,-3.61,-1.83,98.57,-135.19,556.58
337,1715374814820,1.2314285714285713,-3.672857142857143,-1.6071428571428572,80.29571428571428,-116.37571428571428,545.96
338,1715374814830,1.41,-3.83,-1.05,34.61,-69.34,519.41
339,1715374814840,1.41,-3.83,-1.05,34.61,-69.34,519.41
340,1715374814850,1.41,-3.8300000000000005,-1.05,34.61,-69.34,519.41
341,1715374814860,0.9949999999999999,-3.59,-0.825,25.3,-36.53,508.515
342,1715374814870,0.58,-3.35,-0.6,15.99,-3.72,497.62
343,1715374814880,0.58,-3.35,-0.6,15.99,-3.72,497.62
344,1715374814890,0.58,-3.35,-0.6,15.99,-3.72,497.62
345,1715374814900,0.3175,-3.2062500000000003,-0.44999999999999996,2.1187500000000004,-23.085,485.785
346,1715374814910,0.16,-3.12,-0.36,-21.0,-55.36,466.06
347,1715374814920,0.16,-3.12,-0.36,-21.0,-55.36,466.06
348,1715374814930,0.16,-3.12,-0.36,-21.0,-55.36,466.06
349,1715374814940,0.26,-2.975,-0.215,-15.11,-66.225,459.71500000000003
350,1715374814950,0.36,-2.8300000000000005,-0.07,-9.22,-77.09,453.37
351,1715374814960,0.36,-2.83,-0.07,-9.22,-77.09,453.37
352,1715374814970,0.36,-2.83,-0.07,-9.22,-77.09,453.37
353,1715374814980,0.6225,-2.725,-0.105,19.19875,-134.7275,424.41375
354,1715374814990,0.66,-2.71,-0.11,36.25,-169.31,407.04
355,1715374815000,0.66,-2.71,-0.11,36.25,-169.31,407.04
356,1715374815010,0.66,-2.71,-0.11,36.25,-169.31,407.04
357,1715374815020,2.6485714285714286,-2.4185714285714286,-0.7528571428571428,56.91571428571428,-141.63285714285715,342.3257142857143
358,1715374815030,2.98,-2.37,-0.86,60.36,-137.02,331.54
359,1715374815040,2.98,-2.37,-0.86,60.36,-137.02,331.54
360,1715374815050,2.98,-2.37,-0.86,60.36,-137.02,331.54
361,1715374815060,3.9050000000000002,-2.7075,-0.76,52.54125,-29.676250000000007,312.77125
362,1715374815070,4.46,-2.91,-0.7,47.85,34.73,301.51
363,1715374815080,4.46,-2.91,-0.7,47.85,34.73,301.50999999999993
364,1715374815090,4.46,-2.91,-0.7,47.85,34.73,301.51
365,1715374815100,5.94,-4.49,-1.27,73.0275,84.44,164.965
366,1715374815110,5.94,-4.49,-1.27,81.42,101.01,119.45
367,1715374815120,5.94,-4.49,-1.27,81.42,101.01,119.45
368,1715374815130,5.94,-4.49,-1.27,81.42,101.01,119.45
369,1715374815140,2.0,-5.29,-0.66,107.79,209.47,-274.9
370,1715374815150,2.0,-5.29,-0.66,107.79,209.47,-274.9
371,1715374815160,2.0,-5.29,-0.66,107.79,209.47,-274.9
372,1715374815170,1.6175,-5.13,-0.5700000000000001,128.785,207.715,-258.055
373,1715374815180,0.47,-4.65,-0.3,191.77,202.45,-207.52
374,1715374815190,0.47000000000000003,-4.65,-0.3,191.77,202.45,-207.52
375,1715374815200,0.47,-4.65,-0.3,191.77,202.45,-207.52
376,1715374815210,0.46714285714285714,-4.4557142857142855,-0.19999999999999998,207.93571428571428,174.96714285714285,-230.41714285714286
377,1715374815220,0.46,-3.97,0.05,248.35,106.26,-287.66
378,1715374815230,0.46,-3.97,0.05,248.35,106.26,-287.66
379,1715374815240,0.28,-3.6325000000000003,0.06125,254.43124999999998,101.515,-292.91625
380,1715374815250,-0.02,-3.07,0.08,297.0,68.3,-329.71
381,1715374815260,-0.02,-3.07,0.08,297.0,68.3,-329.71
382,1715374815270,-0.02,-3.07,0.08,297.0,68.3,-329.71
383,1715374815280,-0.22,-2.7214285714285715,0.011428571428571429,306.9028571428571,7.368571428571428,-377.14428571428573
384,1715374815290,-0.37,-2.46,-0.04,314.33,-38.33,-412.72
385,1715374815300,-0.37,-2.46,-0.04,314.33,-38.33,-412.72
386,1715374815310,-0.37,-2.46,-0.04,314.33,-38.33,-412.72
387,1715374815320,-0.5671428571428571,-2.2885714285714287,-0.2885714285714286,299.15857142857146,-76.78142857142858,-478.48
388,1715374815330,-0.6,-2.26,-0.33,296.63,-83.19,-489.44
389,1715374815340,-0.6,-2.26,-0.33,296.63,-83.18999999999998,-489.44
390,1715374815350,-0.6,-2.19875,-0.39999999999999997,253.79875,-74.055,-482.3875
391,1715374815360,-0.6,-2.19,-0.41,247.68,-72.75,-481.38
392,1715374815370,-0.6,-2.19,-0.41,247.68,-72.75,-481.38
393,1715374815380,-0.6,-2.19,-0.41,247.68,-72.75,-481.38
394,1715374815390,-0.5475,-2.135,-0.4225,230.27,-71.255,-478.5125
395,1715374815400,-0.39,-1.97,-0.46,178.04,-66.77,-469.91
396,1715374815410,-0.39,-1.97,-0.46,178.04,-66.77,-469.91
397,1715374815420,-0.33999999999999997,-1.9542857142857142,-0.4385714285714286,164.7,-68.84571428571428,-473.7471428571429
398,1715374815430,-0.04,-1.86,-0.31,84.66,-81.3,-496.77
399,1715374815440,-0.04,-1.86,-0.31,84.66,-81.3,-496.77
400,1715374815450,-0.04,-1.86,-0.31,84.66,-81.3,-496.77
401,1715374815460,-0.04,-1.86,-0.31,84.66,-81.3,-496.77
402,1715374815470,-0.04,-1.86,-0.31,84.66,-81.3,-496.77
403,1715374815480,0.03,-1.9275,-0.265,73.22999999999999,-50.11,-472.7525
404,1715374815490,0.24,-2.13,-0.13,38.94,43.46,-400.7
405,1715374815500,0.11,-1.99,-0.255,62.775,87.04,-359.47
406,1715374815510,-0.02,-1.85,-0.38,86.61,130.62,-318.24000000000007
407,1715374815520,-0.02,-1.85,-0.38,86.61,130.62,-318.24
408,1715374815530,-0.02,-1.85,-0.38,86.61,130.62,-318.24000000000007
409,1715374815540,-0.20500000000000002,-1.59,-0.47,70.8175,102.45,-329.5
410,1715374815550,-0.76,-0.81,-0.74,23.44,17.94,-363.28
411,1715374815560,-0.76,-0.8099999999999999,-0.74,23.44,17.94,-363.28000000000003
412,1715374815570,-0.76,-0.81,-0.74,23.44,17.94,-363.28
413,1715374815580,-2.4924999999999997,-0.02250000000000002,-0.5449999999999999,-46.917500000000004,14.055,-352.0225
414,1715374815590,-3.07,0.24,-0.48,-70.37,12.76,-348.27
415,1715374815600,-3.07,0.24,-0.48,-70.37,12.76,-348.27
416,1715374815610,-3.07,0.24,-0.48,-70.37,12.76,-348.27
417,1715374815620,-5.1175,0.8350000000000001,0.06250000000000001,-54.725,-113.765,-179.0275
418,1715374815630,-5.41,0.92,0.14,-52.49,-131.84,-154.85
419,1715374815640,-5.410000000000001,0.92,0.14,-52.49,-131.84,-154.85
420,1715374815650,-5.445,0.9175,0.14750000000000002,-35.20125,-126.255,-114.84125
421,1715374815660,-5.55,0.91,0.17,85.82,-87.16,165.22
422,1715374815670,-5.55,0.91,0.17,85.82000000000001,-87.16,165.22
423,1715374815680,-5.55,0.91,0.17,85.82000000000001,-87.16,165.22
424,1715374815690,-5.1274999999999995,0.7075,-0.02499999999999998,101.13749999999999,-123.215,208.755
425,1715374815700,-3.86,0.1,-0.61,147.09,-231.38,339.36
426,1715374815710,-3.86,0.1,-0.61,147.09,-231.38,339.36
427,1715374815720,-3.86,0.1,-0.61,147.09,-231.37999999999997,339.36
428,1715374815730,-2.5725,-1.36875,-1.02875,150.98250000000002,-261.06875,394.54125
429,1715374815740,-1.8,-2.25,-1.28,157.47,-310.55,486.51
430,1715374815750,-1.8,-2.25,-1.28,157.47,-310.55,486.50999999999993
431,1715374815760,-1.8,-2.25,-1.28,157.47,-310.55,486.51
432,1715374815770,-0.55,-3.4,-1.68625,145.5325,-270.225,547.20375
433,1715374815780,0.2,-4.09,-1.93,138.37,-246.03,583.62
434,1715374815790,0.2,-4.09,-1.93,138.37,-246.03,583.62
435,1715374815800,0.2,-4.09,-1.93,138.37,-246.03,583.62
436,1715374815810,1.1428571428571428,-4.347142857142857,-1.6471428571428572,103.99857142857142,-176.08714285714288,596.4857142857143
437,1715374815820,1.3,-4.39,-1.6,98.27,-164.43,598.63
438,1715374815830,1.3,-4.39,-1.6,98.27,-164.43,598.63
439,1715374815840,1.3,-4.39,-1.6,98.27,-164.43,598.63
440,1715374815850,1.28,-3.79,-0.97,58.824285714285715,-126.03,502.5785714285715
441,1715374815860,1.28,-3.79,-0.97,52.25,-119.63,486.57
442,1715374815870,1.28,-3.79,-0.97,52.25,-119.63,486.57
443,1715374815880,1.28,-3.79,-0.97,52.25,-119.63,486.57
444,1715374815890,0.87,-3.2,-0.48,26.818571428571428,-154.15571428571428,366.81857142857143
445,1715374815900,0.87,-3.2,-0.48000000000000004,22.58,-159.91,346.86
446,1715374815910,0.87,-3.2,-0.48,22.58,-159.91,346.86
447,1715374815920,0.8233333333333333,-3.026666666666667,-0.3433333333333333,30.98333333333333,-134.215,358.7316666666666
448,1715374815930,0.7299999999999999,-2.68,-0.07,73.0,-5.74,418.09
449,1715374815940,0.73,-2.68,-0.07,73.0,-5.74,418.09
450,1715374815950,0.73,-2.68,-0.07,73.0,-5.74,418.09
451,1715374815960,0.5875,-2.56,-0.07,70.68,-0.17000000000000037,422.66749999999996
452,1715374815970,0.16,-2.2,-0.07,63.71999999999999,16.54,436.4
453,1715374815980,0.16,-2.2,-0.07,63.72,16.54,436.4
454,1715374815990,0.16,-2.2,-0.07,63.72,16.54,436.4
455,1715374816000,0.39428571428571424,-2.245714285714286,-0.06714285714285714,53.065714285714286,-10.35142857142857,427.42
456,1715374816010,0.9799999999999999,-2.36,-0.06,26.43,-77.58,404.96999999999997
457,1715374816020,0.98,-2.36,-0.06,26.43,-77.58,404.97
458,1715374816030,0.98,-2.36,-0.06,26.43,-77.58,404.97
459,1715374816040,1.44875,-2.3474999999999997,-0.34750000000000003,45.655,34.076249999999995,437.01375
460,1715374816050,1.73,-2.34,-0.52,57.19,101.07000000000001,456.24000000000007
461,1715374816060,1.73,-2.34,-0.52,57.19,101.07,456.24
462,1715374816070,1.73,-2.34,-0.52,57.19,101.07,456.24
463,1715374816080,2.85,-2.8428571428571425,-0.6742857142857144,9.20142857142857,100.5842857142857,418.78285714285715
464,1715374816090,3.69,-3.22,-0.79,-26.79,100.22,390.69
465,1715374816100,3.69,-3.22,-0.79,-26.79,100.22,390.69
466,1715374816110,3.69,-3.22,-0.79,-26.79,100.22,390.69
467,1715374816120,4.8225,-3.9475000000000002,-1.105,17.11625,109.75750000000001,269.75874999999996
468,1715374816130,5.2,-4.19,-1.21,43.46,115.48,197.2
469,1715374816140,5.2,-4.19,-1.2099999999999997,43.46,115.48,197.2
470,1715374816150,5.2,-4.19,-1.21,43.46,115.48,197.2
471,1715374816160,3.7125,-4.82875,-0.8425,-16.99375,14.33,-231.16500000000002
472,1715374816170,3.5,-4.92,-0.79,-25.63,-0.12,-292.36
473,1715374816180,3.5,-4.92,-0.79,-25.63,-0.12,-292.36
474,1715374816190,3.5,-4.92,-0.79,-25.63,-0.12,-292.36
475,1715374816200,1.6,-4.97,-0.72,52.19,146.48,-335.69
476,1715374816210,1.6,-4.97,-0.72,52.19,146.48,-335.69
477,1715374816220,1.6,-4.97,-0.72,52.19,146.48,-335.69
478,1715374816230,1.3475000000000001,-4.7425,-0.5875,65.25125,151.7225,-329.7625
479,1715374816240,0.59,-4.06,-0.19,156.68,188.42,-288.27
480,1715374816250,0.59,-4.06,-0.19,156.68,188.42,-288.27
481,1715374816260,0.59,-4.06,-0.19,156.68,188.42,-288.27
482,1715374816270,0.51125,-3.6812499999999995,-0.19,192.0875,144.88625,-325.34999999999997
483,1715374816280,0.38,-3.05,-0.19,251.1,72.33,-387.15
484,1715374816290,0.38,-3.05,-0.19,251.1,72.33,-387.15
485,1715374816300,0.38,-3.05,-0.19,251.1,72.33,-387.15
486,1715374816310,0.18714285714285714,-2.8485714285714283,-0.2885714285714286,257.81428571428575,66.13857142857142,-405.91285714285715
487,1715374816320,-0.07,-2.58,-0.42,274.6,50.66,-452.82
488,1715374816330,-0.07,-2.58,-0.42,274.6,50.66,-452.82
489,1715374816340,-0.07,-2.58,-0.42,274.6,50.66,-452.82
490,1715374816350,-0.21,-2.51,-0.505,263.61,38.055,-476.105
491,1715374816360,-0.35,-2.44,-0.59,252.62,25.45,-499.39
492,1715374816370,-0.35,-2.44,-0.59,252.62000000000003,25.45,-499.39
493,1715374816380,-0.35,-2.44,-0.59,252.62,25.45,-499.39
494,1715374816390,-0.305,-2.395,-0.545,191.555,28.974999999999998,-508.09000000000003
495,1715374816400,-0.29,-2.38,-0.53,171.2,30.15,-510.99000000000007
496,1715374816410,-0.29,-2.38,-0.53,171.2,30.15,-510.99
497,1715374816420,-0.29,-2.38,-0.53,171.2,30.15,-510.99000000000007
498,1715374816430,-0.14125,-2.23125,-0.41625,108.66375000000001,32.285000000000004,-505.32875
499,1715374816440,-0.12,-2.21,-0.4,99.73,32.59,-504.52
500,1715374816450,-0.12,-2.21,-0.4,99.73,32.59,-504.52
501,1715374816460,-0.09874999999999999,-2.1887499999999998,-0.395,99.73,32.59,-504.52
502,1715374816470,0.05,-2.04,-0.36,57.5,45.78,-462.77
503,1715374816480,0.05,-2.04,-0.36,57.5,45.78000000000001,-462.77
504,1715374816490,0.05,-2.04,-0.36,57.5,45.78,-462.77
505,1715374816500,0.10500000000000001,-2.0324999999999998,-0.385,54.5625,53.92,-451.745
506,1715374816510,0.27,-2.01,-0.46,34.0,110.9,-374.57
507,1715374816520,0.27,-2.01,-0.46,34.0,110.9,-374.57
508,1715374816530,0.27,-2.01,-0.46,34.0,110.9,-374.57
509,1715374816540,0.195,-1.91,-0.60375,36.53,138.51999999999998,-340.18
510,1715374816550,0.15,-1.85,-0.6900000000000001,39.06,166.14000000000001,-305.79
511,1715374816560,0.15,-1.85,-0.69,39.06,166.14,-305.79
512,1715374816570,0.15,-1.85,-0.69,39.06,166.14,-305.79
513,1715374816580,-0.5928571428571429,-1.0857142857142859,-0.8757142857142857,25.33142857142857,70.78999999999999,-357.84000000000003
514,1715374816590,-0.89,-0.78,-0.95,19.84,32.65,-378.66
515,1715374816600,-0.89,-0.78,-0.95,19.84,32.65,-378.66
516,1715374816610,-0.89,-0.78,-0.95,19.84,32.65,-378.66
517,1715374816620,-3.1699999999999995,0.12000000000000001,-0.4014285714285714,41.388571428571424,55.72428571428571,-309.4971428571429
518,1715374816630,-3.55,0.27,-0.31,44.98,59.57,-297.97
519,1715374816640,-3.55,0.27,-0.31,44.98,59.57,-297.97
520,1715374816650,-3.55,0.27,-0.31,44.98,59.57,-297.96999999999997
521,1715374816660,-3.55,0.27,-0.31,44.98,59.57,-297.97
522,1715374816670,-5.825,1.0225,-0.65125,75.42125,22.076249999999998,-118.79625
523,1715374816680,-6.15,1.13,-0.7,79.77,16.72,-93.2
524,1715374816690,-6.15,1.13,-0.7,79.77,16.72,-93.2
525,1715374816700,-5.29,0.9,-0.73,66.71,-155.15,199.52
526,1715374816710,-5.29,0.9,-0.73,66.71,-155.15,199.52
527,1715374816720,-5.29,0.9,-0.7299999999999999,66.71,-155.15,199.52
528,1715374816730,-5.29,0.9,-0.73,66.71,-155.15,199.52
529,1715374816740,-5.29,0.9,-0.73,66.71,-155.15,199.52
530,1715374816750,-5.29,0.9,-0.7299999999999999,66.71,-155.15,199.52
531,1715374816760,-4.165,0.04999999999999999,-1.005,75.315,-219.175,317.38
532,1715374816770,-2.12125,-1.71875,-1.52,58.105000000000004,-269.88,521.59875
533,1715374816780,-0.59,-3.25,-1.92,15.08,-247.68,665.53
534,1715374816790,-0.59,-3.25,-1.92,15.08,-247.68,665.53
535,1715374816800,-0.59,-3.25,-1.92,15.08,-247.68,665.53
536,1715374816810,0.3871428571428572,-4.038571428571428,-1.657142857142857,-2.6399999999999997,-193.62285714285716,670.4442857142857
537,1715374816820,1.12,-4.63,-1.46,-15.93,-153.08,674.13
538,1715374816830,1.12,-4.63,-1.46,-15.93,-153.08,674.13
539,1715374816840,1.12,-4.63,-1.4599999999999997,-15.929999999999998,-153.08,674.13
540,1715374816850,1.2025000000000001,-4.54,-0.935,-15.2925,-71.45750000000001,626.985
541,1715374816860,1.23,-4.51,-0.76,-15.08,-44.25,611.27
542,1715374816870,1.23,-4.51,-0.76,-15.08,-44.25,611.2699999999999
543,1715374816880,1.23,-4.51,-0.76,-15.08,-44.25,611.27
544,1715374816890,0.6075,-3.8049999999999997,-0.25,-33.4775,26.1075,571.4
545,1715374816900,0.4,-3.57,-0.08,-39.61,49.56,558.11
546,1715374816910,0.4,-3.57,-0.08,-39.61,49.56,558.11
547,1715374816920,0.4,-3.57,-0.08,-39.61,49.56,558.11
548,1715374816930,-0.028571428571428574,-3.0485714285714285,-0.04428571428571428,-46.11,104.93142857142857,555.1457142857143
549,1715374816940,-0.2,-2.84,-0.03,-48.71,127.08,553.96
550,1715374816950,-0.2,-2.84,-0.03,-48.71,127.08,553.96
551,1715374816960,-0.2,-2.84,-0.03,-48.71,127.08,553.96
552,1715374816970,-0.62,-2.7,-0.01,-134.61285714285717,62.99142857142857,506.5085714285715
553,1715374816980,-0.62,-2.7,-0.01,-148.93,52.31,498.6
554,1715374816990,-0.62,-2.7,-0.01,-148.93,52.31,498.6
555,1715374817000,-0.62,-2.7,-0.01,-148.93,52.31,498.6
556,1715374817010,-0.04,-2.96,0.03,-202.15,15.01,514.4
557,1715374817020,-0.04,-2.96,0.03,-202.15,15.01,514.4
558,1715374817030,-0.04,-2.96,0.03,-202.15,15.01,514.4
559,1715374817040,0.2075,-2.97875,0.11125,-196.32875,9.73125,496.54749999999996
560,1715374817050,1.94,-3.11,0.68,-155.58,-27.22,371.58
561,1715374817060,1.94,-3.11,0.68,-155.58,-27.22,371.58
562,1715374817070,1.94,-3.11,0.68,-155.58,-27.22,371.58
563,1715374817080,2.0825,-3.26,0.7925,-155.00625000000002,27.185000000000002,348.6225
564,1715374817090,2.32,-3.5100000000000002,0.9799999999999999,-154.05,117.86,310.36
565,1715374817100,2.32,-3.51,0.98,-154.05,117.86,310.36
566,1715374817110,2.32,-3.51,0.98,-154.05,117.86,310.36
567,1715374817120,4.845,-4.4350000000000005,0.395,-75.52125000000001,120.95,232.9075
568,1715374817130,7.37,-5.36,-0.19,55.36,126.1,103.82000000000001
569,1715374817140,7.37,-5.36,-0.19,55.36,126.1,103.82
570,1715374817150,7.37,-5.36,-0.19,55.36,126.1,103.82
571,1715374817160,3.7414285714285715,-6.717142857142856,0.22428571428571428,86.88571428571429,148.31714285714287,-217.39714285714285
572,1715374817170,2.29,-7.26,0.39,110.53,164.98,-458.31
573,1715374817180,2.29,-7.26,0.39,110.53,164.98,-458.31
574,1715374817190,2.29,-7.26,0.39,110.53,164.98,-458.31
575,1715374817200,0.12,-5.51875,0.1625,235.935,255.39375,-202.39000000000001
576,1715374817210,-0.19,-5.27,0.13,253.85,268.31,-165.83
577,1715374817220,-0.19,-5.2700000000000005,0.13,253.85,268.31,-165.83
578,1715374817230,-0.19,-5.27,0.13,253.85,268.31,-165.83
579,1715374817240,0.06,-4.39,-0.07,364.32,92.77,-211.67
580,1715374817250,0.06,-4.39,-0.07,364.32,92.77,-211.67
581,1715374817260,0.06,-4.39,-0.07,364.32,92.77,-211.67
582,1715374817270,-0.0075,-4.0649999999999995,-0.19,378.555,76.2,-218.8425
583,1715374817280,-0.21,-3.09,-0.55,421.25999999999993,26.49,-240.35999999999999
584,1715374817290,-0.21,-3.09,-0.55,421.26,26.49,-240.36
585,1715374817300,-0.21,-3.09,-0.55,421.26,26.49,-240.36
586,1715374817310,-0.32142857142857145,-2.7985714285714285,-0.6228571428571429,421.25999999999993,26.49,-240.35999999999999
587,1715374817320,-0.47,-2.41,-0.72,426.1775,-69.90875000000001,-354.69624999999996
588,1715374817330,-0.47,-2.41,-0.72,426.88,-83.68,-371.03
589,1715374817340,-0.47000000000000003,-2.41,-0.72,426.88,-83.67999999999999,-371.03000000000003
590,1715374817350,-0.575,-2.39,-0.75,420.83500000000004,-60.730000000000004,-372.19
591,1715374817360,-0.68,-2.37,-0.78,414.79,-37.78,-373.35
592,1715374817370,-0.68,-2.37,-0.78,414.79,-37.78000000000001,-373.35
593,1715374817380,-0.68,-2.37,-0.78,414.79,-37.78,-373.35
594,1715374817390,-0.7157142857142856,-2.12,-0.7942857142857144,384.44714285714286,-19.294285714285714,-326.17857142857144
595,1715374817400,-0.73,-2.02,-0.8,372.31,-11.9,-307.31
596,1715374817410,-0.73,-2.02,-0.8,372.31,-11.9,-307.31
597,1715374817420,-0.7299999999999999,-2.02,-0.8,372.31,-11.9,-307.31
598,1715374817430,-0.45875,-1.95875,-0.5375,317.5225,-46.504999999999995,-311.70500000000004
599,1715374817440,-0.42,-1.95,-0.5,299.26,-58.04,-313.17
600,1715374817450,-0.42,-1.95,-0.5,299.25999999999993,-58.04,-313.17
601,1715374817460,-0.42,-1.95,-0.5,299.26,-58.04,-313.17
602,1715374817470,-0.05,-2.09,-0.37,253.8925,-26.134999999999998,-290.01
603,1715374817480,-0.05,-2.09,-0.37,238.77,-15.5,-282.29
604,1715374817490,-0.05,-2.09,-0.37,238.77,-15.5,-282.29
605,1715374817500,0.0,-2.18,-0.29,219.38875,6.43125,-278.97125
606,1715374817510,0.0,-2.18,-0.29,207.76,19.59,-276.98
607,1715374817520,0.0,-2.18,-0.29,207.76,19.59,-276.98
608,1715374817530,-0.0225,-2.06,-0.36,207.76,19.59,-276.98
609,1715374817540,-0.09,-1.7,-0.57,230.41,38.09,-277.77
610,1715374817550,-0.09,-1.7,-0.57,230.41,38.089999999999996,-277.77
611,1715374817560,-0.09,-1.7,-0.57,230.41,38.09,-277.77
612,1715374817570,-0.2425,-1.4475,-0.72,212.9075,39.9975,-288.34499999999997
613,1715374817580,-0.7,-0.69,-1.17,160.4,45.72,-320.07
614,1715374817590,-0.7,-0.6900000000000001,-1.17,160.4,45.71999999999999,-320.07
615,1715374817600,-0.7,-0.69,-1.17,160.4,45.72,-320.07
616,1715374817610,-1.51375,0.22125000000000003,-1.58625,131.83625,-6.284999999999998,-377.88375
617,1715374817620,-2.87,1.74,-2.28,84.23,-92.96,-474.24
618,1715374817630,-2.87,1.74,-2.28,84.23,-92.96,-474.24000000000007
619,1715374817640,-2.87,1.74,-2.28,84.23,-92.96,-474.24
620,1715374817650,-3.895,1.6837499999999999,-2.205,56.58,-48.709999999999994,-323.15
621,1715374817660,-4.51,1.65,-2.16,28.93,-4.46,-172.06
622,1715374817670,-4.51,1.65,-2.16,28.93,-4.46,-172.06
623,1715374817680,-4.51,1.65,-2.16,28.93,-4.46,-172.06
624,1715374817690,-4.585,1.8075,-2.3175,42.985,-64.655,42.95
625,1715374817700,-4.61,1.86,-2.37,47.67,-84.72,114.62
626,1715374817710,-4.61,1.86,-2.37,47.67,-84.72,114.62
627,1715374817720,-4.61,1.86,-2.37,47.67,-84.72,114.62
628,1715374817730,-2.86,0.44,-2.28,-53.1,-212.52,302.92
629,1715374817740,-2.86,0.44,-2.28,-53.1,-212.52,302.92
630,1715374817750,-2.86,0.44,-2.28,-53.1,-212.52,302.92
631,1715374817760,-2.86,0.44,-2.28,-53.1,-212.52,302.92
632,1715374817770,-1.13,-1.81,-1.67,-151.49,-221.07,510.68
633,1715374817780,-1.13,-1.81,-1.67,-151.49,-221.07,510.68
634,1715374817790,-1.13,-1.81,-1.67,-151.49,-221.07,510.68
635,1715374817800,-0.695,-2.3925,-1.505,-159.905,-215.23375,522.1475
636,1715374817810,0.61,-4.14,-1.01,-218.81,-174.37999999999997,602.42
637,1715374817820,0.61,-4.14,-1.01,-218.81,-174.38,602.42
638,1715374817830,0.61,-4.14,-1.01,-218.81,-174.38,602.42
639,1715374817840,0.855,-4.22,-0.6799999999999999,-203.04125,-168.01624999999999,566.2325
640,1715374817850,1.1,-4.3,-0.35,-176.76,-157.41,505.92
641,1715374817860,1.1,-4.3,-0.35,-176.76,-157.41,505.92
642,1715374817870,1.1,-4.3,-0.35,-176.76,-157.41,505.92
643,1715374817880,1.0185714285714287,-4.102857142857142,-0.21285714285714286,-156.61714285714285,-160.18285714285713,471.68142857142857
644,1715374817890,0.91,-3.84,-0.03,-129.76,-163.88,426.03
645,1715374817900,0.91,-3.84,-0.03,-129.76,-163.87999999999997,426.03000000000003
646,1715374817910,0.91,-3.84,-0.03,-129.76,-163.88,426.03
647,1715374817920,0.91,-3.84,-0.03,-129.76,-163.87999999999997,426.03000000000003
648,1715374817930,0.91,-3.84,-0.03,-129.76,-163.88,426.03
649,1715374817940,0.8575,-3.61,0.0175,-117.87249999999999,-130.6925,433.5675
650,1715374817950,0.7,-2.9199999999999995,0.16,-82.21,-31.13,456.18
651,1715374817960,0.2885714285714286,-2.474285714285714,0.16,-115.69857142857143,4.972857142857143,419.5028571428571
652,1715374817970,0.22,-2.4,0.16,-121.28,10.99,413.39
653,1715374817980,0.22,-2.4,0.16,-121.28,10.99,413.39
654,1715374817990,0.22,-2.4,0.16,-121.28,10.99,413.39
655,1715374818000,0.09,-2.32,0.17,-121.28,10.99,413.39
656,1715374818010,0.09,-2.32,0.17,-144.54874999999998,16.05875,411.715
657,1715374818020,0.09,-2.32,0.17,-158.51,19.1,410.71
658,1715374818030,0.09,-2.32,0.17,-158.51,19.1,410.71
659,1715374818040,0.09,-2.32,0.17,-158.51,19.1,410.71
660,1715374818050,0.02,-2.81,0.57,-188.84,73.0,440.19
661,1715374818060,0.02,-2.81,0.57,-188.84,73.0,440.19
662,1715374818070,0.8150000000000001,-2.6675,0.5549999999999999,-162.03875,28.50625,406.49625
663,1715374818080,2.14,-2.43,0.53,-117.37,-45.65,350.34
664,1715374818090,2.14,-2.43,0.53,-117.37,-45.65,350.34
665,1715374818100,2.14,-2.43,0.53,-117.37,-45.65,350.34
666,1715374818110,2.8200000000000003,-2.9050000000000002,0.655,-128.38,-64.87625,304.7025
667,1715374818120,3.5,-3.38,0.78,-146.73,-96.92,228.64
668,1715374818130,3.5,-3.38,0.78,-146.73,-96.92,228.64
669,1715374818140,3.5,-3.38,0.78,-146.73,-96.92,228.64000000000001
670,1715374818150,6.1025,-3.83,-0.885,-77.21,-97.715,56.519999999999996
671,1715374818160,6.97,-3.98,-1.44,-7.69,-98.51,-115.6
672,1715374818170,6.97,-3.98,-1.44,-7.69,-98.51,-115.6
673,1715374818180,6.97,-3.98,-1.44,-7.69,-98.51,-115.6
674,1715374818190,4.4275,-4.9625,0.04500000000000004,20.735,152.485,-220.2025
675,1715374818200,3.58,-5.29,0.54,30.21,236.15,-255.07
676,1715374818210,3.5800000000000005,-5.29,0.54,30.21,236.15,-255.07
677,1715374818220,3.58,-5.29,0.54,30.21,236.15,-255.07
678,1715374818230,1.21,-4.2,0.04,157.17,287.41,-208.37
679,1715374818240,1.2099999999999997,-4.2,0.04,157.17,287.41,-208.37000000000003
680,1715374818250,1.21,-4.2,0.04,157.17,287.41,-208.37
681,1715374818260,1.1657142857142857,-4.142857142857143,0.06857142857142857,163.01999999999998,262.37714285714287,-222.6614285714286
682,1715374818270,0.9,-3.8,0.24,198.12,112.18,-308.41
683,1715374818280,0.9,-3.8,0.24,198.12,112.18,-308.41
684,1715374818290,0.9,-3.8,0.24,198.12000000000003,112.17999999999999,-308.41
685,1715374818300,0.8150000000000001,-3.5925,0.1825,205.825,90.75750000000001,-321.35
686,1715374818310,0.56,-2.97,0.01,228.94,26.49,-360.17
687,1715374818320,0.56,-2.97,0.01,228.94,26.49,-360.17
688,1715374818330,0.56,-2.97,0.01,228.94,26.49,-360.17
689,1715374818340,0.385,-2.79,0.01,236.54125,11.61375,-385.68875
690,1715374818350,0.21,-2.61,0.01,249.21,-13.179999999999998,-428.21999999999997
691,1715374818360,0.21,-2.61,0.01,249.21,-13.18,-428.22
692,1715374818370,0.21,-2.61,0.01,249.21,-13.18,-428.22
693,1715374818380,-0.16142857142857142,-2.345714285714286,-0.20428571428571426,290.06,10.662857142857144,-452.59142857142854
694,1715374818390,-0.31,-2.24,-0.29,306.4,20.2,-462.34
695,1715374818400,-0.31,-2.24,-0.29,306.4,20.2,-462.34
696,1715374818410,-0.31,-2.24,-0.29,306.4,20.2,-462.34
697,1715374818420,-0.5242857142857144,-1.8542857142857143,-0.3157142857142857,274.42857142857144,30.87142857142857,-423.4171428571429
698,1715374818430,-0.56,-1.79,-0.32,269.1,32.65,-416.93
699,1715374818440,-0.56,-1.79,-0.32,269.1,32.65,-416.93
700,1715374818450,-0.56,-1.7900000000000003,-0.32,269.1,32.65,-416.93
701,1715374818460,-0.42,-1.73,-0.11,210.9675,24.872500000000002,-376.96999999999997
702,1715374818470,-0.42,-1.73,-0.11,191.59,22.28,-363.65
703,1715374818480,-0.42,-1.73,-0.11,191.59,22.28,-363.65
704,1715374818490,-0.42,-1.73,-0.11,191.59,22.28,-363.65
705,1715374818500,0.01,-1.84,-0.11,158.87,-23.13,-348.57
706,1715374818510,0.01,-1.84,-0.11,158.87,-23.13,-348.57
707,1715374818520,0.01,-1.84,-0.11,158.87000000000003,-23.13,-348.57
708,1715374818530,0.155,-1.8825,-0.1325,153.5225,-19.22375,-344.28999999999996
709,1715374818540,0.59,-2.01,-0.2,116.09,8.12,-314.33
710,1715374818550,0.59,-2.01,-0.2,116.09,8.12,-314.33
711,1715374818560,0.59,-2.01,-0.2,116.09,8.12,-314.33
712,1715374818570,0.2942857142857143,-1.6842857142857142,-0.32,117.21428571428571,3.689999999999999,-317.78285714285715
713,1715374818580,-0.1,-1.25,-0.48,123.96,-22.89,-338.5
714,1715374818590,-0.1,-1.25,-0.48,123.96,-22.89,-338.5
715,1715374818600,-0.1,-1.25,-0.48,123.96,-22.890000000000004,-338.5
716,1715374818610,-0.8699999999999999,-0.44,-0.83,73.485,-61.34,-368.5
717,1715374818620,-1.64,0.37,-1.18,23.01,-99.79,-398.5
718,1715374818630,-1.64,0.37,-1.18,23.01,-99.79,-398.5
719,1715374818640,-1.64,0.37,-1.18,23.01,-99.79,-398.5
720,1715374818650,-4.1257142857142854,0.9957142857142858,-0.7171428571428571,-92.08714285714287,-135.47285714285712,-351.4685714285714
721,1715374818660,-4.54,1.1,-0.64,-111.27,-141.42,-343.63
722,1715374818670,-4.54,1.1,-0.64,-111.27,-141.42,-343.63
723,1715374818680,-4.54,1.1,-0.64,-111.27,-141.42,-343.63
724,1715374818690,-5.37,1.41,-0.56,-45.574999999999996,5.9300000000000015,22.784999999999997
725,1715374818700,-5.37,1.41,-0.56,-36.19,26.98,75.13
726,1715374818710,-5.37,1.41,-0.56,-36.19,26.98,75.13
727,1715374818720,-5.19,1.2874999999999999,-0.54625,-40.555,6.395000000000003,91.21375
728,1715374818730,-3.93,0.43,-0.45,-71.11,-137.7,203.8
729,1715374818740,-3.93,0.43,-0.45,-71.11,-137.7,203.8
730,1715374818750,-3.93,0.43,-0.45,-71.11,-137.7,203.8
731,1715374818760,-3.4475000000000002,0.085,-0.515,-71.11,-137.7,203.8
732,1715374818770,-2.0,-0.95,-0.71,25.76,-242.8,346.37
733,1715374818780,-2.0,-0.95,-0.71,25.76,-242.8,346.37
734,1715374818790,-2.0,-0.95,-0.71,25.76,-242.8,346.37
735,1715374818800,-1.3625,-1.4787499999999998,-0.93125,25.56125,-238.44375000000002,368.93125
736,1715374818810,-0.3,-2.36,-1.3,24.169999999999998,-207.95,526.86
737,1715374818820,-0.3,-2.36,-1.3,24.17,-207.95,526.86
738,1715374818830,-0.3,-2.36,-1.3,24.17,-207.95,526.86
739,1715374818840,-0.12285714285714286,-2.4528571428571424,-1.3142857142857143,21.58857142857143,-207.35714285714286,530.9657142857143
740,1715374818850,0.9400000000000001,-3.0100000000000002,-1.4,6.1,-203.8,555.6
741,1715374818860,0.94,-3.01,-1.4,6.1,-203.8,555.6
742,1715374818870,0.94,-3.01,-1.4,6.1,-203.8,555.6
743,1715374818880,0.7614285714285715,-2.8814285714285717,-1.3,-25.371428571428574,-212.25714285714284,484.0142857142857
744,1715374818890,0.69,-2.83,-1.26,-37.96,-215.64,455.38
745,1715374818900,0.6900000000000001,-2.8300000000000005,-1.26,-37.96,-215.64000000000001,455.38
746,1715374818910,0.69,-2.83,-1.26,-37.96,-215.64,455.38
747,1715374818920,0.6,-2.9125,-1.11,-57.325,-231.0675,427.045
748,1715374818930,0.57,-2.94,-1.06,-63.78,-236.21,417.6
749,1715374818940,0.57,-2.94,-1.06,-63.78000000000001,-236.21,417.6
750,1715374818950,0.57,-2.94,-1.06,-63.78,-236.21,417.6
751,1715374818960,0.77125,-2.8874999999999997,-0.64,-40.575,-129.1325,435.6375
752,1715374818970,0.8,-2.88,-0.58,-32.84,-93.44,441.65
753,1715374818980,0.8,-2.88,-0.58,-32.84,-93.43999999999998,441.65
754,1715374818990,0.77875,-2.82375,-0.54875,-32.84,-93.44,441.65
755,1715374819000,0.63,-2.43,-0.33,2.361249999999999,-85.16250000000001,390.38375
756,1715374819010,0.63,-2.43,-0.33,7.39,-83.98,383.06
757,1715374819020,0.63,-2.43,-0.33,7.39,-83.98,383.06
758,1715374819030,0.5700000000000001,-2.3600000000000003,-0.28500000000000003,7.39,-83.98,383.06
759,1715374819040,0.39,-2.15,-0.15,-13.85,-61.34,342.53
760,1715374819050,0.39,-2.15,-0.15,-13.85,-61.339999999999996,342.53000000000003
761,1715374819060,0.39,-2.15,-0.15,-13.85,-61.34,342.53
762,1715374819070,0.405,-2.1275,-0.08249999999999999,0.5225000000000009,-46.7975,351.24249999999995
763,1715374819080,0.45,-2.06,0.12,43.64,-3.17,377.38
764,1715374819090,0.45,-2.06,0.12,43.64,-3.1699999999999995,377.38
765,1715374819100,0.45,-2.06,0.12,43.64,-3.17,377.38
766,1715374819110,0.5650000000000001,-2.2075,0.175,52.4975,26.59125,403.09875
767,1715374819120,1.37,-3.24,0.56,114.5,234.92,583.13
768,1715374819130,1.3699999999999999,-3.2399999999999998,0.56,114.5,234.92,583.13
769,1715374819140,1.37,-3.24,0.56,114.5,234.92,583.13
770,1715374819150,1.4675,-3.33,0.27125000000000005,48.00875,365.315,732.36125
771,1715374819160,1.6300000000000001,-3.48,-0.21,-62.81,582.64,981.08
772,1715374819170,1.63,-3.48,-0.21,-62.81,582.64,981.08
773,1715374819180,1.63,-3.48,-0.21,-62.81,582.64,981.08
774,1715374819190,4.81,-8.0,2.57,-281.37,-296.87,-229.06
775,1715374819200,4.81,-8.0,2.57,-281.37,-296.87,-229.06
776,1715374819210,4.81,-8.0,2.57,-281.37,-296.87,-229.06
777,1715374819220,4.81,-8.0,2.57,-281.37,-296.87,-229.06
778,1715374819230,4.074999999999999,-7.4425,1.91,-105.985,-187.6175,-206.4475
779,1715374819240,1.87,-5.77,-0.07,420.17,140.14,-138.61
780,1715374819250,1.8699999999999999,-5.7700000000000005,-0.07,420.17,140.14,-138.61
781,1715374819260,1.4975,-5.3575,-0.010000000000000002,386.615,106.0975,-179.82500000000002
782,1715374819270,0.38,-4.12,0.17,285.95,3.97,-303.46999999999997
783,1715374819280,0.38,-4.12,0.17,285.95,3.97,-303.47
784,1715374819290,0.38,-4.12,0.17,285.95,3.97,-303.47
785,1715374819300,0.38,-4.12,0.17,285.95,3.97,-303.47
786,1715374819310,-0.27,-3.32,0.22,319.4,38.02,-239.87000000000003
787,1715374819320,-0.27,-3.32,0.22,319.4,38.02,-239.87
788,1715374819330,-0.27,-3.32,0.22,319.4,38.02,-239.87
789,1715374819340,-0.4825,-2.9450000000000003,0.18875,329.85,-28.617499999999996,-284.57624999999996
790,1715374819350,-0.61,-2.72,0.17,336.12,-68.6,-311.4
791,1715374819360,-0.61,-2.72,0.17,336.12,-68.6,-311.4
792,1715374819370,-0.61,-2.72,0.17,336.12,-68.6,-311.4
793,1715374819380,-0.7225,-2.62,-0.029999999999999992,360.15125,-89.9625,-342.10625
794,1715374819390,-0.79,-2.56,-0.15,374.57,-102.78,-360.53000000000003
795,1715374819400,-0.79,-2.56,-0.15,374.57,-102.78,-360.53
796,1715374819410,-0.79,-2.56,-0.15,374.57,-102.78,-360.53
797,1715374819420,-0.9957142857142858,-2.345714285714286,-0.41571428571428576,368.9485714285714,-93.92999999999999,-353.6871428571429
798,1715374819430,-1.03,-2.31,-0.46,366.7,-90.39,-350.95
799,1715374819440,-1.03,-2.31,-0.46,366.7,-90.39,-350.95
800,1715374819450,-1.03,-2.31,-0.46,366.7,-90.39,-350.95
801,1715374819460,-0.91,-2.19,-0.45,267.88,-186.1,-447.63
802,1715374819470,-0.91,-2.19,-0.45,267.88,-186.1,-447.63
803,1715374819480,-0.91,-2.19,-0.45,267.88,-186.1,-447.63
804,1715374819490,-0.84875,-2.21875,-0.41125,255.4975,-186.63375,-454.085
805,1715374819500,-0.42,-2.42,-0.14,168.82,-190.37,-499.27
806,1715374819510,-0.42,-2.4199999999999995,-0.14,168.82,-190.37000000000003,-499.27
807,1715374819520,-0.42,-2.42,-0.14,168.82,-190.37,-499.27
808,1715374819530,-0.3575,-2.4575,-0.135,170.47,-155.4275,-476.54999999999995
809,1715374819540,-0.17,-2.57,-0.12,175.42,-50.6,-408.39
810,1715374819550,-0.17,-2.57,-0.12,175.42,-50.6,-408.39
811,1715374819560,-0.17,-2.57,-0.12,175.42,-50.6,-408.39
812,1715374819570,-0.17375000000000002,-2.435,-0.19125,179.1475,-30.3875,-407.29125
813,1715374819580,-0.18,-2.21,-0.31,185.35999999999999,3.3,-405.46
814,1715374819590,-0.18,-2.21,-0.31,185.36,3.3,-405.46
815,1715374819600,-0.18,-2.21,-0.31,185.36,3.3,-405.46
816,1715374819610,-0.41571428571428576,-1.4957142857142856,-0.5599999999999999,108.63142857142859,-68.85714285714286,-455.0242857142857
817,1715374819620,-0.51,-1.21,-0.66,77.94,-97.72,-474.85
818,1715374819630,-0.51,-1.21,-0.66,77.94,-97.72,-474.85
819,1715374819640,-0.51,-1.21,-0.66,77.94,-97.72,-474.85
820,1715374819650,-2.5071428571428567,-0.10428571428571429,-0.42,11.288571428571426,-146.82285714285715,-522.1471428571429
821,1715374819660,-2.84,0.08,-0.38,-38.7,-183.65,-557.62
822,1715374819670,-2.84,0.08,-0.38,-38.7,-183.65,-557.62
823,1715374819680,-2.84,0.08,-0.38,-38.7,-183.65,-557.62
824,1715374819690,-5.87625,1.26125,-0.1,-28.305,-178.115,-341.2825
825,1715374819700,-6.31,1.43,-0.06,-24.84,-176.27,-269.17
826,1715374819710,-6.31,1.43,-0.06,-24.84,-176.27,-269.17
827,1715374819720,-6.295714285714285,1.4014285714285712,0.048571428571428564,-24.84,-176.27,-269.17
828,1715374819730,-6.21,1.23,0.7,-1.4512500000000002,-240.4075,0.2162500000000005
829,1715374819740,-6.21,1.23,0.7,1.89,-249.57,38.7
830,1715374819750,-6.21,1.23,0.7,1.89,-249.57,38.7
831,1715374819760,-5.484285714285714,0.8099999999999999,0.5399999999999999,1.89,-249.57,38.7
832,1715374819770,-3.67,-0.24,0.14,120.18,-345.52,256.29
833,1715374819780,-3.67,-0.24,0.14,120.18,-345.52,256.29
834,1715374819790,-3.6699999999999995,-0.24,0.14,120.17999999999999,-345.52,256.29
835,1715374819800,-3.67,-0.24,0.14,120.18,-345.52,256.29
836,1715374819810,-1.59,-1.59,-0.83,207.76,-351.14,356.02
837,1715374819820,-1.59,-1.59,-0.83,207.76,-351.14,356.02
838,1715374819830,-1.59,-1.59,-0.83,207.76,-351.14,356.02
839,1715374819840,-0.64,-2.4400000000000004,-1.3299999999999998,215.54125,-343.77750000000003,363.5325
840,1715374819850,-0.07,-2.95,-1.6300000000000001,220.21,-339.36,368.04
841,1715374819860,-0.07,-2.95,-1.63,220.21,-339.36,368.04
842,1715374819870,-0.07,-2.95,-1.63,220.21,-339.36,368.04
843,1715374819880,0.7525,-3.4050000000000002,-1.7175,250.235,-280.6475,379.64000000000004
844,1715374819890,0.87,-3.47,-1.73,268.25,-245.42,386.6
845,1715374819900,0.87,-3.47,-1.73,268.25,-245.42,386.6
846,1715374819910,0.87875,-3.4337500000000003,-1.695,268.135,-234.7625,383.21250000000003
847,1715374819920,0.9400000000000001,-3.18,-1.45,267.33,-160.16,359.5
848,1715374819930,0.94,-3.18,-1.45,267.33,-160.16,359.5
849,1715374819940,0.94,-3.18,-1.45,267.33,-160.16,359.5
850,1715374819950,0.9199999999999999,-3.14875,-1.36125,267.33,-160.16,359.5
851,1715374819960,0.78,-2.93,-0.74,254.33,-80.38,368.35
852,1715374819970,0.78,-2.93,-0.74,254.33,-80.38,368.35
853,1715374819980,0.78,-2.93,-0.74,254.33,-80.38,368.35
854,1715374819990,0.81,-2.82125,-0.5975,256.26125,-58.82749999999999,380.25875
855,1715374820000,0.86,-2.64,-0.36,269.78,92.04,463.62
856,1715374820010,0.86,-2.64,-0.36,269.78,92.04,463.62
857,1715374820020,0.86,-2.64,-0.36,269.78,92.04,463.62
858,1715374820030,0.7428571428571429,-2.5228571428571427,-0.3457142857142857,253.64857142857142,93.22571428571429,460.86571428571426
859,1715374820040,0.45,-2.23,-0.31,213.32,96.19,453.98
860,1715374820050,,,,,,
861,1715374820060,0.45,-2.23,-0.31,213.32,96.19,453.98
862,1715374820070,0.3375,-2.245,-0.2275,186.76999999999998,82.045,448.70000000000005
863,1715374820080,0.15,-2.27,-0.09,107.12,39.61,432.86
864,1715374820090,0.15,-2.27,-0.09,107.12,39.61,432.86
865,1715374820100,0.15,-2.27,-0.09,107.12,39.61,432.86
866,1715374820110,0.45,-2.755714285714286,-0.33285714285714285,117.23428571428572,-16.01857142857143,479.07428571428574
867,1715374820120,0.57,-2.95,-0.43,121.28,-38.27,497.56
868,1715374820130,0.57,-2.95,-0.43,121.28,-38.27,497.56
869,1715374820140,0.57,-2.95,-0.43,121.28,-38.27,497.56
870,1715374820150,3.3612499999999996,-3.50125,-2.48625,146.80374999999998,-70.68875,545.57125
871,1715374820160,3.76,-3.58,-2.78,150.45,-75.32,552.43
872,1715374820170,3.7600000000000002,-3.5800000000000005,-2.78,150.45,-75.32000000000001,552.43
873,1715374820180,3.76,-3.58,-2.78,150.45,-75.32,552.43
874,1715374820190,4.74,-4.43,-2.28,-49.93,58.839999999999996,270.45
875,1715374820200,4.74,-4.43,-2.28,-49.93,58.84,270.45
876,1715374820210,4.74,-4.43,-2.28,-49.93,58.84,270.45
877,1715374820220,4.675714285714286,-4.562857142857142,-2.2528571428571427,-44.20142857142857,56.564285714285724,206.92000000000002
878,1715374820230,4.29,-5.36,-2.09,-9.83,42.91,-174.26
879,1715374820240,4.29,-5.36,-2.09,-9.83,42.91,-174.26
880,1715374820250,4.29,-5.36,-2.09,-9.83,42.91,-174.26
881,1715374820260,2.8,-5.235,-1.5699999999999998,-10.955,108.28,-254.885
882,1715374820270,1.31,-5.11,-1.05,-12.08,173.65,-335.50999999999993
883,1715374820280,1.31,-5.11,-1.05,-12.08,173.65,-335.51
884,1715374820290,1.31,-5.11,-1.05,-12.08,173.65,-335.51
885,1715374820300,0.78,-4.5649999999999995,-0.81,21.6775,181.88875000000002,-333.08375
886,1715374820310,0.25,-4.02,-0.57,77.93999999999998,195.62000000000003,-329.04
887,1715374820320,0.25,-4.02,-0.57,77.94,195.62,-329.04
888,1715374820330,0.25,-4.02,-0.57,77.94,195.62,-329.04
889,1715374820340,0.15571428571428572,-3.505714285714286,-0.16714285714285712,115.78571428571429,160.00857142857143,-359.9428571428571
890,1715374820350,0.14,-3.42,-0.1,144.17,133.3,-383.12
891,1715374820360,0.14,-3.4199999999999995,-0.1,144.17,133.3,-383.12
892,1715374820370,0.14,-3.42,-0.1,144.17,133.3,-383.12
893,1715374820380,-0.21250000000000002,-2.9175,-0.2125,197.1725,115.1725,-420.245
894,1715374820390,-0.33,-2.75,-0.25,214.84,109.13,-432.62
895,1715374820400,-0.33,-2.75,-0.25,214.84,109.13,-432.62
896,1715374820410,-0.33,-2.75,-0.25,214.84,109.13,-432.62
897,1715374820420,-0.65,-2.23,-0.43,202.8025,62.4425,-497.34499999999997
898,1715374820430,-0.65,-2.23,-0.43,198.79,46.88,-518.92
899,1715374820440,-0.65,-2.23,-0.43,198.79,46.88,-518.92
900,1715374820450,-0.65,-2.23,-0.43,198.79,46.88,-518.92
901,1715374820460,-0.8,-2.09,-0.54,115.78,-5.25,-536.07
902,1715374820470,-0.8,-2.09,-0.54,115.78,-5.25,-536.07
903,1715374820480,-0.8,-2.09,-0.54,115.78,-5.25,-536.07
904,1715374820490,-0.8,-2.09,-0.54,115.78,-5.25,-536.07
905,1715374820500,-0.8,-2.09,-0.54,115.78,-5.25,-536.07
906,1715374820510,-0.4625,-2.19625,-0.44625000000000004,42.386250000000004,-17.799999999999997,-523.86375
907,1715374820520,-0.26,-2.26,-0.39,-1.65,-25.33,-516.54
908,1715374820530,-0.26,-2.26,-0.39,-1.65,-25.330000000000002,-516.54
909,1715374820540,0.047499999999999994,-2.59,-0.33,-7.785,39.95,-470.03249999999997
910,1715374820550,0.15,-2.7,-0.31,-9.83,61.71,-454.53
911,1715374820560,0.15,-2.7,-0.31,-9.83,61.71,-454.53000000000003
912,1715374820570,0.11499999999999999,-2.6100000000000003,-0.43999999999999995,8.07,99.0775,-427.46
913,1715374820580,0.08,-2.52,-0.57,61.77,211.18,-346.25
914,1715374820590,0.08,-2.52,-0.57,61.77,211.18,-346.25
915,1715374820600,0.08,-2.52,-0.57,61.77,211.18,-346.25
916,1715374820610,0.08,-2.52,-0.57,61.77,211.18,-346.25
917,1715374820620,0.08,-2.52,-0.57,61.77,211.18,-346.25
918,1715374820630,-0.19142857142857142,-2.07,-0.6128571428571429,121.06285714285715,161.30857142857144,-352.2214285714286
919,1715374820640,-0.3,-1.89,-0.63,144.78,141.36,-354.61
920,1715374820650,-0.8175,-1.005,-1.08,205.5675,296.4,-171.6925
921,1715374820660,-0.99,-0.71,-1.23,225.83,348.08,-110.72
922,1715374820670,-0.99,-0.71,-1.23,225.83,348.08,-110.72
923,1715374820680,-0.99,-0.71,-1.23,225.83,348.08,-110.72
924,1715374820690,-3.44,1.44,-1.5,120.42,23.19,-350.04
925,1715374820700,-3.44,1.44,-1.5,120.42,23.19,-350.04
926,1715374820710,-3.44,1.44,-1.5,120.42,23.19,-350.04
927,1715374820720,-3.87,1.7275,-1.53,108.915,21.267500000000002,-281.97
928,1715374820730,-5.16,2.59,-1.62,74.4,15.5,-77.76
929,1715374820740,-5.16,2.59,-1.62,74.4,15.5,-77.76
930,1715374820750,-5.160000000000001,2.59,-1.6199999999999999,74.4,15.5,-77.76
931,1715374820760,-4.97625,2.5075,-1.6875,69.7475,-13.322500000000002,-13.642500000000002
932,1715374820770,-4.67,2.37,-1.8,55.79,-99.79,178.71
933,1715374820780,-4.67,2.37,-1.8,55.79,-99.79,178.71
934,1715374820790,-4.67,2.37,-1.8,55.79,-99.79,178.71
935,1715374820800,-3.71375,1.395,-1.75,35.371249999999996,-124.34875,251.5875
936,1715374820810,-3.14,0.81,-1.72,1.34,-165.28,373.05
937,1715374820820,-3.14,0.8099999999999999,-1.72,1.34,-165.28,373.05
938,1715374820830,-3.14,0.81,-1.72,1.34,-165.28,373.05
939,1715374820840,-2.1275,-1.0875,-1.4949999999999999,-57.3925,-172.5175,482.72999999999996
940,1715374820850,-1.79,-1.72,-1.42,-76.97,-174.93,519.29
941,1715374820860,-1.7900000000000003,-1.72,-1.42,-76.97,-174.93,519.29
942,1715374820870,-1.7900000000000003,-1.72,-1.42,-76.97,-174.93,519.29
943,1715374820880,-0.60875,-3.6625,-0.93875,-105.89750000000001,-172.59,570.1925
944,1715374820890,-0.44,-3.94,-0.87,-115.54,-171.81,587.16
945,1715374820900,-0.44,-3.94,-0.87,-115.54,-171.81,587.16
946,1715374820910,-0.3575,-4.0225,-0.78625,-115.54,-171.81,587.16
947,1715374820920,0.22,-4.6,-0.2,-101.93,-125.49,563.54
948,1715374820930,0.22,-4.6,-0.2,-101.92999999999999,-125.49,563.54
949,1715374820940,0.22,-4.6,-0.2,-101.93,-125.49,563.54
950,1715374820950,0.20500000000000002,-4.5975,-0.002500000000000016,-101.93,-125.49,563.54
951,1715374820960,0.16,-4.589999999999999,0.59,-51.88,-22.09,527.65
952,1715374820970,0.16,-4.59,0.59,-51.88,-22.09,527.65
953,1715374820980,0.16,-4.59,0.59,-51.88,-22.09,527.65
954,1715374820990,0.10285714285714286,-4.33,0.6985714285714285,-29.48857142857143,-11.995714285714286,509.96714285714285
955,1715374821000,-0.04,-3.68,0.97,26.49,13.24,465.76
956,1715374821010,-0.04,-3.68,0.97,26.49,13.24,465.76
957,1715374821020,-0.04,-3.68,0.97,26.49,13.24,465.76
958,1715374821030,-0.16571428571428573,-3.262857142857143,0.5871428571428571,30.41142857142857,5.525714285714286,465.75999999999993
959,1715374821040,-0.26,-2.95,0.3,35.64,-4.76,465.76
960,1715374821050,-0.26,-2.95,0.3,35.64,-4.76,465.76
961,1715374821060,-0.26,-2.95,0.3,35.64,-4.76,465.75999999999993
962,1715374821070,-0.015,-2.79,0.01999999999999999,17.635,-22.52,473.94
963,1715374821080,0.23,-2.63,-0.26,-0.37,-40.28,482.12
964,1715374821090,0.23,-2.63,-0.26,-0.37,-40.28,482.12
965,1715374821100,0.23,-2.63,-0.26,-0.37,-40.28,482.12
966,1715374821110,1.1985714285714286,-2.587142857142857,-0.5342857142857143,-28.827142857142857,-14.017142857142858,460.51142857142855
967,1715374821120,1.36,-2.58,-0.58,-33.57,-9.64,456.91
968,1715374821130,1.36,-2.58,-0.58,-33.57,-9.64,456.91
969,1715374821140,1.36,-2.5800000000000005,-0.58,-33.57,-9.64,456.91
970,1715374821150,3.6,-2.57,-1.17,-26.57,97.70500000000001,354.47375
971,1715374821160,3.6,-2.57,-1.17,-25.57,113.04,339.84
972,1715374821170,3.6,-2.57,-1.17,-25.57,113.04,339.84
973,1715374821180,3.755,-2.8274999999999997,-1.045,-25.57,113.04,339.84
974,1715374821190,4.22,-3.6,-0.67,-72.57,194.09,229.31
975,1715374821200,4.22,-3.6,-0.67,-72.57,194.09,229.31
976,1715374821210,4.22,-3.6,-0.67,-72.57,194.09,229.31
977,1715374821220,4.1975,-3.77125,-0.70375,-62.78124999999999,185.59125,183.785
978,1715374821230,4.04,-4.97,-0.94,5.74,126.1,-134.89
979,1715374821240,4.04,-4.97,-0.94,5.74,126.1,-134.89
980,1715374821250,4.04,-4.97,-0.94,5.74,126.1,-134.89
981,1715374821260,4.04,-4.97,-0.9400000000000001,5.74,126.1,-134.89
982,1715374821270,1.67,-5.55,-0.42,53.65,188.84,-307.43
983,1715374821280,1.67,-5.55,-0.42,53.65,188.84,-307.43
984,1715374821290,1.67,-5.55,-0.42,53.65,188.84,-307.43
985,1715374821300,1.18,-4.949999999999999,-0.315,103.12,180.695,-294.95000000000005
986,1715374821310,0.69,-4.35,-0.21,152.59,172.55,-282.47
987,1715374821320,0.6900000000000001,-4.35,-0.21,152.59,172.55,-282.47
988,1715374821330,0.69,-4.35,-0.21,152.59,172.55,-282.47
989,1715374821340,0.48,-3.5625,-0.075,174.42249999999999,113.8175,-325.90999999999997
990,1715374821350,0.41,-3.3,-0.03,181.7,94.24,-340.39
991,1715374821360,0.41,-3.3,-0.03,181.7,94.24,-340.39
992,1715374821370,0.41,-3.3,-0.03,181.7,94.24,-340.39
993,1715374821380,0.09285714285714286,-2.682857142857143,0.08142857142857143,225.54285714285714,70.64285714285714,-360.6871428571429
994,1715374821390,0.04,-2.58,0.1,232.85,66.71,-364.07
995,1715374821400,0.04,-2.58,0.1,232.85,66.71,-364.07
996,1715374821410,0.04,-2.5800000000000005,0.1,232.85,66.71,-364.07
997,1715374821420,-0.29,-2.46,-0.01,267.59000000000003,50.3225,-386.645
998,1715374821430,-0.29,-2.46,-0.01,279.17,44.86,-394.17
999,1715374821440,-0.29,-2.46,-0.01,279.17,44.86,-394.17
1000,1715374821450,-0.29,-2.46,-0.01,279.17,44.86,-394.17
