id,timestamp,acc_x,acc_y,acc_z,gyro_x,gyro_y,gyro_z
0,1715374715070,0.84,-0.55,0.2,62.62,23.74,-31.31
1,1715374715080,0.7828571428571429,-0.5,0.2785714285714286,73.52,-3.1600000000000006,-34.667142857142856
2,1715374715090,0.76,-0.48,0.31,77.88,-13.92,-36.01
3,1715374715100,0.76,-0.48,0.31,77.88,-13.92,-36.01
4,1715374715110,0.76,-0.48,0.31,77.88,-13.92,-36.01
5,1715374715120,0.79,-0.45,0.36,54.63,11.6,-29.6
6,1715374715130,0.79,-0.45,0.36,54.63,11.6,-29.6
7,1715374715140,0.79,-0.45,0.36,54.63,11.6,-29.6
8,1715374715150,0.79625,-0.4425,0.35625,49.136250000000004,12.903749999999999,-28.173750000000002
9,1715374715160,0.84,-0.39,0.33,10.68,22.03,-18.19
10,1715374715170,0.84,-0.39,0.33,10.679999999999998,22.03,-18.19
11,1715374715180,0.84,-0.39,0.33,10.68,22.03,-18.19
12,1715374715190,0.8175,-0.42375,0.33,8.39875,22.6025,-19.31125
13,1715374715200,0.78,-0.48,0.33,-7.57,26.61,-27.16
14,1715374715210,0.78,-0.48,0.33,-7.57,26.609999999999996,-27.16
15,1715374715220,0.78,-0.48,0.33,-7.57,26.61,-27.16
16,1715374715230,0.74,-0.53,0.29000000000000004,-6.380000000000001,22.46,-17.58
17,1715374715240,0.7,-0.58,0.25,-5.19,18.31,-8.0
18,1715374715250,0.7,-0.58,0.25,-5.19,18.31,-8.0
19,1715374715260,0.7,-0.58,0.25,-5.19,18.31,-8.0
20,1715374715270,0.6785714285714286,-0.5585714285714286,0.19999999999999998,-7.411428571428572,11.031428571428572,9.964285714285714
21,1715374715280,0.67,-0.55,0.18,-8.3,8.12,17.15
22,1715374715290,0.67,-0.55,0.18,-8.3,8.12,17.15
23,1715374715300,0.5985714285714285,-0.5285714285714286,0.08714285714285715,-15.671428571428573,4.105714285714286,20.77142857142857
24,1715374715310,0.57,-0.52,0.05,-18.62,2.5,22.22
25,1715374715320,0.57,-0.52,0.05,-18.62,2.5,22.22
26,1715374715330,0.57,-0.52,0.05,-18.62,2.5,22.22
27,1715374715340,0.46714285714285714,-0.5285714285714286,-0.12142857142857143,-42.20857142857143,-0.06285714285714285,35.505714285714284
28,1715374715350,0.45,-0.53,-0.15,-46.14,-0.49,37.72
29,1715374715360,0.45,-0.53,-0.15,-46.14,-0.48999999999999994,37.71999999999999
30,1715374715370,0.45,-0.53,-0.15,-46.14,-0.49,37.72
31,1715374715380,0.39,-0.59,-0.2175,-79.64999999999999,-12.6625,48.1075
32,1715374715390,0.37,-0.61,-0.24,-90.82,-16.72,51.57
33,1715374715400,0.37,-0.61,-0.24,-90.82000000000001,-16.72,51.57
34,1715374715410,0.37,-0.61,-0.24,-90.82,-16.72,51.57
35,1715374715420,0.34,-0.69,-0.18,-127.07499999999999,-25.24,69.2925
36,1715374715430,0.34,-0.69,-0.18,-139.16,-28.08,75.2
37,1715374715440,0.34,-0.6900000000000001,-0.18,-139.16,-28.080000000000002,75.2
38,1715374715450,0.34,-0.69,-0.18,-139.16,-28.08,75.2
39,1715374715460,0.39,-0.74625,-0.205,-166.36,-34.598749999999995,92.59375
40,1715374715470,0.42,-0.78,-0.22,-182.68,-38.51,103.03
41,1715374715480,0.42,-0.78,-0.22,-182.68,-38.51,103.03
42,1715374715490,0.5375,-0.8150000000000001,-0.19,-185.1975,-46.9325,106.295
43,1715374715500,0.89,-0.92,-0.1,-192.75,-72.2,116.09
44,1715374715510,0.89,-0.92,-0.1,-192.75,-72.2,116.09
45,1715374715520,0.89,-0.92,-0.1,-192.75,-72.2,116.09
46,1715374715530,0.89,-0.92,-0.1,-192.75,-72.2,116.09
47,1715374715540,1.115,-0.895,-0.05,-145.48,-96.71000000000001,101.045
48,1715374715550,1.34,-0.87,0.0,-98.21,-121.22,86.0
49,1715374715560,1.34,-0.87,0.0,-98.21,-121.22,86.0
50,1715374715570,1.3983333333333334,-1.0116666666666667,0.19999999999999998,-90.47666666666667,-75.69500000000001,54.616666666666674
51,1715374715580,1.41,-1.04,0.24,-88.92999999999999,-66.59,48.339999999999996
52,1715374715590,1.41,-1.04,0.24,-88.93,-66.59,48.34
53,1715374715600,1.41,-1.04,0.24,-88.93,-66.59,48.34
54,1715374715610,1.41,-1.04,0.24,-88.93,-66.59,48.34
55,1715374715620,1.41,-1.04,0.24,-88.92999999999999,-66.59,48.339999999999996
56,1715374715630,1.41,-1.04,0.24,-88.93,-66.59,48.34
57,1715374715640,1.4114285714285713,-1.0457142857142858,0.2357142857142857,-92.78428571428572,-52.49142857142857,48.64571428571429
58,1715374715650,1.55125,-1.045,0.39375,-115.02875,61.400000000000006,31.17375
59,1715374715660,1.57,-1.04,0.42,-114.5,78.98,19.59
60,1715374715670,1.57,-1.04,0.42,-114.5,78.98,19.59
61,1715374715680,1.57,-1.04,0.42,-114.5,78.98,19.59
62,1715374715690,1.49125,-0.87375,0.7262500000000001,-87.42750000000001,105.7375,-3.9562500000000003
63,1715374715700,1.48,-0.85,0.77,-83.56,109.56,-7.32
64,1715374715710,1.48,-0.85,0.7700000000000001,-83.56000000000002,109.56000000000002,-7.32
65,1715374715720,1.46875,-0.80125,0.77625,-75.305,111.04,-12.0425
66,1715374715730,1.39,-0.46,0.82,-17.52,121.4,-45.1
67,1715374715740,1.39,-0.46,0.82,-17.52,121.4,-45.1
68,1715374715750,1.39,-0.46,0.82,-17.52,121.4,-45.1
69,1715374715760,1.355,-0.4225,0.8425,-5.4725,115.57125,-57.292500000000004
70,1715374715770,1.25,-0.31,0.91,78.86,74.77,-142.64
71,1715374715780,1.25,-0.31,0.91,78.86,74.77,-142.64
72,1715374715790,1.25,-0.31,0.91,78.86,74.77,-142.64
73,1715374715800,1.2100000000000002,-0.23285714285714285,0.9299999999999999,76.31428571428572,101.71285714285715,-141.29714285714286
74,1715374715810,1.11,-0.04,0.98,69.95,169.07,-137.94
75,1715374715820,1.11,-0.04,0.98,69.95,169.07,-137.94
76,1715374715830,1.11,-0.04,0.9799999999999999,69.95,169.07,-137.94
77,1715374715840,1.0950000000000002,0.045,0.875,73.245,187.5325,-138.0925
78,1715374715850,1.08,0.13,0.7700000000000001,83.13,242.92,-138.55
79,1715374715860,1.08,0.13,0.77,83.13,242.92,-138.55
80,1715374715870,1.08,0.13,0.77,83.13,242.92,-138.55
81,1715374715880,1.2085714285714286,-0.15571428571428572,0.7842857142857144,132.5142857142857,230.99285714285716,-155.44857142857146
82,1715374715890,1.26,-0.27,0.79,198.36,215.09,-177.98
83,1715374715900,1.26,-0.27,0.79,198.36,215.09,-177.98
84,1715374715910,1.26,-0.27,0.79,198.35999999999999,215.09,-177.98
85,1715374715920,1.65375,-0.32625,0.8025,177.37875,285.77750000000003,-182.82375
86,1715374715930,1.89,-0.36,0.81,164.79,328.19,-185.73
87,1715374715940,1.89,-0.36,0.81,164.79,328.19,-185.73
88,1715374715950,1.89,-0.36,0.81,164.79,328.19,-185.73
89,1715374715960,2.241428571428571,-0.84,1.0414285714285716,217.37571428571428,295.7471428571429,-260.69571428571425
90,1715374715970,2.3,-0.92,1.08,226.14,290.34,-273.19
91,1715374715980,2.3,-0.92,1.08,226.14,290.34,-273.19
92,1715374715990,2.3,-0.92,1.08,226.14,290.34,-273.19
93,1715374716000,2.634285714285714,-1.117142857142857,1.8342857142857143,226.39714285714285,326.9142857142857,-261.6271428571428
94,1715374716010,2.69,-1.15,1.96,226.44,333.01,-259.7
95,1715374716020,2.69,-1.15,1.96,226.44,333.01,-259.7
96,1715374716030,2.69,-1.15,1.96,226.44,333.01,-259.7
97,1715374716040,2.04,-1.08,0.6,401.31,192.08,-290.22
98,1715374716050,2.04,-1.08,0.6,401.31,192.08,-290.22
99,1715374716060,2.04,-1.08,0.6,401.31,192.08,-290.22
100,1715374716070,1.4485714285714286,-0.9771428571428571,0.11571428571428569,437.1271428571428,113.64,-307.46857142857147
101,1715374716080,0.66,-0.84,-0.53,526.67,-82.46,-350.59
102,1715374716090,0.66,-0.84,-0.53,526.67,-82.46,-350.59
103,1715374716100,0.66,-0.84,-0.53,526.67,-82.46,-350.59
104,1715374716110,-0.50875,-1.0525,-0.4925,482.08624999999995,-118.64750000000001,-302.8675
105,1715374716120,-1.21,-1.18,-0.47,407.78,-178.96,-223.33
106,1715374716130,-1.2099999999999997,-1.18,-0.47000000000000003,407.78000000000003,-178.96,-223.33
107,1715374716140,-1.21,-1.18,-0.47,407.78,-178.96,-223.33
108,1715374716150,-1.4725000000000001,-1.5474999999999999,-0.845,15.612499999999994,57.11000000000001,162.5675
109,1715374716160,-1.56,-1.67,-0.97,-115.11,135.8,291.2
110,1715374716170,-1.56,-1.67,-0.97,-115.11,135.8,291.2
111,1715374716180,-1.56,-1.67,-0.97,-115.11,135.8,291.2
112,1715374716190,0.1725,-1.57375,-0.8474999999999999,-236.8275,84.6275,483.5975
113,1715374716200,0.42,-1.56,-0.83,-277.4,67.57,547.73
114,1715374716210,0.42,-1.56,-0.83,-277.4,67.57,547.73
115,1715374716220,0.42,-1.56,-0.83,-277.4,67.57,547.73
116,1715374716230,1.09375,-1.1837499999999999,-0.7162499999999999,-178.94375,-95.39875,479.48625000000004
117,1715374716240,1.19,-1.13,-0.7,-119.87,-193.18,438.54
118,1715374716250,1.19,-1.13,-0.7,-119.87,-193.18,438.54
119,1715374716260,1.16625,-1.10875,-0.6575,-119.87,-193.18,438.54
120,1715374716270,1.0,-0.96,-0.36,-50.7625,-226.87625,376.16125
121,1715374716280,1.0,-0.96,-0.36,-40.89,-231.69,367.25
122,1715374716290,1.0,-0.96,-0.36,-40.89,-231.69,367.25
123,1715374716300,0.9675,-0.97,-0.35,-40.89,-231.69,367.25
124,1715374716310,0.87,-1.0,-0.32,-120.67,-159.73,378.72
125,1715374716320,0.87,-1.0,-0.32,-120.67,-159.73,378.71999999999997
126,1715374716330,0.87,-1.0,-0.32,-120.67,-159.73,378.72
127,1715374716340,0.9675,-1.0,-0.185,-144.42625,-140.79999999999998,373.96125
128,1715374716350,1.13,-1.0,0.04,-184.02,-109.25,366.03
129,1715374716360,1.13,-1.0,0.04,-184.02,-109.25,366.03000000000003
130,1715374716370,1.13,-1.0,0.04,-184.02,-109.25,366.03
131,1715374716380,1.1424999999999998,-1.25,0.03375,-177.495,-114.05625,345.66125
132,1715374716390,1.15,-1.4,0.03,-173.58,-116.93999999999998,333.44
133,1715374716400,1.15,-1.4,0.03,-173.58,-116.94,333.44
134,1715374716410,1.15,-1.4,0.03,-173.58,-116.94,333.44
135,1715374716420,1.5999999999999999,-1.942857142857143,-0.055714285714285716,-182.71285714285713,-121.2042857142857,318.76142857142855
136,1715374716430,1.78,-2.16,-0.09,-194.89,-126.89,299.19
137,1715374716440,1.78,-2.16,-0.09,-194.89,-126.89,299.19
138,1715374716450,1.78,-2.16,-0.09,-194.89,-126.89,299.19
139,1715374716460,2.3942857142857146,-2.7100000000000004,0.10285714285714286,-190.39714285714285,-130.68285714285713,314.8471428571429
140,1715374716470,2.64,-2.93,0.18,-188.6,-132.2,321.11
141,1715374716480,2.64,-2.93,0.18,-188.6,-132.2,321.11
142,1715374716490,2.64,-2.93,0.18,-188.6,-132.2,321.11
143,1715374716500,3.48,-1.43,1.31,-205.02285714285713,23.962857142857143,240.69285714285712
144,1715374716510,3.48,-1.43,1.31,-207.76,49.99,227.29
145,1715374716520,3.48,-1.43,1.31,-207.76,49.99,227.29
146,1715374716530,3.48,-1.43,1.31,-207.76,49.99,227.29
147,1715374716540,2.395,-1.5962500000000002,0.70625,-158.84750000000003,262.44,69.055
148,1715374716550,2.24,-1.62,0.62,-151.86,292.79,46.45
149,1715374716560,2.24,-1.62,0.62,-151.86,292.79,46.45
150,1715374716570,2.145,-1.54125,0.545,-132.61,277.08875,39.88125
151,1715374716580,1.48,-0.99,0.02,2.14,167.18,-6.1
152,1715374716590,1.48,-0.99,0.02,2.14,167.18,-6.1
153,1715374716600,1.48,-0.99,0.02,2.14,167.18,-6.1
154,1715374716610,1.4075,-0.875,0.16249999999999998,16.3,147.205,-20.627499999999998
155,1715374716620,1.19,-0.53,0.59,58.78000000000001,87.28,-64.21
156,1715374716630,1.19,-0.53,0.59,58.78,87.28,-64.21
157,1715374716640,1.19,-0.53,0.59,58.78,87.28,-64.21
158,1715374716650,1.08,-0.2,0.635,48.3725,111.9075,-62.16499999999999
159,1715374716660,0.97,0.13,0.68,17.15,185.79,-56.03000000000001
160,1715374716670,0.97,0.13,0.68,17.15,185.79,-56.03
161,1715374716680,0.97,0.13,0.68,17.15,185.79,-56.03
162,1715374716690,0.96375,0.6925,0.53625,54.075,166.98375,-100.69875
163,1715374716700,0.96,1.03,0.45,76.23,155.7,-127.5
164,1715374716710,0.96,1.03,0.45,76.23,155.7,-127.5
165,1715374716720,0.96,1.03,0.45,76.23,155.7,-127.5
166,1715374716730,0.7657142857142857,0.7214285714285714,0.4442857142857143,88.47571428571429,151.61999999999998,-171.27142857142857
167,1715374716740,0.62,0.49,0.44,97.66,148.56,-204.1
168,1715374716750,0.62,0.49,0.44,97.66,148.56,-204.1
169,1715374716760,0.62,0.48999999999999994,0.44,97.66,148.56,-204.1
170,1715374716770,0.9575,0.5425,0.35,106.9975,138.4425,-196.04500000000002
171,1715374716780,1.07,0.56,0.32,110.11,135.07,-193.36
172,1715374716790,1.07,0.56,0.32,110.11,135.07,-193.35999999999999
173,1715374716800,1.07,0.56,0.32,110.11,135.07,-193.36
174,1715374716810,1.2585714285714287,0.3628571428571429,0.4942857142857143,126.18714285714285,127.45,-220.56285714285715
175,1715374716820,1.73,-0.13,0.93,166.38,108.4,-288.57
176,1715374716830,1.73,-0.13,0.93,166.38,108.4,-288.57
177,1715374716840,1.73,-0.13,0.93,166.38,108.4,-288.57
178,1715374716850,1.73,-0.13,0.93,166.37999999999997,108.4,-288.57
179,1715374716860,2.1875,-0.4075,0.7875,92.4975,223.61499999999998,-243.57750000000001
180,1715374716870,2.34,-0.5,0.74,67.87,262.02,-228.58
181,1715374716880,2.34,-0.5,0.74,67.87,262.02,-228.58
182,1715374716890,4.66,-1.17,3.0,185.79,218.51,-341.19
183,1715374716900,4.66,-1.17,3.0,185.79,218.51,-341.19
184,1715374716910,4.66,-1.17,3.0,185.79,218.51,-341.19
185,1715374716920,4.66,-1.17,3.0,185.79,218.51,-341.19
186,1715374716930,4.660000000000001,-1.17,3.0,185.79,218.51,-341.19
187,1715374716940,4.66,-1.17,3.0,185.79,218.51,-341.19
188,1715374716950,4.3100000000000005,-1.015,2.195,224.245,265.78,-328.98
189,1715374716960,3.141428571428571,-1.0957142857142856,1.0642857142857143,324.4057142857143,242.73857142857145,-354.04714285714283
190,1715374716970,2.05,-1.41,0.63,406.68,148.99,-403.75
191,1715374716980,2.05,-1.41,0.63,406.68,148.99,-403.75
192,1715374716990,2.05,-1.41,0.63,406.68,148.99,-403.75
193,1715374717000,0.8624999999999999,-1.36625,-0.045000000000000005,357.355,126.74625,-324.1375
194,1715374717010,0.15,-1.34,-0.45,327.76,113.4,-276.37
195,1715374717020,0.15,-1.34,-0.45,327.76,113.4,-276.37
196,1715374717030,0.15,-1.34,-0.45,327.75999999999993,113.4,-276.37
197,1715374717040,-0.97,-1.375,-1.01,63.51,210.60375000000002,-30.11
198,1715374717050,-1.13,-1.38,-1.09,25.76,224.49,5.07
199,1715374717060,-1.13,-1.3800000000000001,-1.09,25.76,224.49,5.07
200,1715374717070,-1.13,-1.38,-1.09,25.76,224.49,5.07
201,1715374717080,-1.08,-1.77,-1.52,-4.21,94.06,230.04
202,1715374717090,-1.08,-1.77,-1.52,-4.21,94.06,230.04
203,1715374717100,-1.08,-1.77,-1.52,-4.21,94.06,230.04
204,1715374717110,-0.9342857142857143,-1.7128571428571429,-1.542857142857143,5.258571428571429,67.38714285714286,240.32857142857142
205,1715374717120,-0.06,-1.37,-1.68,62.07,-92.65,302.06
206,1715374717130,-0.06,-1.37,-1.68,62.07,-92.65,302.06
207,1715374717140,-0.002857142857142852,-1.3014285714285714,-1.66,46.13285714285714,-103.32142857142857,300.42285714285714
208,1715374717150,0.14,-1.13,-1.61,6.29,-130.0,296.33
209,1715374717160,0.14,-1.13,-1.61,6.29,-130.0,296.33
210,1715374717170,0.14,-1.13,-1.61,6.29,-130.0,296.33
211,1715374717180,0.23,-1.23,-1.485,-18.4,-152.7225,295.565
212,1715374717190,0.32,-1.33,-1.36,-92.47,-220.89,293.27
213,1715374717200,0.32,-1.33,-1.36,-92.47,-220.89000000000001,293.27
214,1715374717210,0.32,-1.33,-1.36,-92.47,-220.89,293.27
215,1715374717220,0.595,-1.51125,-0.9287500000000001,-113.48125,-229.47,320.12
216,1715374717230,0.76,-1.62,-0.67,-148.5,-243.77,364.87
217,1715374717240,0.76,-1.6199999999999999,-0.67,-148.5,-243.77,364.87
218,1715374717250,0.76,-1.62,-0.67,-148.5,-243.77,364.87
219,1715374717260,1.4725,-1.44,-0.28750000000000003,-194.04749999999999,-197.1275,405.52
220,1715374717270,1.7099999999999997,-1.3800000000000001,-0.16,-209.23,-181.58,419.07
221,1715374717280,1.71,-1.38,-0.16,-209.23,-181.58,419.07
222,1715374717290,1.7099999999999997,-1.3800000000000001,-0.16,-209.23,-181.58,419.07
223,1715374717300,1.845,-2.16,-0.34,-218.29,-180.9875,382.725
224,1715374717310,1.89,-2.42,-0.4,-221.31,-180.79,370.61
225,1715374717320,1.89,-2.42,-0.4,-221.31,-180.79,370.61
226,1715374717330,1.89,-2.4199999999999995,-0.4,-221.31,-180.79,370.61
227,1715374717340,3.42,-2.705,0.01249999999999999,-174.5325,-233.98000000000002,416.65999999999997
228,1715374717350,3.93,-2.8,0.15,-158.94,-251.71,432.01
229,1715374717360,3.93,-2.8,0.15,-158.94,-251.71,432.00999999999993
230,1715374717370,4.0925,-2.6312499999999996,0.1575,-158.94,-251.71,432.01
231,1715374717380,5.23,-1.45,0.21,-200.10875000000001,-95.49625,356.38374999999996
232,1715374717390,5.2299999999999995,-1.45,0.21,-205.99,-73.17999999999999,345.58
233,1715374717400,5.23,-1.45,0.21,-205.99,-73.18,345.58
234,1715374717410,4.945,-1.305,0.59,-219.98250000000002,-17.150000000000006,271.82
235,1715374717420,4.09,-0.87,1.73,-261.96,150.94,50.54
236,1715374717430,4.09,-0.87,1.73,-261.96,150.94,50.54
237,1715374717440,4.09,-0.87,1.73,-261.96,150.94,50.54
238,1715374717450,3.7399999999999998,-0.825,1.5425,-230.635,166.6575,42.527499999999996
239,1715374717460,2.69,-0.6900000000000001,0.9799999999999999,-136.66,213.81,18.49
240,1715374717470,2.69,-0.69,0.98,-136.66,213.81,18.49
241,1715374717480,2.69,-0.69,0.98,-136.66,213.81,18.49
242,1715374717490,2.61875,-0.51,1.01375,-63.355,175.6325,-31.450000000000003
243,1715374717500,2.5,-0.21,1.07,156.56,61.1,-181.27
244,1715374717510,2.5,-0.21,1.07,156.56,61.1,-181.27
245,1715374717520,2.5,-0.21,1.07,156.56,61.1,-181.27
246,1715374717530,2.335,-0.135,0.92,130.145,94.6075,-178.9375
247,1715374717540,1.84,0.09,0.47,50.9,195.13,-171.94
248,1715374717550,1.84,0.09,0.47,50.9,195.13,-171.94
249,1715374717560,1.84,0.09,0.47000000000000003,50.9,195.12999999999997,-171.94
250,1715374717570,1.505,0.11,0.48,92.56,166.445,-208.375
251,1715374717580,1.17,0.13,0.49,134.22,137.76,-244.81
252,1715374717590,1.17,0.13,0.48999999999999994,134.22,137.76,-244.81
253,1715374717600,1.17,0.13,0.49,134.22,137.76,-244.81
254,1715374717610,1.1775,-0.012499999999999997,0.4825,154.3125,171.36,-279.7375
255,1715374717620,1.18,-0.06,0.48,161.01,182.56,-291.38
256,1715374717630,1.18,-0.06,0.48,161.01,182.56,-291.38
257,1715374717640,1.18,-0.06,0.48,161.01,182.56,-291.38
258,1715374717650,1.31125,-0.34,0.33125,127.06,253.96625,-303.36125
259,1715374717660,1.33,-0.38,0.31,106.68999999999998,296.81,-310.55
260,1715374717670,1.33,-0.38,0.31,106.69,296.81,-310.55
261,1715374717680,1.33,-0.38,0.31,106.69,296.81,-310.55
262,1715374717690,1.5,-0.72,0.51,176.58999999999997,295.76,-291.8225
263,1715374717700,1.5,-0.72,0.51,199.89000000000001,295.41,-285.58
264,1715374717710,1.5,-0.72,0.51,199.89,295.41,-285.58
265,1715374717720,1.5,-0.72,0.51,199.89,295.41,-285.58
266,1715374717730,2.19,-0.9400000000000001,0.85,135.13,516.72,-246.15
267,1715374717740,2.19,-0.94,0.85,135.13,516.72,-246.15
268,1715374717750,2.19,-0.94,0.85,135.13,516.72,-246.15
269,1715374717760,1.99,-0.9642857142857143,0.6442857142857142,135.13,516.72,-246.15
270,1715374717770,0.79,-1.11,-0.59,146.48,609.62,-144.53
271,1715374717780,0.79,-1.11,-0.59,146.48,609.62,-144.53
272,1715374717790,0.79,-1.11,-0.59,146.48,609.62,-144.53
273,1715374717800,0.25375000000000003,-0.8475,-0.57125,177.77625,553.46,-147.1775
274,1715374717810,-0.64,-0.41,-0.54,396.85,160.34,-165.71
275,1715374717820,-0.64,-0.41,-0.54,396.85,160.34,-165.71
276,1715374717830,-0.64,-0.41,-0.54,396.85,160.34,-165.71
277,1715374717840,-0.8425,-0.32375,-0.6225,361.19,133.0575,-137.1
278,1715374717850,-1.18,-0.18,-0.76,254.21,51.21,-51.27
279,1715374717860,-1.18,-0.18,-0.76,254.21,51.21,-51.27
280,1715374717870,-1.18,-0.18,-0.76,254.21,51.21,-51.27
281,1715374717880,-0.94875,-0.4425,-0.735,0.7600000000000016,53.04125,133.5925
282,1715374717890,-0.8099999999999999,-0.6,-0.72,-151.31,54.14,244.51
283,1715374717900,-0.8099999999999999,-0.6,-0.72,-151.31,54.14,244.51
284,1715374717910,-0.81,-0.6,-0.72,-151.31,54.14,244.51
285,1715374717920,-0.13285714285714287,-1.2514285714285716,-0.8142857142857142,-244.68714285714285,-17.062857142857144,363.8414285714286
286,1715374717930,-0.02,-1.36,-0.83,-260.25,-28.93,383.73
287,1715374717940,-0.02,-1.36,-0.83,-260.25,-28.93,383.73
288,1715374717950,-0.02,-1.36,-0.83,-260.25,-28.93,383.73
289,1715374717960,0.49,-1.6800000000000002,-0.72,-355.01,-55.94,436.525
290,1715374717970,1.0,-2.0,-0.61,-449.77,-82.95,489.32
291,1715374717980,1.0,-2.0,-0.61,-449.77,-82.95,489.32
292,1715374717990,1.0,-2.0,-0.61,-449.77,-82.95,489.32
293,1715374718000,1.61,-1.58,-0.3,-540.34,-94.97,342.65
294,1715374718010,1.61,-1.58,-0.3,-540.34,-94.97,342.65
295,1715374718020,1.61,-1.58,-0.3,-540.34,-94.97,342.65
296,1715374718030,1.61,-1.58,-0.3,-540.34,-94.97,342.65
297,1715374718040,1.39125,-1.8612499999999998,-0.2625,-494.29625000000004,-152.6075,270.81874999999997
298,1715374718050,1.26,-2.03,-0.24,-466.67,-187.19,227.72
299,1715374718060,1.27375,-2.0349999999999997,-0.2375,-454.6625,-197.09375,227.33125
300,1715374718070,1.37,-2.07,-0.22,-370.61,-266.42,224.61
301,1715374718080,1.37,-2.07,-0.22,-370.61,-266.42,224.61
302,1715374718090,1.3699999999999999,-2.07,-0.22,-370.61,-266.42,224.60999999999999
303,1715374718100,1.4825000000000002,-1.8724999999999998,-0.15,-343.9975,-278.855,209.10750000000002
304,1715374718110,1.82,-1.28,0.06,-264.16,-316.16,162.6
305,1715374718120,1.82,-1.28,0.06,-264.16,-316.16,162.6
306,1715374718130,1.82,-1.28,0.06,-264.16,-316.16,162.6
307,1715374718140,1.8142857142857145,-1.3571428571428572,0.05142857142857143,-251.65714285714287,-319.90857142857146,143.4
308,1715374718150,1.8,-1.55,0.03,-220.4,-329.28,95.4
309,1715374718160,1.8,-1.55,0.03,-220.4,-329.28,95.4
310,1715374718170,1.8,-1.55,0.03,-220.4,-329.28000000000003,95.4
311,1715374718180,1.8,-1.55,0.03,-220.4,-329.28,95.4
312,1715374718190,1.9275,-1.6575,0.05,-214.89000000000001,-329.83,97.185
313,1715374718200,2.31,-1.98,0.11,-198.35999999999999,-331.48,102.54
314,1715374718210,2.31,-1.98,0.11,-198.36,-331.48,102.54
315,1715374718220,2.6475,-1.6725,0.9275,-189.85000000000002,-251.495,62.255
316,1715374718230,2.76,-1.57,1.2,-181.34,-171.51,21.97
317,1715374718240,2.7600000000000002,-1.57,1.2,-181.34,-171.51,21.97
318,1715374718250,2.7600000000000002,-1.57,1.2,-181.34,-171.51,21.97
319,1715374718260,1.9885714285714287,-2.1442857142857146,1.122857142857143,-109.94571428571429,-65.55,-33.65857142857143
320,1715374718270,1.86,-2.24,1.11,-56.4,13.92,-75.38
321,1715374718280,1.86,-2.24,1.11,-56.4,13.92,-75.38
322,1715374718290,1.86,-2.24,1.11,-56.4,13.92,-75.38
323,1715374718300,2.48,-1.55,0.82,132.51,101.2,-98.45
324,1715374718310,2.48,-1.55,0.82,132.51,101.2,-98.45
325,1715374718320,2.48,-1.55,0.82,132.51,101.2,-98.45
326,1715374718330,2.48,-1.55,0.82,132.51,101.2,-98.45
327,1715374718340,2.1,-1.51,0.29,106.63,245.67,-169.01
328,1715374718350,2.1,-1.51,0.29,106.63,245.67,-169.01
329,1715374718360,2.1,-1.51,0.29,106.63,245.67,-169.01
330,1715374718370,1.945,-1.38,0.3175,119.065,236.92499999999998,-166.01749999999998
331,1715374718380,1.48,-0.99,0.4,156.37000000000003,210.69,-157.04
332,1715374718390,1.48,-0.99,0.4,156.37,210.69,-157.04
333,1715374718400,1.48,-0.99,0.4,156.37,210.69,-157.04
334,1715374718410,1.21,-0.72,0.445,164.84125,210.99,-162.305
335,1715374718420,0.9400000000000001,-0.45,0.48999999999999994,178.96,211.49,-171.08
336,1715374718430,0.94,-0.45,0.49,178.96,211.49,-171.08
337,1715374718440,0.94,-0.45,0.49,178.96,211.49,-171.08
338,1715374718450,0.895,-0.335,0.525,201.66500000000002,203.155,-170.32
339,1715374718460,0.85,-0.22,0.56,224.37000000000003,194.82,-169.56
340,1715374718470,0.85,-0.22,0.56,224.37,194.82,-169.56
341,1715374718480,0.85,-0.22,0.56,224.37,194.82,-169.56
342,1715374718490,1.0075,-0.46,0.5375000000000001,240.7575,243.6675,-167.6775
343,1715374718500,1.06,-0.54,0.53,246.22,259.95,-167.05
344,1715374718510,1.06,-0.54,0.53,246.22,259.95,-167.05
345,1715374718520,1.06,-0.54,0.53,246.22,259.95,-167.05
346,1715374718530,1.4885714285714287,-0.8228571428571428,0.53,127.9342857142857,399.63000000000005,-95.59000000000002
347,1715374718540,1.56,-0.87,0.53,108.22,422.91,-83.68
348,1715374718550,1.56,-0.87,0.53,108.22,422.91,-83.68
349,1715374718560,1.56,-0.87,0.53,108.22,422.91,-83.67999999999999
350,1715374718570,1.76,-1.26,1.13,375.43,159.24,-201.78
351,1715374718580,1.76,-1.26,1.13,375.43,159.24,-201.78
352,1715374718590,1.76,-1.26,1.13,375.43,159.24,-201.78
353,1715374718600,1.6857142857142857,-1.28,0.9914285714285713,401.15142857142854,163.41714285714286,-217.20428571428573
354,1715374718610,1.24,-1.4,0.16,555.48,188.48,-309.75
355,1715374718620,1.24,-1.4,0.16,555.48,188.48,-309.75
356,1715374718630,1.24,-1.4,0.16,555.48,188.48,-309.75
357,1715374718640,0.8375,-1.1749999999999998,-0.22250000000000003,537.505,164.07999999999998,-309.63
358,1715374718650,-0.37,-0.5,-1.37,483.58,90.88,-309.27
359,1715374718660,-0.37,-0.5,-1.37,483.58,90.88,-309.27
360,1715374718670,-0.37,-0.5,-1.3699999999999999,483.58,90.88,-309.27
361,1715374718680,-0.81,-0.335,-1.35,308.04499999999996,23.924999999999997,-223.39
362,1715374718690,-1.25,-0.17,-1.33,132.51,-43.03000000000001,-137.51
363,1715374718700,-1.25,-0.17,-1.33,132.51,-43.03,-137.51
364,1715374718710,-1.25,-0.17,-1.33,132.51,-43.03,-137.51
365,1715374718720,-1.1528571428571428,-0.7528571428571428,-1.2900000000000003,14.327142857142851,-33.50714285714286,-15.799999999999999
366,1715374718730,-1.08,-1.19,-1.26,-143.25,-20.81,146.48
367,1715374718740,-1.08,-1.19,-1.26,-143.25,-20.81,146.48
368,1715374718750,-1.08,-1.19,-1.26,-143.25,-20.81,146.48
369,1715374718760,-0.03750000000000002,-1.9025,-1.23,-242.21999999999997,-108.47749999999999,329.54
370,1715374718770,0.31,-2.14,-1.22,-275.21,-137.7,390.56
371,1715374718780,0.31,-2.14,-1.22,-275.21,-137.7,390.56
372,1715374718790,0.31,-2.14,-1.22,-275.21,-137.7,390.56
373,1715374718800,1.29,-2.77875,-0.70375,-386.34375,-164.44875000000002,440.715
374,1715374718810,1.43,-2.87,-0.63,-402.22,-168.27,447.88
375,1715374718820,1.43,-2.87,-0.63,-402.22,-168.27,447.88
376,1715374718830,1.43,-2.87,-0.63,-402.22,-168.27,447.88
377,1715374718840,1.86,-3.5,-0.31,-418.15,-267.7,452.7
378,1715374718850,1.86,-3.5,-0.31,-418.15,-267.7,452.7
379,1715374718860,1.86,-3.5,-0.31,-418.15,-267.7,452.7
380,1715374718870,1.98875,-3.40625,-0.3,-394.08,-284.6675,453.66125
381,1715374718880,2.89,-2.75,-0.23,-225.59,-403.44,460.39
382,1715374718890,2.89,-2.75,-0.23,-225.59,-403.44,460.39
383,1715374718900,2.89,-2.75,-0.23,-225.59,-403.44,460.39
384,1715374718910,2.74375,-2.48375,-0.23375,-211.80875,-402.09,402.07
385,1715374718920,2.5,-2.04,-0.24,-188.84,-399.84,304.87
386,1715374718930,2.5,-2.04,-0.24,-188.84,-399.84,304.87
387,1715374718940,2.5,-2.04,-0.24,-188.84,-399.84,304.87
388,1715374718950,2.375,-1.615,0.12250000000000003,-151.45875,-391.48375,320.70125
389,1715374718960,2.3,-1.36,0.34,-129.03,-386.46999999999997,330.2
390,1715374718970,2.3,-1.36,0.34,-129.03,-386.47,330.2
391,1715374718980,2.3,-1.36,0.34,-129.03,-386.47,330.2
392,1715374718990,2.9285714285714284,-0.7742857142857142,1.1400000000000001,-124.11,-313.78000000000003,326.54
393,1715374719000,3.18,-0.54,1.46,-117.55,-216.86,321.66
394,1715374719010,3.18,-0.54,1.46,-117.55,-216.86,321.66
395,1715374719020,3.18,-0.54,1.46,-117.55,-216.86,321.66
396,1715374719030,2.4585714285714286,-0.64,0.7671428571428571,-81.34857142857142,-77.57000000000001,204.6
397,1715374719040,2.17,-0.68,0.49,-33.08,108.15,48.52
398,1715374719050,2.17,-0.68,0.49,-33.08,108.15,48.52
399,1715374719060,2.17,-0.68,0.48999999999999994,-33.08,108.15,48.52
400,1715374719070,1.54,-1.1875,-0.1225,1.0225000000000009,72.63000000000001,11.008750000000003
401,1715374719080,1.45,-1.26,-0.21,57.86,13.43,-51.51
402,1715374719090,1.45,-1.26,-0.21,57.86,13.429999999999998,-51.51
403,1715374719100,1.45,-1.26,-0.21,57.86,13.43,-51.51
404,1715374719110,1.947142857142857,-1.3800000000000001,0.030000000000000006,24.165714285714284,20.492857142857144,-84.10714285714286
405,1715374719120,2.03,-1.4,0.07,18.55,21.67,-89.54
406,1715374719130,2.03,-1.4,0.07,18.55,21.67,-89.54
407,1715374719140,2.132857142857143,-1.3485714285714285,0.10714285714285714,13.24,32.385714285714286,-93.41142857142857
408,1715374719150,2.39,-1.22,0.2,-18.62,96.68,-116.64
409,1715374719160,2.39,-1.22,0.2,-18.62,96.67999999999999,-116.64
410,1715374719170,2.39,-1.22,0.2,-18.62,96.68,-116.64
411,1715374719180,2.38,-1.1975,0.34750000000000003,-4.230000000000001,110.55000000000001,-136.995
412,1715374719190,2.35,-1.13,0.79,38.94,152.16,-198.06
413,1715374719200,2.35,-1.13,0.79,38.94,152.16,-198.06
414,1715374719210,2.35,-1.13,0.79,38.94,152.16,-198.06
415,1715374719220,2.16,-1.06,0.47500000000000003,59.6325,194.36624999999998,-209.505
416,1715374719230,1.97,-0.99,0.16,94.12,264.71,-228.58
417,1715374719240,1.97,-0.99,0.16,94.12,264.71,-228.58
418,1715374719250,1.97,-0.99,0.16,94.12,264.71,-228.58
419,1715374719260,1.7850000000000001,-0.88,0.20500000000000002,137.125,205.63625,-254.305
420,1715374719270,1.6,-0.77,0.25,208.8,107.18,-297.18
421,1715374719280,1.6,-0.7700000000000001,0.25,208.8,107.17999999999999,-297.18
422,1715374719290,1.6,-0.77,0.25,208.8,107.18,-297.18
423,1715374719300,1.7357142857142858,-0.9342857142857143,0.5571428571428572,207.33428571428573,162.63285714285715,-306.93857142857144
424,1715374719310,1.79,-1.0,0.68,205.38,236.57,-319.95
425,1715374719320,1.7900000000000003,-1.0,0.68,205.37999999999997,236.57,-319.95
426,1715374719330,1.79,-1.0,0.68,205.38,236.57,-319.95
427,1715374719340,1.79,-1.0,0.68,205.38,236.57,-319.95
428,1715374719350,1.48,-1.4,-0.13,240.23,271.42,-323.85
429,1715374719360,1.48,-1.4,-0.13,240.23,271.42,-323.85
430,1715374719370,1.48,-1.4,-0.13,240.23,271.42,-323.85
431,1715374719380,1.4649999999999999,-1.44875,0.012499999999999997,279.1175,227.33875,-347.01375
432,1715374719390,1.44,-1.53,0.25,343.93,153.87000000000003,-385.62
433,1715374719400,1.44,-1.53,0.25,343.93,153.87,-385.62
434,1715374719410,1.44,-1.53,0.25,343.93,153.87,-385.62
435,1715374719420,1.3085714285714285,-1.592857142857143,0.11857142857142856,330.05,173.78428571428572,-381.7514285714286
436,1715374719430,1.21,-1.64,0.02,319.64,188.72,-378.85
437,1715374719440,1.21,-1.64,0.02,319.64,188.72,-378.85
438,1715374719450,1.2099999999999997,-1.64,0.02,319.64,188.72,-378.85
439,1715374719460,1.21,-1.64,0.02,319.64,188.72,-378.85
440,1715374719470,1.21,-1.64,0.02,319.64,188.72,-378.85
441,1715374719480,1.21,-1.64,0.02,319.64,188.72,-378.85
442,1715374719490,0.038571428571428555,-0.6699999999999999,-0.21285714285714286,257.80571428571426,92.49000000000001,-307.68142857142857
443,1715374719500,-0.23,-0.27,0.05,192.32,67.99,-241.76
444,1715374719510,-0.23,-0.27,0.05,192.32,67.99,-241.76
445,1715374719520,-0.23,-0.27,0.05,192.32,67.99,-241.76
446,1715374719530,-0.5842857142857143,-0.2871428571428571,-0.5042857142857143,40.08,210.01285714285714,-116.48
447,1715374719540,-0.85,-0.3,-0.92,-74.1,316.53,-22.52
448,1715374719550,-0.85,-0.3,-0.92,-74.1,316.53,-22.52
449,1715374719560,-0.85,-0.3,-0.92,-74.1,316.53000000000003,-22.52
450,1715374719570,-0.885,-0.57125,-1.3050000000000002,-263.0475,194.23125,171.02124999999998
451,1715374719580,-0.89,-0.61,-1.36,-290.04,176.76,198.67
452,1715374719590,-0.89,-0.61,-1.36,-290.04,176.76,198.67
453,1715374719600,-0.89,-0.61,-1.36,-290.04,176.76,198.67
454,1715374719610,-0.032857142857142856,-1.252857142857143,-0.8885714285714287,-372.1028571428571,64.69714285714285,260.9271428571429
455,1715374719620,0.11,-1.36,-0.81,-433.65,-19.35,307.62
456,1715374719630,0.11,-1.36,-0.81,-433.65,-19.35,307.62
457,1715374719640,0.2175,-1.4837500000000001,-0.78,-440.05875,-37.84375,309.375
458,1715374719650,0.97,-2.35,-0.57,-484.92,-167.3,321.66
459,1715374719660,0.97,-2.35,-0.57,-484.92,-167.3,321.66
460,1715374719670,0.97,-2.35,-0.57,-484.92,-167.3,321.66
461,1715374719680,1.0442857142857143,-2.3985714285714286,-0.5371428571428571,-475.4342857142857,-187.24,319.9328571428572
462,1715374719690,1.49,-2.69,-0.34,-418.52,-306.88,309.57
463,1715374719700,1.49,-2.69,-0.34,-418.52,-306.88,309.57
464,1715374719710,1.49,-2.69,-0.34,-418.52,-306.88,309.57
465,1715374719720,1.7525,-2.555,-0.2725,-402.29999999999995,-319.37,308.945
466,1715374719730,2.19,-2.33,-0.16,-288.76,-406.8,304.57
467,1715374719740,2.19,-2.3300000000000005,-0.16,-288.76,-406.8,304.57
468,1715374719750,2.19,-2.33,-0.16,-288.76,-406.8,304.57
469,1715374719760,2.185,-2.095,-0.035,-248.065,-407.7825,289.99
470,1715374719770,2.18,-1.86,0.09,-180.24,-409.42,265.69
471,1715374719780,2.18,-1.86,0.09,-180.24,-409.42,265.69
472,1715374719790,2.18,-1.86,0.09,-180.24,-409.42,265.69
473,1715374719800,1.9857142857142858,-1.5342857142857143,0.2957142857142857,-169.32,-338.1,268.0957142857143
474,1715374719810,1.84,-1.29,0.45,-161.13,-284.61,269.9
475,1715374719820,1.84,-1.2900000000000003,0.45,-161.12999999999997,-284.61,269.9
476,1715374719830,1.84,-1.29,0.45,-161.13,-284.61,269.9
477,1715374719840,1.8525,-1.3775,0.425,-163.785,-239.86125,262.94
478,1715374719850,1.86,-1.43,0.41,-168.21,-165.28,251.34
479,1715374719860,1.86,-1.43,0.41,-168.21,-165.28,251.34
480,1715374719870,1.86,-1.43,0.41,-168.21,-165.28,251.34
481,1715374719880,2.1599999999999997,-1.3025,0.46249999999999997,-115.02000000000001,-169.63,202.77
482,1715374719890,2.26,-1.26,0.48,-97.29,-171.08,186.58
483,1715374719900,2.26,-1.26,0.48000000000000004,-97.29,-171.08,186.58
484,1715374719910,2.26,-1.26,0.48,-97.29,-171.08,186.58
485,1715374719920,2.5100000000000002,-0.87,1.08,-88.31142857142858,-102.02285714285715,63.730000000000004
486,1715374719930,2.51,-0.87,1.08,-84.72,-74.4,14.59
487,1715374719940,2.51,-0.87,1.08,-84.72,-74.4,14.59
488,1715374719950,2.3649999999999998,-1.0625,0.99,-84.72,-74.4,14.59
489,1715374719960,1.93,-1.64,0.72,-2.56,73.12,-115.36
490,1715374719970,1.93,-1.64,0.72,-2.56,73.12,-115.36
491,1715374719980,1.93,-1.64,0.72,-2.56,73.12,-115.36
492,1715374719990,1.93,-1.64,0.72,-2.56,73.12,-115.36
493,1715374720000,1.7,-1.61,0.39,64.51,126.16,-136.84
494,1715374720010,1.7,-1.61,0.39,64.51,126.16,-136.84
495,1715374720020,1.7,-1.61,0.39,64.51,126.16,-136.84
496,1715374720030,1.7,-1.61,0.39,64.51,126.16,-136.84
497,1715374720040,1.5114285714285713,-1.4557142857142857,0.3385714285714286,74.66428571428571,130.3085714285714,-160.2057142857143
498,1715374720050,1.48,-1.43,0.33,82.28,133.42,-177.73
499,1715374720060,1.48,-1.43,0.33,82.28,133.42,-177.73
500,1715374720070,1.4537499999999999,-1.3812499999999999,0.355,82.28,133.42,-177.73
501,1715374720080,1.27,-1.04,0.53,101.99,144.1,-195.31
502,1715374720090,1.27,-1.04,0.53,101.99,144.1,-195.31
503,1715374720100,1.27,-1.04,0.53,101.99,144.1,-195.31
504,1715374720110,1.2075,-0.8025,0.58,105.78875,162.6175,-210.14125
505,1715374720120,1.17,-0.66,0.61,112.12,193.48,-234.86
506,1715374720130,1.17,-0.66,0.61,112.12,193.48,-234.85999999999999
507,1715374720140,1.17,-0.66,0.61,112.12,193.48,-234.86
508,1715374720150,1.0262499999999999,-0.7725,0.71,136.83875,230.48624999999998,-241.76625
509,1715374720160,0.94,-0.84,0.77,151.67,252.69,-245.91
510,1715374720170,0.9400000000000001,-0.84,0.7700000000000001,151.67,252.69,-245.91
511,1715374720180,0.94,-0.84,0.77,151.67,252.69,-245.91
512,1715374720190,1.0,-0.87,0.7050000000000001,169.125,292.515,-213.41
513,1715374720200,1.06,-0.9,0.64,186.58,332.34,-180.91
514,1715374720210,1.12625,-0.9075,0.6525,186.58,332.34,-180.91
515,1715374720220,1.59,-0.96,0.74,159.85,422.79,-107.18
516,1715374720230,1.59,-0.96,0.74,159.85,422.79,-107.18
517,1715374720240,1.59,-0.96,0.74,159.85,422.79,-107.17999999999999
518,1715374720250,1.7625,-1.06125,0.8937499999999999,159.85,422.79,-107.18
519,1715374720260,2.05,-1.23,1.15,123.9,555.18,9.4
520,1715374720270,2.05,-1.23,1.15,123.9,555.18,9.4
521,1715374720280,2.05,-1.23,1.15,123.9,555.18,9.4
522,1715374720290,1.7149999999999999,-1.345,1.04,191.03250000000003,507.25124999999997,7.84375
523,1715374720300,1.3800000000000001,-1.4599999999999997,0.93,302.92,427.37,5.25
524,1715374720310,1.38,-1.46,0.93,302.92,427.37,5.25
525,1715374720320,1.38,-1.46,0.93,302.92,427.37,5.25
526,1715374720330,0.855,-1.5225,0.905,313.975,413.46875,1.8624999999999998
527,1715374720340,0.54,-1.56,0.89,391.36,316.16,-21.85
528,1715374720350,0.54,-1.56,0.89,391.36,316.16,-21.85
529,1715374720360,0.54,-1.56,0.89,391.36,316.16,-21.85
530,1715374720370,-0.15999999999999998,-1.2814285714285714,0.2757142857142857,411.40999999999997,242.66,-13.828571428571427
531,1715374720380,-0.44,-1.17,0.03,419.43,213.26,-10.62
532,1715374720390,-0.44,-1.17,0.03,419.43,213.26,-10.62
533,1715374720400,-0.44,-1.17,0.03,419.43,213.26,-10.62
534,1715374720410,-1.1257142857142857,-0.9985714285714286,-0.4414285714285714,258.76714285714286,122.48857142857142,43.57714285714286
535,1715374720420,-1.24,-0.97,-0.52,231.99,107.36,52.61
536,1715374720430,-1.24,-0.97,-0.52,231.99,107.36,52.61
537,1715374720440,-1.24,-0.97,-0.52,231.99,107.36,52.61
538,1715374720450,-1.2,-1.25,-0.63,-21.24,60.79,217.22
539,1715374720460,-1.2,-1.25,-0.63,-21.24,60.79,217.22
540,1715374720470,-1.2,-1.25,-0.63,-21.24,60.79,217.22
541,1715374720480,-1.0425,-1.3525,-0.8575,-30.349999999999998,13.944999999999999,249.9825
542,1715374720490,-0.57,-1.66,-1.5400000000000003,-57.68,-126.59,348.27
543,1715374720500,-0.57,-1.66,-1.54,-57.68,-126.59,348.27
544,1715374720510,-0.57,-1.66,-1.54,-57.68,-126.59,348.27
545,1715374720520,0.0985714285714286,-1.99,-1.4242857142857144,-39.36,-168.98285714285717,367.92285714285714
546,1715374720530,0.99,-2.43,-1.27,70.56,-423.34,485.84
547,1715374720540,0.99,-2.43,-1.27,70.56,-423.34,485.84
548,1715374720550,0.99,-2.43,-1.27,70.56,-423.34,485.84
549,1715374720560,1.3928571428571428,-2.13,-1.2357142857142858,93.23571428571428,-399.25,506.06
550,1715374720570,1.93,-1.73,-1.19,123.47,-367.13,533.02
551,1715374720580,1.93,-1.73,-1.19,123.47,-367.13,533.02
552,1715374720590,1.93,-1.73,-1.19,123.47,-367.13,533.02
553,1715374720600,1.9275,-1.755,-1.2075,118.3975,-355.26625,533.135
554,1715374720610,1.91,-1.93,-1.33,82.89,-272.22,533.94
555,1715374720620,1.91,-1.93,-1.33,82.89,-272.22,533.94
556,1715374720630,1.91,-1.93,-1.33,82.89,-272.22,533.94
557,1715374720640,1.91,-1.93,-1.33,82.89,-272.22,533.94
558,1715374720650,1.91,-1.93,-1.33,82.89,-272.22,533.94
559,1715374720660,1.91,-1.93,-1.33,82.89,-272.22,533.94
560,1715374720670,1.9449999999999998,-1.36125,-1.04125,-19.222500000000004,-180.73,491.79999999999995
561,1715374720680,1.9614285714285715,-1.697142857142857,-0.84,-78.07285714285715,-187.22571428571428,440.26571428571424
562,1715374720690,1.97,-2.01,-0.72,-111.27,-201.9,406.13
563,1715374720700,1.97,-2.01,-0.72,-111.27,-201.9,406.13
564,1715374720710,1.97,-2.01,-0.72,-111.27,-201.9,406.13
565,1715374720720,2.4328571428571424,-2.9271428571428575,-0.5742857142857144,-62.035714285714285,-232.82571428571427,437.99000000000007
566,1715374720730,2.51,-3.08,-0.55,-53.83,-237.98,443.3
567,1715374720740,2.51,-3.08,-0.55,-53.83,-237.98,443.3
568,1715374720750,2.5100000000000002,-3.0800000000000005,-0.55,-53.83,-237.98,443.3
569,1715374720760,2.51,-3.08,-0.55,-53.83,-237.98,443.3
570,1715374720770,2.5100000000000002,-3.0800000000000005,-0.55,-53.83,-237.98,443.3
571,1715374720780,2.51,-3.08,-0.55,-53.83,-237.98,443.3
572,1715374720790,3.90125,-1.58,-0.1825,-22.19625,-200.05875,413.60625
573,1715374720800,4.04,-0.41,0.23,-130.07,-66.47,240.3
574,1715374720810,4.04,-0.41,0.23,-130.07,-66.47,240.3
575,1715374720820,4.04,-0.41,0.23,-130.07,-66.47,240.3
576,1715374720830,3.44,-0.7062499999999999,0.47,-112.3775,-41.66,118.94625
577,1715374720840,2.44,-1.2,0.87,-82.89,-0.31,-83.31000000000002
578,1715374720850,2.44,-1.2,0.87,-82.89,-0.31,-83.31
579,1715374720860,2.44,-1.2,0.87,-82.89,-0.31,-83.31
580,1715374720870,1.8285714285714287,-0.9657142857142856,0.7671428571428571,-5.511428571428573,-64.34285714285714,-98.30142857142857
581,1715374720880,1.37,-0.79,0.69,97.66,-149.72,-118.29
582,1715374720890,1.37,-0.79,0.69,97.66,-149.72,-118.29
583,1715374720900,1.3699999999999999,-0.79,0.6900000000000001,97.66,-149.72,-118.29
584,1715374720910,1.47,-0.14,0.64,126.465,-129.915,-136.905
585,1715374720920,1.53,0.25,0.61,155.27,-110.11,-155.52
586,1715374720930,1.53,0.25,0.61,155.27,-110.11,-155.52
587,1715374720940,1.53,0.25,0.61,155.27,-110.11,-155.52
588,1715374720950,1.335,0.31,0.595,105.88250000000001,-83.41749999999999,-184.26749999999998
589,1715374720960,1.27,0.33,0.59,89.42,-74.52,-193.85
590,1715374720970,1.27,0.33,0.59,89.42,-74.52,-193.85
591,1715374720980,1.27,0.33,0.59,89.42,-74.52,-193.85
592,1715374720990,1.5614285714285714,0.1842857142857143,1.0614285714285714,121.28,-73.58571428571429,-265.6271428571428
593,1715374721000,1.61,0.16,1.14,126.59,-73.43,-277.59
594,1715374721010,1.61,0.16,1.14,126.59,-73.43,-277.59
595,1715374721020,1.61,0.16,1.14,126.59,-73.42999999999999,-277.59
596,1715374721030,1.9949999999999999,-0.5750000000000001,1.5250000000000001,119.16125,29.33,-347.28375
597,1715374721040,2.05,-0.68,1.58,118.1,44.01,-357.24
598,1715374721050,2.05,-0.68,1.58,118.1,44.01,-357.24000000000007
599,1715374721060,2.05,-0.68,1.58,118.1,44.01,-357.24
600,1715374721070,2.59,-1.58,1.8,166.69,197.02,-415.95
601,1715374721080,2.59,-1.58,1.8,166.69,197.02,-415.95
602,1715374721090,2.59,-1.58,1.8,166.69,197.02,-415.95
603,1715374721100,2.6087499999999997,-1.665,1.75125,175.28,201.735,-416.22499999999997
604,1715374721110,2.74,-2.26,1.41,235.41,234.74,-418.15
605,1715374721120,2.7399999999999998,-2.26,1.41,235.41,234.74,-418.15
606,1715374721130,2.74,-2.26,1.41,235.41,234.74,-418.15
607,1715374721140,2.8033333333333332,-2.313333333333333,1.4616666666666667,235.41,234.74,-418.1499999999999
608,1715374721150,3.12,-2.58,1.72,317.92249999999996,195.645,-446.19374999999997
609,1715374721160,3.12,-2.58,1.72,329.71,190.06,-450.2
610,1715374721170,3.12,-2.58,1.72,329.71,190.06,-450.2
611,1715374721180,2.9042857142857144,-2.557142857142857,1.5628571428571427,326.53714285714284,193.38285714285715,-433.5285714285714
612,1715374721190,1.61,-2.42,0.62,307.5,213.32,-333.5
613,1715374721200,1.61,-2.42,0.62,307.5,213.32,-333.5
614,1715374721210,1.61,-2.4199999999999995,0.62,307.5,213.32,-333.5
615,1715374721220,0.8150000000000001,-2.235,0.375,250.43,185.20999999999998,-242.1
616,1715374721230,0.02,-2.05,0.13,193.36,157.1,-150.7
617,1715374721240,0.02,-2.05,0.13,193.35999999999999,157.1,-150.7
618,1715374721250,0.02,-2.05,0.13,193.36,157.1,-150.7
619,1715374721260,-0.23625000000000002,-1.84375,-0.145,144.1475,158.66875000000002,-15.731249999999996
620,1715374721270,-0.39,-1.72,-0.31,114.62,159.60999999999999,65.25
621,1715374721280,-0.39,-1.72,-0.31,114.62,159.61,65.25
622,1715374721290,-0.39,-1.72,-0.31,114.62,159.61,65.25
623,1715374721300,-0.59,-1.4414285714285715,-1.01,104.16285714285713,64.00285714285715,169.70714285714286
624,1715374721310,-0.67,-1.33,-1.29,99.98,25.76,211.49
625,1715374721320,-0.67,-1.33,-1.29,99.98,25.76,211.49
626,1715374721330,-0.67,-1.33,-1.2900000000000003,99.98,25.76,211.49
627,1715374721340,-0.11,-1.32125,-0.9924999999999999,20.565,-49.86625,311.35375
628,1715374721350,-0.03,-1.32,-0.95,9.22,-60.67,325.62
629,1715374721360,-0.03,-1.32,-0.95,9.22,-60.67,325.62
630,1715374721370,-0.03,-1.32,-0.95,9.22,-60.67,325.62
631,1715374721380,0.35,-1.29,-1.09,-29.54,-83.86,393.62
632,1715374721390,0.35,-1.2900000000000003,-1.09,-29.54,-83.86,393.62
633,1715374721400,0.35,-1.29,-1.09,-29.54,-83.86,393.62
634,1715374721410,0.475,-1.2925,-1.1,-37.185,-94.5575,403.11
635,1715374721420,0.85,-1.3,-1.13,-60.12,-126.65,431.58
636,1715374721430,0.85,-1.3,-1.13,-60.12,-126.65,431.58
637,1715374721440,0.9299999999999999,-1.28,-1.045,-60.12,-126.65,431.58
638,1715374721450,1.17,-1.22,-0.79,-71.35,-163.15,412.17
639,1715374721460,1.17,-1.22,-0.79,-71.35,-163.15,412.17
640,1715374721470,1.17,-1.22,-0.79,-71.35,-163.15,412.17
641,1715374721480,1.23,-1.3075,-0.6975,-69.18249999999999,-167.7425,413.285
642,1715374721490,1.41,-1.57,-0.42,-62.68,-181.52,416.63
643,1715374721500,1.41,-1.57,-0.42,-62.68,-181.52,416.63
644,1715374721510,1.41,-1.57,-0.42,-62.68,-181.52,416.63
645,1715374721520,1.665,-1.58,-0.33999999999999997,-69.47,-170.7475,404.1625
646,1715374721530,1.92,-1.59,-0.26,-89.84,-138.43,366.76
647,1715374721540,1.92,-1.59,-0.26,-89.84,-138.43,366.76
648,1715374721550,1.92,-1.59,-0.26,-89.84,-138.43,366.75999999999993
649,1715374721560,2.18875,-2.4400000000000004,-0.31,-100.73750000000001,-138.8425,364.06
650,1715374721570,2.35,-2.95,-0.34,-118.9,-139.53,359.56
651,1715374721580,2.35,-2.95,-0.34,-118.9,-139.53,359.56
652,1715374721590,2.35,-2.95,-0.34,-118.9,-139.53,359.56
653,1715374721600,3.115,-2.095,-0.175,-76.9675,-161.685,368.9425
654,1715374721610,3.37,-1.81,-0.12,-62.99,-169.07,372.07
655,1715374721620,3.37,-1.81,-0.12,-62.99,-169.07,372.07
656,1715374721630,3.37,-1.81,-0.12,-62.99,-169.07,372.07
657,1715374721640,3.28,-0.55,0.88,-103.3625,-68.8175,188.095
658,1715374721650,3.28,-0.55,0.88,-116.82,-35.4,126.77
659,1715374721660,3.28,-0.55,0.88,-116.82000000000001,-35.4,126.77
660,1715374721670,3.28,-0.55,0.88,-116.82000000000001,-35.4,126.77
661,1715374721680,2.755,-0.935,0.8049999999999999,-75.00999999999999,73.17999999999999,16.114999999999995
662,1715374721690,2.23,-1.32,0.73,-33.2,181.76,-94.54
663,1715374721700,2.23,-1.32,0.73,-33.2,181.76,-94.54
664,1715374721710,2.1214285714285714,-1.24,0.6285714285714284,-24.830000000000002,182.53571428571428,-95.9357142857143
665,1715374721720,1.47,-0.76,0.02,25.39,187.19,-104.31
666,1715374721730,1.47,-0.76,0.02,25.39,187.19,-104.31
667,1715374721740,1.47,-0.76,0.02,25.390000000000004,187.19,-104.31000000000002
668,1715374721750,1.3725,-0.66,0.055,39.7475,150.02,-123.825
669,1715374721760,1.08,-0.36,0.16,82.82,38.51,-182.37
670,1715374721770,1.08,-0.36,0.16,82.82,38.51,-182.37
671,1715374721780,1.08,-0.36,0.16,82.82000000000001,38.51,-182.37000000000003
672,1715374721790,1.125,-0.24,0.44,105.59,13.454999999999998,-207.91500000000002
673,1715374721800,1.17,-0.12,0.72,128.36,-11.6,-233.46
674,1715374721810,1.17,-0.12,0.72,128.36,-11.6,-233.46
675,1715374721820,1.17,-0.12,0.72,128.36,-11.6,-233.46
676,1715374721830,1.2428571428571427,-0.07714285714285715,0.6085714285714285,126.21285714285715,28.94714285714286,-255.61714285714288
677,1715374721840,1.34,-0.02,0.46,123.35,83.01,-285.16
678,1715374721850,1.34,-0.02,0.46,123.35,83.01,-285.16
679,1715374721860,1.34,-0.02,0.46,123.35,83.01,-285.16
680,1715374721870,1.237142857142857,-0.27714285714285714,0.4942857142857143,159.23857142857145,46.54714285714285,-347.61999999999995
681,1715374721880,1.22,-0.32,0.5,165.22,40.47,-358.03
682,1715374721890,1.22,-0.32,0.5,165.22,40.46999999999999,-358.03000000000003
683,1715374721900,1.21625,-0.33625,0.50125,165.22,40.47,-358.03
684,1715374721910,1.19,-0.45,0.51,165.22,40.46999999999999,-358.03000000000003
685,1715374721920,1.19,-0.45,0.51,165.22,40.47,-358.03
686,1715374721930,1.19,-0.45,0.51,165.22,40.47,-358.03
687,1715374721940,1.25375,-0.47375,0.47375,165.32,61.0075,-363.66875
688,1715374721950,1.7,-0.64,0.22,138.55,164.73,-404.05
689,1715374721960,1.7,-0.64,0.22,138.55,164.73,-404.05
690,1715374721970,1.7,-0.64,0.22,138.55,164.73,-404.05
691,1715374721980,1.77875,-0.61375,0.29875,138.55,164.73,-404.05
692,1715374721990,1.91,-0.57,0.43,200.44,41.93,-338.56
693,1715374722000,1.91,-0.57,0.43,200.44,41.93,-338.56
694,1715374722010,1.91,-0.57,0.43,200.44,41.93,-338.56
695,1715374722020,1.91,-0.57,0.43,200.44,41.93,-338.56
696,1715374722030,2.3957142857142855,-0.40142857142857136,0.48142857142857143,186.78571428571428,28.31,-331.4971428571429
697,1715374722040,3.61,0.02,0.61,152.65,-5.74,-313.84
698,1715374722050,3.61,0.02,0.61,152.65,-5.74,-313.84
699,1715374722060,3.4412499999999997,-0.03,0.635,149.2,-6.835,-342.67999999999995
700,1715374722070,3.34,-0.06,0.65,145.75,-7.93,-371.52
701,1715374722080,3.34,-0.06,0.65,145.75,-7.93,-371.52
702,1715374722090,3.34,-0.06,0.65,145.75,-7.93,-371.52
703,1715374722100,1.6,-0.57,0.335,69.625,24.980000000000004,-290.175
704,1715374722110,1.02,-0.74,0.23,44.25,35.95,-263.06
705,1715374722120,1.02,-0.74,0.23,44.25,35.95,-263.06
706,1715374722130,1.02,-0.74,0.23,44.25,35.95,-263.06
707,1715374722140,-0.39,-1.26,0.25,-39.278571428571425,116.77857142857144,-143.30285714285714
708,1715374722150,-0.39,-1.26,0.25,-72.69,149.11,-95.4
709,1715374722160,-0.39,-1.26,0.25,-72.69,149.10999999999999,-95.4
710,1715374722170,-0.39,-1.26,0.25,-72.69,149.11,-95.4
711,1715374722180,-1.26,-1.97,-0.49,-6.3149999999999995,112.9,15.697499999999996
712,1715374722190,-1.26,-1.97,-0.49,15.81,100.83,52.73
713,1715374722200,-1.26,-1.97,-0.48999999999999994,15.81,100.83,52.73
714,1715374722210,-1.26,-1.97,-0.49,15.81,100.83,52.73
715,1715374722220,-1.05,-1.9849999999999999,-0.5125,66.6675,4.515,176.14999999999998
716,1715374722230,-0.98,-1.99,-0.52,83.62,-27.59,217.29
717,1715374722240,-0.9799999999999999,-1.99,-0.52,83.62,-27.59,217.29
718,1715374722250,-0.78125,-1.86625,-0.56125,83.62,-27.59,217.29
719,1715374722260,-0.45,-1.66,-0.63,40.410000000000004,-19.04,336.67
720,1715374722270,-0.45,-1.66,-0.63,40.41,-19.04,336.67
721,1715374722280,-0.45,-1.66,-0.63,40.41,-19.04,336.67
722,1715374722290,-0.25125000000000003,-1.62625,-0.555,17.092499999999998,-19.9575,360.6575
723,1715374722300,0.08,-1.57,-0.43,-52.86,-22.71,432.62
724,1715374722310,0.08,-1.57,-0.43,-52.86,-22.71,432.62
725,1715374722320,0.08,-1.57,-0.43,-52.86,-22.71,432.62
726,1715374722330,0.36571428571428566,-1.4214285714285715,-0.4014285714285714,-80.50714285714285,-14.361428571428572,446.0642857142857
727,1715374722340,0.58,-1.31,-0.38,-117.37,-3.23,463.99
728,1715374722350,0.58,-1.31,-0.38,-117.37,-3.23,463.99
729,1715374722360,0.58,-1.31,-0.38,-117.37,-3.23,463.99000000000007
730,1715374722370,0.9199999999999999,-1.7,-0.585,-135.07,-35.46,448.09000000000003
731,1715374722380,1.26,-2.09,-0.79,-152.77,-67.69,432.19
732,1715374722390,1.26,-2.09,-0.79,-152.77,-67.69,432.19
733,1715374722400,1.26,-2.09,-0.79,-152.77,-67.69,432.19
734,1715374722410,2.46,-3.275,-0.7000000000000001,-114.1375,-223.32999999999998,469.6825
735,1715374722420,2.86,-3.6699999999999995,-0.67,-101.26,-275.21,482.18
736,1715374722430,2.86,-3.67,-0.67,-101.26,-275.21,482.18
737,1715374722440,2.86,-3.67,-0.67,-101.26,-275.21,482.18
738,1715374722450,4.69,-2.79,0.15,-51.94,-178.96,488.71
739,1715374722460,4.69,-2.79,0.15,-51.94,-178.96,488.71
740,1715374722470,4.69,-2.79,0.15,-51.94,-178.96,488.71
741,1715374722480,4.62,-2.5575,0.26125,-62.47624999999999,-157.315,456.07124999999996
742,1715374722490,4.13,-0.93,1.04,-136.23,-5.8,227.6
743,1715374722500,4.13,-0.93,1.04,-136.23,-5.8,227.6
744,1715374722510,4.13,-0.93,1.04,-136.23,-5.8,227.6
745,1715374722520,3.9299999999999997,-0.95625,0.9812500000000001,-136.23,-5.8,227.6
746,1715374722530,2.53,-1.14,0.57,20.94,156.8,37.29
747,1715374722540,2.53,-1.14,0.57,20.94,156.8,37.29
748,1715374722550,2.53,-1.14,0.57,20.94,156.8,37.29
749,1715374722560,2.385,-0.8699999999999999,0.32249999999999995,21.3825,147.11,25.6325
750,1715374722570,1.95,-0.06,-0.42,22.71,118.04,-9.34
751,1715374722580,1.95,-0.06,-0.42,22.71,118.04,-9.34
752,1715374722590,1.95,-0.06,-0.42,22.71,118.04,-9.34
753,1715374722600,1.71,0.045,-0.035,11.31,99.22625000000001,-36.302499999999995
754,1715374722610,1.47,0.15,0.35,-7.69,67.87,-81.24
755,1715374722620,1.47,0.15,0.35,-7.69,67.87,-81.24
756,1715374722630,1.47,0.15,0.35,-7.69,67.87,-81.24
757,1715374722640,1.3125,0.5175000000000001,0.335,29.1125,77.9425,-110.1675
758,1715374722650,1.26,0.64,0.33,41.38,81.3,-119.81000000000002
759,1715374722660,1.26,0.64,0.33,41.38,81.3,-119.81
760,1715374722670,1.26,0.64,0.33,41.38,81.3,-119.81
761,1715374722680,1.47,0.6775,0.075,86.515,-1.9200000000000008,-222.39499999999998
762,1715374722690,1.5400000000000003,0.6900000000000001,-0.01,101.56000000000002,-29.66,-256.59
763,1715374722700,1.54,0.69,-0.01,101.56,-29.66,-256.59
764,1715374722710,1.5400000000000003,0.6900000000000001,-0.01,101.56000000000002,-29.66,-256.59
765,1715374722720,1.67125,0.0775,0.445,53.815,45.362500000000004,-300.1275
766,1715374722730,1.69,-0.01,0.51,37.9,70.37,-314.64
767,1715374722740,1.69,-0.01,0.51,37.9,70.37,-314.64
768,1715374722750,1.69,-0.01,0.51,37.9,70.37,-314.64
769,1715374722760,2.63,-0.01,0.09,3.42,170.41,-376.89
770,1715374722770,2.63,-0.01,0.09,3.42,170.41,-376.89
771,1715374722780,2.63,-0.01,0.09,3.4199999999999995,170.41,-376.89
772,1715374722790,2.735,-0.14500000000000002,0.155,3.42,170.41,-376.89
773,1715374722800,3.47,-1.09,0.61,46.2,218.08,-521.24
774,1715374722810,3.47,-1.09,0.61,46.2,218.08,-521.24
775,1715374722820,3.47,-1.09,0.61,46.2,218.08,-521.24
776,1715374722830,3.24125,-1.2175,0.62125,39.2875,258.77500000000003,-480.65250000000003
777,1715374722840,2.86,-1.43,0.64,18.55,380.86,-358.89
778,1715374722850,2.86,-1.43,0.64,18.55,380.86,-358.89
779,1715374722860,2.86,-1.43,0.64,18.55,380.86,-358.89
780,1715374722870,2.695,-1.30625,0.65125,72.4975,323.935,-359.94
781,1715374722880,2.4199999999999995,-1.1,0.67,162.41,229.06,-361.69
782,1715374722890,2.42,-1.1,0.67,162.41,229.06,-361.69
783,1715374722900,2.42,-1.1,0.67,162.41,229.06,-361.69
784,1715374722910,1.717142857142857,-1.2142857142857142,0.35000000000000003,257.55857142857144,99.80857142857143,-355.38142857142856
785,1715374722920,1.19,-1.3,0.11,328.92,2.87,-350.65
786,1715374722930,1.19,-1.3,0.11,328.92,2.87,-350.65
787,1715374722940,1.19,-1.3,0.11,328.92,2.87,-350.65
788,1715374722950,0.26,-1.33,0.035,252.81,8.09,-267.06
789,1715374722960,-0.05,-1.34,0.01,176.7,13.31,-183.47
790,1715374722970,-0.05,-1.34,0.01,176.7,13.31,-183.47
791,1715374722980,-0.05,-1.34,0.01,176.7,13.31,-183.47
792,1715374722990,-1.065,-1.7425000000000002,-0.5325,79.38,72.055,-48.615
793,1715374723000,-1.2099999999999997,-1.8,-0.61,-17.94,130.8,86.24
794,1715374723010,-1.21,-1.8,-0.61,-17.94,130.8,86.24
795,1715374723020,-1.2099999999999997,-1.8,-0.61,-17.94,130.8,86.24
796,1715374723030,-1.11375,-1.8,-1.065,-14.475000000000001,12.290000000000001,228.99624999999997
797,1715374723040,-1.1,-1.8,-1.13,-13.98,-4.64,249.39
798,1715374723050,-1.1,-1.8,-1.13,-13.98,-4.64,249.39
799,1715374723060,-0.9614285714285715,-1.82,-1.067142857142857,-13.98,-4.64,249.39000000000001
800,1715374723070,-0.13,-1.94,-0.69,-54.51,-83.62625,360.52374999999995
801,1715374723080,-0.13,-1.94,-0.69,-60.3,-94.91,376.4
802,1715374723090,-0.13,-1.94,-0.69,-60.3,-94.91,376.4
803,1715374723100,0.007142857142857133,-1.9028571428571428,-0.7214285714285714,-70.72857142857143,-95.17285714285715,393.84000000000003
804,1715374723110,0.35,-1.81,-0.8,-96.8,-95.83,437.44
805,1715374723120,0.35,-1.81,-0.8,-96.8,-95.83,437.44
806,1715374723130,0.35,-1.81,-0.8,-96.8,-95.83,437.44
807,1715374723140,0.6,-1.94,-0.515,-109.65,-143.77,445.77
808,1715374723150,0.85,-2.07,-0.23,-122.5,-191.71,454.1
809,1715374723160,0.85,-2.07,-0.23,-122.5,-191.71,454.1
810,1715374723170,0.85,-2.07,-0.23,-122.5,-191.71,454.1
811,1715374723180,1.09,-2.07,0.02500000000000001,-93.2025,-200.54500000000002,451.3225
812,1715374723190,1.33,-2.07,0.28,-5.31,-227.05,442.99
813,1715374723200,1.33,-2.07,0.28,-5.31,-227.05,442.99
814,1715374723210,1.33,-2.07,0.28,-5.31,-227.05,442.99000000000007
815,1715374723220,1.33,-2.07,0.28,-5.31,-227.05,442.99
816,1715374723230,1.4112500000000001,-2.0825,0.20500000000000002,-3.9137499999999994,-218.65,442.57125
817,1715374723240,1.98,-2.17,-0.32,5.86,-159.85,439.64
818,1715374723250,1.98,-2.17,-0.32,5.86,-159.85,439.64
819,1715374723260,2.9925,-2.11375,-0.795,-2.115,-167.325,459.815
820,1715374723270,3.6,-2.08,-1.08,-6.9,-171.81,471.92
821,1715374723280,3.6,-2.08,-1.08,-6.9,-171.81,471.92
822,1715374723290,4.52,-0.97,-0.55,-6.9,-171.81,471.92
823,1715374723300,4.52,-0.97,-0.55,-19.747500000000002,-162.96,453.32
824,1715374723310,4.52,-0.97,-0.55,-109.67999999999999,-101.01,323.12
825,1715374723320,4.42,-0.9824999999999999,-0.33125000000000004,-130.80625,-62.5275,292.145
826,1715374723330,3.72,-1.07,1.2,-278.69,206.85,75.32
827,1715374723340,3.72,-1.07,1.2,-278.69,206.85,75.32
828,1715374723350,3.72,-1.07,1.2,-278.69,206.85,75.32000000000001
829,1715374723360,3.5225,-1.045,0.8624999999999999,-212.1,217.8825,34.059999999999995
830,1715374723370,2.93,-0.97,-0.15,-12.33,250.98,-89.72
831,1715374723380,2.93,-0.97,-0.15,-12.33,250.98,-89.72
832,1715374723390,2.7800000000000002,-0.985,-0.33,10.04,215.54500000000002,-152.95499999999998
833,1715374723400,2.63,-1.0,-0.51,32.41,180.10999999999999,-216.19
834,1715374723410,2.63,-1.0,-0.51,32.41,180.11,-216.19
835,1715374723420,2.63,-1.0,-0.51,32.41,180.11,-216.19
836,1715374723430,2.2800000000000002,-0.9285714285714286,-0.16,5.945714285714286,172.48142857142858,-221.98285714285717
837,1715374723440,2.14,-0.9,-0.02,-4.64,169.43,-224.3
838,1715374723450,2.14,-0.9,-0.02,-4.64,169.43,-224.3
839,1715374723460,2.14,-0.9,-0.02,-4.64,169.43,-224.3
840,1715374723470,1.98375,-0.575,0.036250000000000004,-16.9775,182.31875000000002,-240.39125
841,1715374723480,1.89,-0.38,0.07,-37.54,203.8,-267.21
842,1715374723490,1.89,-0.38,0.07,-37.54,203.8,-267.21
843,1715374723500,1.89,-0.38,0.07,-37.54,203.8,-267.21
844,1715374723510,1.6157142857142859,-0.23428571428571426,0.08714285714285715,-13.004285714285714,183.44714285714286,-303.0728571428571
845,1715374723520,1.57,-0.21,0.09,19.71,156.31,-350.89
846,1715374723530,1.57,-0.21,0.09,19.71,156.31,-350.89
847,1715374723540,1.57,-0.21,0.09,19.71,156.31,-350.89
848,1715374723550,1.42,-0.39,-0.04,65.67,181.76,-383.0
849,1715374723560,1.42,-0.39,-0.04,65.67,181.76,-383.0
850,1715374723570,1.42,-0.38999999999999996,-0.04,65.67,181.76,-383.0
851,1715374723580,1.4324999999999999,-0.4,-0.03,70.6525,175.11499999999998,-392.59749999999997
852,1715374723590,1.52,-0.47,0.04,105.53,128.6,-459.78
853,1715374723600,1.52,-0.47000000000000003,0.04,105.53,128.6,-459.78000000000003
854,1715374723610,1.52,-0.47,0.04,105.53,128.6,-459.78
855,1715374723620,1.552857142857143,-0.5271428571428571,0.05714285714285715,105.63428571428572,131.39857142857142,-466.6771428571428
856,1715374723630,1.75,-0.87,0.16,106.26,148.19,-508.06
857,1715374723640,1.75,-0.87,0.16,106.26,148.19,-508.06
858,1715374723650,1.75,-0.87,0.16,106.26,148.19,-508.06
859,1715374723660,1.76875,-0.9337500000000001,0.1375,108.0,163.16,-514.60375
860,1715374723670,1.8,-1.04,0.1,110.9,188.11,-525.51
861,1715374723680,1.8,-1.04,0.1,110.9,188.11,-525.51
862,1715374723690,1.8,-1.04,0.1,110.9,188.10999999999999,-525.51
863,1715374723700,1.065,-1.005,-0.09999999999999999,145.29500000000002,128.145,-516.02
864,1715374723710,0.33,-0.97,-0.3,179.69,68.18,-506.53
865,1715374723720,0.33,-0.97,-0.3,179.69,68.18,-506.53000000000003
866,1715374723730,0.33,-0.97,-0.3,179.69,68.18,-506.53
867,1715374723740,-0.5925,-0.7975,0.05250000000000001,161.915,-29.7825,-417.03625
868,1715374723750,-0.9,-0.74,0.17,151.25,-88.56,-363.34
869,1715374723760,-0.9,-0.74,0.17,151.25,-88.56000000000002,-363.34
870,1715374723770,-0.9,-0.74,0.17,151.25,-88.56,-363.34
871,1715374723780,-1.4775,-1.09875,0.42375,2.6749999999999994,30.851249999999997,-60.957499999999996
872,1715374723790,-1.56,-1.15,0.46,-18.55,47.910000000000004,-17.76
873,1715374723800,-1.56,-1.15,0.46,-18.55,47.91,-17.76
874,1715374723810,-1.56,-1.15,0.46,-18.55,47.91,-17.76
875,1715374723820,-1.18,-1.77,-0.43,-43.15,53.96,367.13
876,1715374723830,-1.18,-1.77,-0.43,-43.15,53.96,367.13
877,1715374723840,-1.18,-1.77,-0.43,-43.15,53.96,367.13
878,1715374723850,-0.72,-1.8975,-0.43,-52.9775,32.3375,427.08
879,1715374723860,0.66,-2.28,-0.43,-82.46,-32.53,606.93
880,1715374723870,0.66,-2.28,-0.43,-82.46,-32.53,606.93
881,1715374723880,0.66,-2.28,-0.43,-82.46,-32.53,606.93
882,1715374723890,0.8642857142857142,-2.2928571428571423,-0.38,-89.32142857142857,-31.641428571428573,617.5857142857142
883,1715374723900,2.09,-2.37,-0.08,-130.49,-26.31,681.52
884,1715374723910,2.09,-2.37,-0.08,-130.49,-26.31,681.52
885,1715374723920,2.09,-2.37,-0.08,-130.49,-26.31,681.5199999999999
886,1715374723930,2.01875,-2.23875,-0.0725,-154.89125,-29.60625,656.48125
887,1715374723940,1.9,-2.02,-0.06,-195.56,-35.1,614.75
888,1715374723950,1.9,-2.02,-0.06,-195.56,-35.1,614.75
889,1715374723960,1.9,-2.02,-0.06,-195.56,-35.1,614.75
890,1715374723970,1.9,-2.065714285714286,-0.15714285714285717,-151.3014285714286,-88.4357142857143,578.7285714285715
891,1715374723980,1.9,-2.1,-0.23,-92.29,-159.55,530.7
892,1715374723990,1.9,-2.1,-0.23,-92.29,-159.55,530.7
893,1715374724000,1.9,-2.1,-0.23,-92.29,-159.55,530.7
894,1715374724010,1.9812499999999997,-1.88125,-0.31125,-11.510000000000005,-209.415,499.725
895,1715374724020,2.03,-1.75,-0.36,69.27,-259.28,468.75
896,1715374724030,2.03,-1.75,-0.36,69.27,-259.28,468.75
897,1715374724040,2.03,-1.75,-0.36,69.27,-259.28,468.75
898,1715374724050,2.03875,-1.75,-0.59625,139.92625,-292.06624999999997,469.17875000000004
899,1715374724060,2.04,-1.75,-0.63,150.02,-296.75,469.24000000000007
900,1715374724070,2.04,-1.75,-0.63,150.02,-296.75,469.24
901,1715374724080,2.04,-1.75,-0.63,150.02,-296.75,469.24
902,1715374724090,2.4375,-1.72,-0.4425,93.125,-234.4025,428.545
903,1715374724100,2.57,-1.7099999999999997,-0.38,74.16,-213.62000000000003,414.98
904,1715374724110,2.57,-1.71,-0.38,74.16,-213.62,414.98
905,1715374724120,2.52,-1.6325,-0.2675,51.53125,-186.9475,395.08250000000004
906,1715374724130,2.17,-1.09,0.52,-106.87,-0.24,255.8
907,1715374724140,2.17,-1.09,0.52,-106.87,-0.24,255.80000000000004
908,1715374724150,2.17,-1.09,0.52,-106.87,-0.24,255.8
909,1715374724160,2.1375,-1.225,0.5375,-112.44,39.065,203.95000000000002
910,1715374724170,2.04,-1.63,0.59,-129.15,156.98,48.4
911,1715374724180,2.04,-1.63,0.59,-129.15,156.98,48.4
912,1715374724190,2.04,-1.6300000000000001,0.59,-129.15,156.98,48.4
913,1715374724200,2.115,-1.64875,0.52625,-124.2525,194.54,14.7775
914,1715374724210,2.24,-1.68,0.42,-116.09,257.14,-41.26
915,1715374724220,2.24,-1.68,0.42,-116.09,257.14,-41.26
916,1715374724230,2.24,-1.68,0.42,-116.09,257.14,-41.26
917,1715374724240,2.165,-1.56,0.285,-116.25750000000001,280.135,-62.24
918,1715374724250,2.09,-1.44,0.15,-116.76,349.12,-125.17999999999999
919,1715374724260,2.09,-1.44,0.15,-116.76,349.12,-125.18
920,1715374724270,2.09,-1.44,0.15,-116.76,349.12,-125.18
921,1715374724280,1.6400000000000001,-1.1185714285714285,-0.2857142857142857,-67.86285714285715,314.7314285714286,-140.28285714285715
922,1715374724290,1.46,-0.99,-0.46,-31.19,288.94,-151.61
923,1715374724300,1.46,-0.99,-0.46,-31.19,288.94,-151.61
924,1715374724310,1.46,-0.99,-0.46,-31.19,288.94,-151.61
925,1715374724320,1.3571428571428572,-0.46714285714285714,-0.19428571428571426,4.524285714285713,185.67142857142858,-180.69571428571427
926,1715374724330,1.34,-0.38,-0.15,31.31,108.22,-202.51
927,1715374724340,1.34,-0.38,-0.15,31.31,108.22,-202.51
928,1715374724350,1.34,-0.38,-0.15,31.31,108.22,-202.51
929,1715374724360,1.1824999999999999,-0.1875,0.03375,27.303749999999997,117.02625,-229.97875
930,1715374724370,1.16,-0.16,0.06,24.9,122.31000000000002,-246.46
931,1715374724380,1.16,-0.16,0.06,24.9,122.31,-246.46
932,1715374724390,1.16,-0.16,0.06,24.9,122.31,-246.46
933,1715374724400,0.8771428571428571,-0.10857142857142857,-0.12,51.32142857142857,135.73857142857145,-270.31
934,1715374724410,0.83,-0.1,-0.15,61.89,141.11,-279.85
935,1715374724420,0.83,-0.1,-0.15,61.89,141.11,-279.85
936,1715374724430,0.83,-0.1,-0.15,61.89,141.11,-279.85
937,1715374724440,0.52,-0.27,-0.18,66.79875,122.1575,-298.8025
938,1715374724450,0.52,-0.27,-0.18,67.5,119.45,-301.51
939,1715374724460,0.52,-0.27,-0.18,67.5,119.45,-301.51
940,1715374724470,0.47500000000000003,-0.2925,-0.13749999999999998,67.5,119.45,-301.51
941,1715374724480,0.34,-0.36,-0.01,83.11428571428571,95.60000000000001,-298.9814285714286
942,1715374724490,0.34,-0.36,-0.01,89.36,86.06,-297.97
943,1715374724500,0.34,-0.36,-0.01,89.36,86.06000000000002,-297.96999999999997
944,1715374724510,0.28375,-0.37124999999999997,0.0125,89.36,86.06,-297.97
945,1715374724520,0.19,-0.39,0.05,93.66625,85.60375,-292.17625
946,1715374724530,0.19,-0.39,0.05,96.25,85.33,-288.7
947,1715374724540,0.19,-0.39,0.05,96.25,85.33,-288.7
948,1715374724550,-0.024999999999999994,-0.505,-0.135,96.16,73.215,-267.425
949,1715374724560,-0.24,-0.62,-0.32,96.07,61.1,-246.15
950,1715374724570,-0.24,-0.62,-0.32,96.07000000000001,61.1,-246.15
951,1715374724580,-0.24,-0.62,-0.32,96.07,61.1,-246.15
952,1715374724590,-0.24,-0.62,-0.32,96.07,61.1,-246.15
953,1715374724600,-0.06,-0.8171428571428571,-0.5685714285714286,115.16714285714285,-208.74571428571429,-71.42142857142856
954,1715374724610,-0.03,-0.85,-0.61,118.35,-253.72,-42.3
955,1715374724620,1.095,-0.71875,0.02749999999999999,115.03125,-401.46375,46.699999999999996
956,1715374724630,1.77,-0.64,0.41,113.04,-490.11,100.1
957,1715374724640,1.77,-0.64,0.41,113.04,-490.11,100.1
958,1715374724650,1.77,-0.64,0.41,113.04,-490.11,100.1
959,1715374724660,2.1271428571428572,-0.33285714285714285,1.167142857142857,136.36142857142858,-277.05285714285714,47.47857142857142
960,1715374724670,2.27,-0.21,1.47,145.69,-191.83,26.43
961,1715374724680,2.27,-0.21,1.47,145.69,-191.83,26.43
962,1715374724690,2.27,-0.21,1.47,145.69,-191.83,26.43
963,1715374724700,1.25,-1.14,0.19,-21.41,168.25571428571428,58.91571428571428
964,1715374724710,1.25,-1.14,0.19,-49.26,228.27,64.33
965,1715374724720,1.25,-1.14,0.19,-49.26,228.27,64.33
966,1715374724730,1.25,-1.14,0.19,-49.26,228.27,64.33
967,1715374724740,1.03,-1.05,-0.13,3.48,104.8,174.68
968,1715374724750,1.03,-1.05,-0.13,3.48,104.8,174.68
969,1715374724760,1.03,-1.05,-0.13,3.48,104.8,174.68
970,1715374724770,1.052857142857143,-0.97,-0.09571428571428572,21.231428571428573,78.67714285714285,182.38857142857142
971,1715374724780,1.11,-0.77,-0.01,65.61,13.37,201.66
972,1715374724790,1.11,-0.7700000000000001,-0.01,65.61,13.37,201.66
973,1715374724800,1.11,-0.77,-0.01,65.61,13.37,201.66
974,1715374724810,1.0575,-0.635,-0.05125,65.61,13.37,201.66
975,1715374724820,0.97,-0.41,-0.12,118.35000000000001,-5.101428571428571,181.09714285714284
976,1715374724830,0.97,-0.41,-0.12,127.14,-8.18,177.67
977,1715374724840,0.97,-0.41,-0.12,127.14,-8.18,177.67
978,1715374724850,0.895,-0.2975,-0.27,143.23375,-20.96125,163.21375
979,1715374724860,0.85,-0.23,-0.36,152.89000000000001,-28.63,154.54
980,1715374724870,0.85,-0.23,-0.36,152.89,-28.63,154.54
981,1715374724880,0.85,-0.23,-0.36,152.89,-28.63,154.54
982,1715374724890,0.7571428571428571,-0.08,-0.51,148.01142857142855,-42.10142857142858,137.36142857142858
983,1715374724900,0.72,-0.02,-0.57,146.06,-47.49,130.49
984,1715374724910,0.72,-0.02,-0.57,146.06,-47.49,130.49
985,1715374724920,0.72,-0.02,-0.57,146.06,-47.49,130.49
986,1715374724930,0.645,0.1,-0.585,59.585,-1.6200000000000006,102.845
987,1715374724940,0.62,0.14,-0.59,30.76,13.67,93.63
988,1715374724950,0.62,0.14,-0.59,30.76,13.67,93.63
989,1715374724960,0.62,0.14,-0.59,30.76,13.67,93.63
990,1715374724970,0.58,-0.24,-0.48999999999999994,-129.48285714285714,88.64428571428572,46.70142857142857
991,1715374724980,0.58,-0.24,-0.49,-156.19,101.14,38.88
992,1715374724990,0.58,-0.24,-0.49,-156.19,101.14,38.88
993,1715374725000,0.5862499999999999,-0.365,-0.475,-156.19,101.14,38.88
994,1715374725010,0.63,-1.24,-0.37,-236.9757142857143,94.86142857142856,32.60142857142857
995,1715374725020,0.63,-1.24,-0.37,-269.29,92.35,30.09
996,1715374725030,0.63,-1.24,-0.37,-269.29,92.35,30.09
997,1715374725040,0.6757142857142858,-1.31,-0.30428571428571427,-274.3557142857143,87.48428571428572,40.62285714285714
998,1715374725050,0.95,-1.73,0.09,-304.75,58.29,103.82
999,1715374725060,0.95,-1.73,0.09,-304.75,58.29,103.82
1000,1715374725070,0.9499999999999998,-1.7299999999999998,0.09000000000000001,-304.75,58.29,103.82
