id,timestamp,acc_x,acc_y,acc_z,gyro_x,gyro_y,gyro_z
0,2024-05-15 22:10:20.902072,-0.6570326,0.28554696,0.74586946,0.00030543262,0.119729586,0.047418416
1,2024-05-15 22:10:20.917657,-0.6550802,0.3104408,0.80712783,0.05100725,0.15515977,0.12560916
2,2024-05-15 22:10:20.933851,-0.6550802,0.3104408,0.80712783,0.05100725,0.15515977,0.12560916
3,2024-05-15 22:10:20.955743,-0.6550802,0.3104408,0.80712783,0.05100725,0.15515977,0.12560916
4,2024-05-15 22:10:20.971702,-0.6550802,0.3104408,0.80712783,0.05100725,0.15515977,0.12560916
5,2024-05-15 22:10:20.990541,-1.594243,0.9652769,0.8859584,0.5561928,0.24801129,1.1909581
6,2024-05-15 22:10:21.004941,-1.7218848,1.0504528,0.8261643,0.6771441,0.40011674,1.9924134
7,2024-05-15 22:10:21.021874,-1.4978098,1.1812676,0.7490422,0.66859204,0.6658431,2.5873961
8,2024-05-15 22:10:21.037868,-1.555926,1.3201362,0.9889505,0.9251554,1.1594223,2.6252697
9,2024-05-15 22:10:21.054642,-1.7038248,1.4521711,1.1329442,1.2525792,1.5149459,2.782873
10,2024-05-15 22:10:21.071415,-2.0474572,1.5852128,1.3391726,1.7168368,2.4733934,3.7327685
11,2024-05-15 22:10:21.088114,-1.8983383,1.3137907,2.2588108,2.7076602,4.192368,5.1872387
12,2024-05-15 22:10:21.105145,-1.7704523,1.208602,2.551954,3.4736853,4.932126,5.498169
13,2024-05-15 22:10:21.120920,-1.6367089,1.0912105,2.7057102,4.4638977,5.6865444,5.752289
14,2024-05-15 22:10:21.138075,-1.5551938,0.9948079,2.4867604,5.58117,6.073222,5.961205
15,2024-05-15 22:10:21.155465,-1.5803317,0.85398686,1.7140751,5.0118437,4.5136833,7.066871
16,2024-05-15 22:10:21.171146,-1.1693088,0.7192672,2.3247063,4.74795,5.032919,7.483481
17,2024-05-15 22:10:21.187501,-1.1214736,0.6560564,2.5153456,4.796819,5.3145275,7.661854
18,2024-05-15 22:10:21.204842,-1.0355655,0.5799105,2.6532378,4.997794,5.58453,7.981947
19,2024-05-15 22:10:21.221370,-1.0941391,0.62847793,2.2270834,4.3056836,4.0237694,7.8212895
20,2024-05-15 22:10:21.237710,-1.4658383,0.48396555,1.8136505,2.9416215,0.6591236,7.6765146
21,2024-05-15 22:10:21.254213,-1.4985726,0.43759465,1.7885126,2.8487701,0.17287487,7.6722383
22,2024-05-15 22:10:21.271383,-1.5835044,0.183287,1.6001004,3.8084393,-0.9932669,7.3686385
23,2024-05-15 22:10:21.287892,-1.568861,-0.0014643435,0.6165191,4.3258424,-0.82833326,6.952639
24,2024-05-15 22:10:21.304723,-1.5295677,-0.061502427,0.25333142,4.105931,-0.7800749,6.6972976
25,2024-05-15 22:10:21.321052,-1.44729,-0.16742326,-0.26406994,2.953228,-0.73975784,6.051613
26,2024-05-15 22:10:21.337567,-1.4226402,-0.24405725,-0.39878955,2.3173172,-0.8765916,5.8762946
27,2024-05-15 22:10:21.354352,-1.4777972,-0.52572984,-0.31483385,1.5861117,-1.0885619,5.6783743
28,2024-05-15 22:10:21.371332,-1.1678444,-0.92378724,-0.19451363,2.2947154,-0.7892379,5.7583976
29,2024-05-15 22:10:21.387584,-0.92183477,-1.0599711,-0.2757847,3.10289,-0.13805555,5.5635314
30,2024-05-15 22:10:21.404642,-0.5411054,-1.1309918,-1.0153086,3.6801577,0.87781334,5.0113096
31,2024-05-15 22:10:21.421304,-0.38487828,-1.2913374,-1.4162947,2.2727242,0.52473325,4.473137
32,2024-05-15 22:10:21.437918,-0.13276714,-1.526151,-1.2539966,1.171945,-0.55771995,4.3613486
33,2024-05-15 22:10:21.454504,0.2403964,-1.854408,-1.0719299,1.0326678,-0.5815437,4.2220716
34,2024-05-15 22:10:21.471293,0.2403964,-1.854408,-1.0719299,1.2220359,-0.20463985,4.056527
35,2024-05-15 22:10:21.487933,0.2403964,-1.854408,-1.0719299,1.2220359,-0.20463985,4.056527
36,2024-05-15 22:10:21.504610,0.2403964,-1.854408,-1.0719299,1.2220359,-0.20463985,4.056527
37,2024-05-15 22:10:21.522192,0.2403964,-1.854408,-1.0719299,1.2220359,-0.20463985,4.056527
38,2024-05-15 22:10:21.537826,0.2403964,-1.854408,-1.0719299,1.2220359,-0.20463985,4.056527
39,2024-05-15 22:10:21.554714,1.3545482,-2.217077,-1.4375277,0.6960809,2.0818288,2.1103103
40,2024-05-15 22:10:21.571265,1.3545482,-2.217077,-1.4375277,0.6960809,2.0818288,2.1103103
41,2024-05-15 22:10:21.587960,1.3545482,-2.217077,-1.4375277,0.6960809,2.0818288,2.1103103
42,2024-05-15 22:10:21.605632,1.9378756,-2.0948043,-0.19622204,2.2153027,3.2070425,-1.972713
43,2024-05-15 22:10:21.620699,1.7279862,-2.045749,-0.21818718,2.591596,3.1172454,-2.389323
44,2024-05-15 22:10:21.637392,1.3718762,-1.8919927,-0.45785138,3.0546317,2.1520782,-3.5463018
45,2024-05-15 22:10:21.654495,1.2371567,-1.8658786,-0.46883395,3.0411925,1.8735237,-3.844404
46,2024-05-15 22:10:21.671254,0.88205343,-1.7289624,-0.44564855,3.174972,1.4654657,-4.2451315
47,2024-05-15 22:10:21.687911,0.6645984,-1.5905821,-0.5640468,3.5482109,1.6340646,-4.661131
48,2024-05-15 22:10:21.704216,0.5530642,-1.5429909,-0.5960183,3.6270125,1.8063285,-4.7747517
49,2024-05-15 22:10:21.721257,0.16815543,-1.417515,-0.7849186,3.8029416,2.031127,-4.7851367
50,2024-05-15 22:10:21.737879,-0.099575356,-1.2564372,-1.084865,3.4449747,1.8338175,-4.6079855
51,2024-05-15 22:10:21.754566,-0.15302388,-1.1571059,-1.1812676,3.0185907,1.6756034,-4.56889
52,2024-05-15 22:10:21.771121,-0.25333142,-1.0306844,-1.0663166,2.1927009,1.3640621,-4.796743
53,2024-05-15 22:10:21.787362,-0.38805103,-0.94160336,-0.867654,1.9544634,1.3866642,-5.055139
54,2024-05-15 22:10:21.804526,-0.53671235,-0.8901073,-0.66996765,2.032654,1.5112807,-5.0985103
55,2024-05-15 22:10:21.821725,-0.71096927,-0.87204707,-0.5613622,2.3032675,1.8118263,-5.1376057
56,2024-05-15 22:10:21.838847,-0.82323563,-0.8478854,-0.62725765,2.4303274,1.7513506,-5.1528773
57,2024-05-15 22:10:21.854031,-0.9159773,-0.846421,-0.62994224,2.3283129,1.5992452,-5.25367
58,2024-05-15 22:10:21.871190,-1.1568618,-0.8117649,-0.5782021,1.9868392,1.03786,-5.5212293
59,2024-05-15 22:10:21.887410,-1.233984,-0.78955567,-0.5552608,1.8799378,0.816116,-5.6183567
60,2024-05-15 22:10:21.904511,-1.2991472,-0.68705165,-0.47127452,1.6197093,0.13683382,-6.0056453
61,2024-05-15 22:10:21.921724,-1.3596735,-0.62750167,-0.36340126,1.4559973,-0.20891592,-6.5346546
62,2024-05-15 22:10:21.937290,-1.9261607,-0.5054731,-0.22624107,1.575116,-0.34208453,-6.663547
63,2024-05-15 22:10:21.954152,-1.9776568,-0.5125507,-0.30287504,1.5653422,-0.48075095,-6.6989775
64,2024-05-15 22:10:21.972071,-2.0982213,-0.3431445,-0.2545517,1.5922203,-0.7733554,-7.2725797
65,2024-05-15 22:10:21.987786,-2.3610709,-0.22746135,-0.2933568,1.6905695,-1.0409144,-7.8981056
66,2024-05-15 22:10:22.004439,-2.6715422,-0.099087246,-0.24064046,1.8603901,-0.9615019,-7.7405024
67,2024-05-15 22:10:22.020590,-3.0359197,0.6045603,-0.24625377,2.3386977,-0.56199604,-7.29396
68,2024-05-15 22:10:22.037788,-3.199438,1.0790076,-0.33411437,2.6477954,-0.24373524,-6.8089333
69,2024-05-15 22:10:22.054447,-3.2023666,1.5581225,-0.7065762,2.7382035,0.122783914,-5.861481
70,2024-05-15 22:10:22.071080,-2.8084583,2.2448997,-1.1263547,0.9990701,-0.625526,-5.436319
71,2024-05-15 22:10:22.087409,-2.9949179,2.726699,-0.71853507,-1.2544118,-1.2315043,-5.221905
72,2024-05-15 22:10:22.104401,-2.9949179,2.726699,-0.71853507,-1.2544118,-1.2315043,-5.221905
73,2024-05-15 22:10:22.121057,-2.9949179,2.726699,-0.71853507,-1.2544118,-1.2315043,-5.221905
74,2024-05-15 22:10:22.137723,-2.9949179,2.726699,-0.71853507,-1.2544118,-1.2315043,-5.221905
75,2024-05-15 22:10:22.154394,-2.9949179,2.726699,-0.71853507,-1.2544118,-1.2315043,-5.221905
76,2024-05-15 22:10:22.172075,-2.9949179,2.726699,-0.71853507,-1.2544118,-1.2315043,-5.221905
77,2024-05-15 22:10:22.187701,-2.9949179,2.726699,-0.71853507,-1.2544118,-1.2315043,-5.221905
78,2024-05-15 22:10:22.204450,-2.9949179,2.726699,-0.71853507,-1.2544118,-1.2315043,-5.221905
79,2024-05-15 22:10:22.221030,-2.9949179,2.726699,-0.71853507,-1.2544118,-1.2315043,-5.221905
80,2024-05-15 22:10:22.237718,-2.9949179,2.726699,-0.71853507,-1.2544118,-1.2315043,-5.221905
81,2024-05-15 22:10:22.253848,-2.9949179,2.726699,-0.71853507,-1.2544118,-1.2315043,-5.221905
82,2024-05-15 22:10:22.270534,-1.8475745,2.1040785,-0.11031388,-0.54275376,-2.3218987,4.5519385
83,2024-05-15 22:10:22.287284,-1.9456855,1.9932766,-0.19060871,-0.6246097,-2.5057693,4.866534
84,2024-05-15 22:10:22.304092,-1.935923,1.8487947,-0.3943965,-0.5543602,-2.474615,5.671044
85,2024-05-15 22:10:22.320943,-1.8361037,1.7699642,-0.62042403,-0.68569624,-1.9095647,6.0589433
86,2024-05-15 22:10:22.337138,-1.6545252,1.55617,-0.8637491,-1.4016303,-2.05434,6.4334035
87,2024-05-15 22:10:22.354042,-1.6545252,1.55617,-0.8637491,-1.6062702,-2.080607,6.4419556
88,2024-05-15 22:10:22.370988,-1.3474706,1.3545482,-0.5879644,-1.6215417,-2.0610592,6.354602
89,2024-05-15 22:10:22.388839,-1.1761423,1.0238507,-0.45980385,-1.4877623,-2.1691825,6.472499
90,2024-05-15 22:10:22.404343,-1.1466115,0.93501383,-0.3287451,-1.4553864,-2.0665572,6.5451922
91,2024-05-15 22:10:22.421009,-1.1004846,0.90182203,-0.26553428,-1.3735305,-1.8674151,6.5739026
92,2024-05-15 22:10:22.437588,-1.1207414,0.6440976,0.027334413,-0.8695667,-1.4947872,6.307565
93,2024-05-15 22:10:22.454313,-1.1370933,0.49128726,0.09127741,-0.55863625,-1.5845845,6.1792836
94,2024-05-15 22:10:22.470950,-1.0624117,0.32801294,0.13716017,-0.38759398,-1.6658295,6.059554
95,2024-05-15 22:10:22.487108,-1.3606497,0.08371163,0.15277983,0.36254853,-1.3316863,5.719913
96,2024-05-15 22:10:22.504297,-1.4297179,-0.078830495,0.12202863,0.6765333,-0.94806284,5.983196
97,2024-05-15 22:10:22.520745,-1.1163484,-0.3328941,0.106164895,1.0546589,-0.5112942,6.2202115
98,2024-05-15 22:10:22.537529,-0.8918157,-0.44394013,0.049299564,1.1139128,-0.52595496,6.119419
99,2024-05-15 22:10:22.554300,-0.44052333,-0.66020536,0.034900185,1.0015136,-0.7415904,5.581247
100,2024-05-15 22:10:22.571875,0.00073217176,-0.78979975,0.26992732,1.0558805,-0.47525316,4.550717
101,2024-05-15 22:10:22.587042,-0.0021965152,-0.8564274,0.3141017,1.2006557,-0.38728857,4.05164
102,2024-05-15 22:10:22.604116,-0.3482697,-1.0736383,0.21843125,1.325883,-0.9639453,3.5372915
103,2024-05-15 22:10:22.620815,-0.30897647,-1.0814482,0.12056428,1.2318097,-1.6071864,3.8060722
104,2024-05-15 22:10:22.637638,-0.11006982,-1.0541137,0.01952458,1.1633929,-1.6566665,3.8366156
105,2024-05-15 22:10:22.654266,0.0024405725,-0.99309945,-0.07858644,0.88789266,-1.6371188,3.4328337
106,2024-05-15 22:10:22.670913,0.079562664,-1.0175052,-0.10201593,0.7724391,-1.6664404,3.1823788
107,2024-05-15 22:10:22.687577,0.21452633,-1.05509,-0.17596528,0.86406887,-1.505172,2.9129872
108,2024-05-15 22:10:22.706112,0.30336314,-1.0089632,-0.4600479,0.91354895,-1.0409144,2.6350436
109,2024-05-15 22:10:22.721417,0.39244407,-0.94502014,-0.530855,0.505491,-0.59986967,2.5098162
110,2024-05-15 22:10:22.737530,0.464685,-0.9396509,-0.5018122,0.17012598,-0.5119051,2.4126887
111,2024-05-15 22:10:22.754187,0.464685,-0.9396509,-0.5018122,0.17012598,-0.5119051,2.4126887
112,2024-05-15 22:10:22.770839,0.464685,-0.9396509,-0.5018122,0.17012598,-0.5119051,2.4126887
113,2024-05-15 22:10:22.787524,0.464685,-0.9396509,-0.5018122,0.17012598,-0.5119051,2.4126887
114,2024-05-15 22:10:22.804159,0.464685,-0.9396509,-0.5018122,0.17012598,-0.5119051,2.4126887
115,2024-05-15 22:10:22.821751,0.464685,-0.9396509,-0.5018122,0.17012598,-0.5119051,2.4126887
116,2024-05-15 22:10:22.854266,0.464685,-0.9396509,-0.5018122,0.17012598,-0.5119051,2.4126887
117,2024-05-15 22:10:22.874003,0.70535594,-1.1937145,-0.09445015,-0.7583892,-1.1203269,1.7706692
118,2024-05-15 22:10:22.887882,1.3291663,-1.8788137,-0.5281704,-0.106595986,-0.6041457,1.3070226
119,2024-05-15 22:10:22.903510,1.5820401,-2.3923101,-0.8107887,0.22082779,-0.12767084,1.2025646
120,2024-05-15 22:10:22.922136,1.8907725,-2.6005213,-1.0319046,-0.063224554,0.23701571,1.10055
121,2024-05-15 22:10:22.938122,2.2351372,-2.7362173,-0.99139106,-0.42363504,0.4196644,0.82016295
122,2024-05-15 22:10:22.953719,2.5338938,-2.8821635,-0.053204484,0.7492262,1.1814134,-1.7497472
123,2024-05-15 22:10:22.970419,2.2702816,-2.8074822,-0.053204484,2.1566598,1.5008959,-3.0172925
124,2024-05-15 22:10:22.987099,1.6850322,-2.6200461,-0.5291466,3.5133915,1.1997393,-4.430224
125,2024-05-15 22:10:23.002941,0.9267159,-2.408662,-1.0087191,3.6960402,0.2938262,-5.4320426
126,2024-05-15 22:10:23.021848,0.6082212,-2.2258632,-1.2801107,3.3405166,-0.093462385,-5.779625
127,2024-05-15 22:10:23.037422,0.0690682,-1.8819865,-1.2774261,2.3197608,-0.045814894,-6.2133393
128,2024-05-15 22:10:23.054131,-0.4127008,-1.5866772,-0.8923038,2.4627032,0.5687156,-6.169968
129,2024-05-15 22:10:23.070739,-0.556237,-1.4829224,-0.8556952,2.9886582,1.0677924,-5.9677715
130,2024-05-15 22:10:23.086952,-0.7768647,-1.2078698,-1.1541772,3.6783252,2.112372,-5.5639896
131,2024-05-15 22:10:23.104085,-0.9047507,-1.0685132,-1.2666876,3.5573738,2.5589144,-5.221905
132,2024-05-15 22:10:23.120761,-1.2073817,-0.5747853,-1.4187354,2.9825497,2.2204952,-4.9299116
133,2024-05-15 22:10:23.137432,-1.1468556,-0.5027884,-1.4084848,2.631913,2.0622811,-4.9354095
134,2024-05-15 22:10:23.154092,-1.0004212,-0.39805737,-1.2200727,1.9850066,2.2510383,-5.0203195
135,2024-05-15 22:10:23.171891,-0.92037046,-0.41587353,-1.1048776,1.6856827,2.565634,-5.1388273
136,2024-05-15 22:10:23.187411,-0.79736555,-0.4595598,-0.79468095,1.6612481,2.637716,-5.204801
137,2024-05-15 22:10:23.204059,-0.6492228,-0.5411054,-0.4702983,1.8017471,2.7366762,-5.4473143
138,2024-05-15 22:10:23.220717,-0.64605004,-0.5515999,-0.43515408,1.8603901,2.770274,-5.5322247
139,2024-05-15 22:10:23.237396,-0.6760691,-0.6145667,-0.15741692,2.4034493,2.9895744,-5.9525
140,2024-05-15 22:10:23.254079,-0.78125775,-0.49397188,-0.099819414,2.6416867,2.8118126,-6.160805
141,2024-05-15 22:10:23.270549,-0.97601545,-0.5469628,-0.071020655,2.7687466,2.4623978,-6.3538384
142,2024-05-15 22:10:23.287366,-1.0902342,-0.56892794,-0.14204131,2.803566,1.72264,-6.914613
143,2024-05-15 22:10:23.304042,-1.3850554,-0.5833273,-0.31141704,2.2275202,0.43493605,-7.9097123
144,2024-05-15 22:10:23.320295,-2.1548424,-0.5140151,-0.073217176,1.7858646,-0.589485,-8.801576
145,2024-05-15 22:10:23.337025,-2.6503093,-0.5723447,0.010982576,2.849381,-0.3463606,-8.384355
146,2024-05-15 22:10:23.354046,-2.6083314,-0.6318947,-0.12837411,3.6141841,0.27183503,-7.9860706
147,2024-05-15 22:10:23.370694,-2.1968203,-0.75221497,-0.83104545,4.4119744,0.89858276,-7.842517
148,2024-05-15 22:10:23.387341,-2.2214699,-0.7317141,-1.3240411,4.122424,0.33964106,-8.5132475
149,2024-05-15 22:10:23.404313,-2.2214699,-0.7317141,-1.3240411,4.122424,0.33964106,-8.5132475
150,2024-05-15 22:10:23.420111,-2.2214699,-0.7317141,-1.3240411,4.122424,0.33964106,-8.5132475
151,2024-05-15 22:10:23.436782,-2.2214699,-0.7317141,-1.3240411,4.122424,0.33964106,-8.5132475
152,2024-05-15 22:10:23.453438,-2.2214699,-0.7317141,-1.3240411,4.122424,0.33964106,-8.5132475
153,2024-05-15 22:10:23.470933,-2.2214699,-0.7317141,-1.3240411,4.122424,0.33964106,-8.5132475
154,2024-05-15 22:10:23.486556,-2.2214699,-0.7317141,-1.3240411,4.122424,0.33964106,-8.5132475
155,2024-05-15 22:10:23.503430,-2.2214699,-0.7317141,-1.3240411,4.122424,0.33964106,-8.5132475
156,2024-05-15 22:10:23.520086,-2.2214699,-0.7317141,-1.3240411,4.122424,0.33964106,-8.5132475
157,2024-05-15 22:10:23.536731,-2.2214699,-0.7317141,-1.3240411,4.122424,0.33964106,-8.5132475
158,2024-05-15 22:10:23.553358,-3.311216,2.251245,0.37072295,-0.37415496,0.093462385,0.74746996
159,2024-05-15 22:10:23.570066,-2.8511682,2.115549,0.2689511,-1.2318097,-0.77518797,1.404761
160,2024-05-15 22:10:23.586728,-2.849948,2.0437965,0.3321619,-1.4975362,-1.3090842,1.5727489
161,2024-05-15 22:10:23.603404,-2.9985788,1.9447093,0.61822754,-1.5409076,-1.700038,1.9527072
162,2024-05-15 22:10:23.619982,-2.9985788,1.9447093,0.61822754,-1.284955,-1.8399261,2.5085945
163,2024-05-15 22:10:23.636713,-2.9917452,1.782411,0.33777523,-0.46273044,-1.5082263,4.16465
164,2024-05-15 22:10:23.653369,-3.0010195,1.5615393,-0.11031388,-0.83658,-1.8625281,5.0100875
165,2024-05-15 22:10:23.670049,-3.0991304,1.2744975,-0.034900185,-1.2293663,-2.3817637,5.824371
166,2024-05-15 22:10:23.686705,-3.2092004,1.0970678,0.07443746,-1.1114693,-2.4098635,6.2935157
167,2024-05-15 22:10:23.703352,-3.2450767,0.84398043,-0.08908089,-0.795652,-2.6303856,7.154225
168,2024-05-15 22:10:23.720029,-3.118899,0.63604367,-0.19597797,-0.8481864,-2.7592783,7.820068
169,2024-05-15 22:10:23.736692,-2.8438466,0.4756676,-0.19768637,-0.9392053,-3.0476067,8.091903
170,2024-05-15 22:10:23.753338,-2.691311,0.41855815,-0.17084008,-0.91232723,-3.1111367,8.1120615
171,2024-05-15 22:10:23.770004,-2.4687002,0.26406994,-0.39317623,-0.5897904,-2.9999592,7.8585525
172,2024-05-15 22:10:23.786648,-2.5714788,0.10933765,-0.50669336,-0.6814202,-3.2045991,7.6911755
173,2024-05-15 22:10:23.803319,-2.4806588,-0.13349932,-0.41026023,-0.87872964,-3.585779,7.828009
174,2024-05-15 22:10:23.819995,-2.063565,-0.43417785,-0.053936653,-0.58123827,-3.386637,7.875046
175,2024-05-15 22:10:23.836656,-2.0816252,-0.5286585,0.0656514,-0.35643986,-3.1160235,7.857331
176,2024-05-15 22:10:23.853303,-1.7580053,-0.62921005,0.1483868,-0.044898596,-2.8759537,7.8304524
177,2024-05-15 22:10:23.869986,-1.2500917,-0.6296982,0.20793676,0.11636983,-3.136182,7.3545885
178,2024-05-15 22:10:23.886635,-0.8869346,-0.63579965,0.22916976,0.38881573,-3.3267722,6.5971155
179,2024-05-15 22:10:23.903282,-0.75172687,-0.6296982,0.25772443,0.6258314,-3.1251867,6.236094
180,2024-05-15 22:10:23.919876,-0.49985978,-0.6509312,0.22892569,1.1633929,-2.2369885,5.3778286
181,2024-05-15 22:10:23.936610,-0.40733153,-0.62701356,0.10494461,1.2922854,-1.6914859,4.7706285
182,2024-05-15 22:10:23.953272,-0.49201941,-0.5828392,-0.04759116,1.235475,-1.3206906,4.1634283
183,2024-05-15 22:10:23.969937,-0.5537964,-0.5879644,-0.3248402,0.66859204,-1.8185458,3.7999637
184,2024-05-15 22:10:23.986808,-0.59284556,-0.5916253,-0.383658,0.42180246,-2.117259,3.803629
185,2024-05-15 22:10:24.003773,-0.5960183,-0.66874737,-0.37072295,0.029626964,-2.7855456,4.219628
186,2024-05-15 22:10:24.020171,-0.22965786,-0.7434289,-0.45907167,0.042455133,-2.6261096,4.269719
187,2024-05-15 22:10:24.037111,-0.22965786,-0.7434289,-0.45907167,0.042455133,-2.6261096,4.269719
188,2024-05-15 22:10:24.053767,-0.22965786,-0.7434289,-0.45907167,0.042455133,-2.6261096,4.269719
189,2024-05-15 22:10:24.070405,-0.22965786,-0.7434289,-0.45907167,0.042455133,-2.6261096,4.269719
190,2024-05-15 22:10:24.087112,-0.22965786,-0.7434289,-0.45907167,0.042455133,-2.6261096,4.269719
191,2024-05-15 22:10:24.103731,-0.22965786,-0.7434289,-0.45907167,0.042455133,-2.6261096,4.269719
192,2024-05-15 22:10:24.121327,-0.22965786,-0.7434289,-0.45907167,0.042455133,-2.6261096,4.269719
193,2024-05-15 22:10:24.136952,-0.22965786,-0.7434289,-0.45907167,0.042455133,-2.6261096,4.269719
194,2024-05-15 22:10:24.153980,-0.22965786,-0.7434289,-0.45907167,0.042455133,-2.6261096,4.269719
195,2024-05-15 22:10:24.169868,-0.22965786,-0.7434289,-0.45907167,0.042455133,-2.6261096,4.269719
196,2024-05-15 22:10:24.186496,1.2442343,-1.9942529,-0.7409883,0.4120286,-0.20158553,3.5055265
197,2024-05-15 22:10:24.201741,1.3438097,-2.0474572,-0.78003746,-0.008246681,-0.34697145,2.8867202
198,2024-05-15 22:10:24.219490,1.4077528,-2.2107315,-0.6397045,-0.19639318,-0.34269542,2.2263746
199,2024-05-15 22:10:24.236459,1.6852763,-2.3730295,-0.6855873,0.110872045,0.14660765,1.7156914
200,2024-05-15 22:10:24.253135,1.8785696,-2.4130552,-0.7644178,0.06811147,0.5925393,1.3296245
201,2024-05-15 22:10:24.269752,2.1340976,-2.4308712,-0.63579965,-0.4156938,1.3359623,0.38400516
202,2024-05-15 22:10:24.286631,2.1599677,-2.4447825,-0.52646196,-0.46639562,1.4379768,0.035811976
203,2024-05-15 22:10:24.303139,2.0818694,-2.4538126,-0.19768637,-0.07422013,1.6029104,-1.3361914
204,2024-05-15 22:10:24.319764,1.892725,-2.4696763,-0.1210524,0.77854776,1.7715092,-2.9604821
205,2024-05-15 22:10:24.336462,1.4736482,-2.3674164,-0.19353738,0.9202685,1.777007,-3.2457561
206,2024-05-15 22:10:24.353108,1.2837716,-2.3210454,-0.2277054,1.5311338,1.3078625,-4.9396853
207,2024-05-15 22:10:24.369764,0.79150814,-2.118722,-0.24796216,1.6606371,0.829555,-5.6366825
208,2024-05-15 22:10:24.386427,0.37487194,-1.8656346,-0.36266908,1.6960673,0.72509706,-6.084447
209,2024-05-15 22:10:24.403236,0.17572121,-1.7492193,-0.42856455,1.6624697,0.77091193,-6.15042
210,2024-05-15 22:10:24.419902,-0.15595257,-1.4328907,-0.54305786,1.3509285,0.88086766,-6.1449227
211,2024-05-15 22:10:24.436485,-0.17328064,-1.4143422,-0.54305786,1.2971723,0.8924741,-6.1345377
212,2024-05-15 22:10:24.453349,-0.6001673,-1.0497208,-0.51865214,0.8915578,1.0684034,-5.631796
213,2024-05-15 22:10:24.469931,-0.6343353,-0.90743536,-0.54354596,0.6814202,1.4202617,-5.3336935
214,2024-05-15 22:10:24.486388,-0.5891847,-0.79590124,-0.38341394,0.59956425,1.7037032,-5.179145
215,2024-05-15 22:10:24.503609,-0.5728329,-0.77198356,-0.33435842,0.7504479,1.78617,-5.1693707
216,2024-05-15 22:10:24.520308,-0.47395915,-0.78394234,-0.29311275,1.0986412,1.9431623,-5.2939873
217,2024-05-15 22:10:24.536961,-0.46810177,-0.7841864,-0.2894519,1.1230757,1.9431623,-5.2939873
218,2024-05-15 22:10:24.553585,-0.40952805,-0.83055735,-0.24600971,1.8469511,2.3359487,-5.639737
219,2024-05-15 22:10:24.569908,-0.47884035,-0.96356845,-0.24747404,2.5867088,2.4911084,-5.951889
220,2024-05-15 22:10:24.586401,-0.5413495,-0.9855337,-0.28505886,2.7143798,2.485,-6.0422974
221,2024-05-15 22:10:24.603584,-0.7060881,-0.9821169,-0.5652671,2.903137,1.8350391,-6.4668484
222,2024-05-15 22:10:24.620240,-0.9552705,-0.7971215,-0.940139,2.2110267,0.22540927,-8.229806
223,2024-05-15 22:10:24.637387,-1.9866871,-0.7751563,-0.7246365,1.3387111,0.032375857,-9.191918
224,2024-05-15 22:10:24.653586,-2.3476477,-0.692909,-0.58869654,1.1432343,0.6072,-9.007437
225,2024-05-15 22:10:24.670219,-2.7889335,-0.556237,-0.34290043,1.1505647,1.3707817,-8.396572
226,2024-05-15 22:10:24.686872,-2.7889335,-0.556237,-0.34290043,1.1505647,1.3707817,-8.396572
227,2024-05-15 22:10:24.703556,-2.7889335,-0.556237,-0.34290043,1.1505647,1.3707817,-8.396572
228,2024-05-15 22:10:24.720227,-2.7889335,-0.556237,-0.34290043,1.1505647,1.3707817,-8.396572
229,2024-05-15 22:10:24.736859,-2.7889335,-0.556237,-0.34290043,1.1505647,1.3707817,-8.396572
230,2024-05-15 22:10:24.754467,-2.7889335,-0.556237,-0.34290043,1.1505647,1.3707817,-8.396572
231,2024-05-15 22:10:24.770205,-2.7889335,-0.556237,-0.34290043,1.1505647,1.3707817,-8.396572
232,2024-05-15 22:10:24.786918,-2.7889335,-0.556237,-0.34290043,1.1505647,1.3707817,-8.396572
233,2024-05-15 22:10:24.803517,-2.7889335,-0.556237,-0.34290043,1.1505647,1.3707817,-8.396572
234,2024-05-15 22:10:24.820377,-2.403781,0.45907167,-0.091033354,-2.1200078,-1.7183639,-5.6647825
235,2024-05-15 22:10:24.836352,-2.7003407,0.5213368,0.547695,-2.4437664,-1.4953982,-5.554216
236,2024-05-15 22:10:24.853500,-3.042021,0.66215783,0.83787906,-1.6447546,0.030543262,-4.537125
237,2024-05-15 22:10:24.870465,-2.8950987,1.1729697,0.8100565,-0.6246097,0.5815437,-3.440622
238,2024-05-15 22:10:24.886343,-2.7979639,1.4328907,0.6328709,-0.49632803,0.32742378,-3.0215685
239,2024-05-15 22:10:24.903477,-2.876306,1.6001004,0.51694375,-0.8127562,-0.32925636,-2.864576
240,2024-05-15 22:10:24.919554,-3.1384237,1.7470227,0.77173954,-1.462106,-1.1001683,-2.1608593
241,2024-05-15 22:10:24.935111,-3.2006583,1.7767979,0.8700946,-1.4914275,-1.0751228,-1.8987982
242,2024-05-15 22:10:24.952644,-3.507957,1.9498343,1.2864562,-1.0729848,-0.57543504,-0.4217261
243,2024-05-15 22:10:24.969775,-3.4918187,1.9800974,1.3772455,-0.59895337,-0.3549127,0.5770386
244,2024-05-15 22:10:24.986445,-3.5060046,1.9383637,1.293778,-0.37659842,-0.6597345,1.4939473
245,2024-05-15 22:10:25.003108,-3.4408104,1.6213332,1.229835,-0.34605515,-2.0103576,2.6979628
246,2024-05-15 22:10:25.020127,-3.280709,1.4167827,1.1749221,0.19761491,-2.7091873,3.943517
247,2024-05-15 22:10:25.036597,-3.1840622,1.0973119,0.6087093,0.6441574,-2.7892108,4.8482084
248,2024-05-15 22:10:25.053450,-3.1506267,0.97015804,0.31361356,0.33567044,-3.2119296,5.212895
249,2024-05-15 22:10:25.070103,-3.1464775,0.7348869,0.1683995,-0.30085114,-3.8741074,5.4132586
250,2024-05-15 22:10:25.086465,-3.2336059,0.68973625,0.15692882,-0.63499445,-4.40556,6.0766582
251,2024-05-15 22:10:25.103432,-3.2216473,0.5196284,0.38316986,-0.5726862,-4.351193,6.3203936
252,2024-05-15 22:10:25.119591,-3.0071208,0.50571716,0.5450104,0.20066923,-3.5100317,7.0057845
253,2024-05-15 22:10:25.134894,-3.015663,0.469078,0.45711923,0.410196,-3.4251215,7.0100603
254,2024-05-15 22:10:25.153046,-3.2658217,0.2042759,0.09030118,0.47067168,-4.221079,7.1597223
255,2024-05-15 22:10:25.170073,-3.2528865,0.044662476,-0.17254847,0.627664,-4.936402,7.502418
256,2024-05-15 22:10:25.186402,-3.0683792,-0.11251039,-0.4510178,0.61361414,-5.2790976,7.8933716
257,2024-05-15 22:10:25.203366,-2.9922335,-0.24015234,-0.5127948,0.5317582,-5.3682837,8.055251
258,2024-05-15 22:10:25.220072,-2.4396572,-0.447601,-0.4595598,0.33444872,-5.0524664,8.071744
259,2024-05-15 22:10:25.236713,-2.2595432,-0.5381767,-0.4549227,0.34116822,-4.910135,7.9068108
260,2024-05-15 22:10:25.253395,-1.8617296,-0.5816189,-0.5899168,0.3857614,-4.529566,7.452327
261,2024-05-15 22:10:25.267510,-1.6010766,-0.6921768,-0.78003746,-0.11881329,-4.436714,6.8390183
262,2024-05-15 22:10:25.286190,-1.3713882,-0.7380596,-0.74513733,-0.43035457,-4.442212,6.3576565
263,2024-05-15 22:10:25.303364,-1.2522882,-0.7358631,-0.726833,-0.48288897,-4.39151,6.259307
264,2024-05-15 22:10:25.319983,-1.2522882,-0.7358631,-0.726833,-0.48288897,-4.39151,6.259307
265,2024-05-15 22:10:25.336669,-1.2522882,-0.7358631,-0.726833,-0.48288897,-4.39151,6.259307
266,2024-05-15 22:10:25.353325,-1.2522882,-0.7358631,-0.726833,-0.48288897,-4.39151,6.259307
267,2024-05-15 22:10:25.369994,-1.2522882,-0.7358631,-0.726833,-0.48288897,-4.39151,6.259307
268,2024-05-15 22:10:25.386658,-1.2522882,-0.7358631,-0.726833,-0.48288897,-4.39151,6.259307
269,2024-05-15 22:10:25.403312,-1.2522882,-0.7358631,-0.726833,-0.48288897,-4.39151,6.259307
270,2024-05-15 22:10:25.420893,-1.2522882,-0.7358631,-0.726833,-0.48288897,-4.39151,6.259307
271,2024-05-15 22:10:25.436028,-0.05344854,-1.1209855,-0.8649694,0.15363261,-2.0030272,4.8249955
272,2024-05-15 22:10:25.453310,0.1313028,-1.1395339,-1.3828589,0.004581489,-1.5247196,4.4132724
273,2024-05-15 22:10:25.469447,0.021477038,-1.1942025,-1.4775531,-1.8164078,-2.787378,3.911752
274,2024-05-15 22:10:25.486512,0.32972133,-1.2820632,-0.8530106,-1.7327193,-2.761111,3.2691216
275,2024-05-15 22:10:25.503284,0.2660224,-1.3013438,-0.7199994,-0.8426886,-2.0916026,2.7730992
276,2024-05-15 22:10:25.519990,0.17962612,-1.2871884,-0.84666514,0.0852157,-1.4501941,2.5189793
277,2024-05-15 22:10:25.536337,0.255772,-1.289629,-0.91036403,0.0852157,-1.4501941,2.5189793
278,2024-05-15 22:10:25.570120,0.53451586,-1.5908262,-0.8454448,0.23060162,-1.3970488,2.0987039
279,2024-05-15 22:10:25.586814,0.7666143,-1.9476379,-0.8710708,1.3014483,-1.3439035,1.9612592
280,2024-05-15 22:10:25.602438,0.92695993,-2.16973,-0.97284275,1.706452,-0.9737192,1.9740874
281,2024-05-15 22:10:25.619333,1.5717896,-2.5895388,-1.1856606,2.0393736,0.20830505,1.980807
282,2024-05-15 22:10:25.637180,2.173879,-2.8853364,-1.1546654,2.2977695,2.053729,0.92584264
283,2024-05-15 22:10:25.652910,2.459426,-2.9883285,-0.93257326,2.5708263,2.329229,0.20624338
284,2024-05-15 22:10:25.669894,2.2556381,-2.8860683,-1.0699775,2.7754662,1.8771889,-1.9262872
285,2024-05-15 22:10:25.686238,1.8753968,-2.7184012,-1.0746145,2.3790147,0.93828905,-3.400305
286,2024-05-15 22:10:25.703230,1.6118151,-2.628344,-1.0504528,2.2421808,0.59437186,-4.1724386
287,2024-05-15 22:10:25.719899,0.8613085,-2.344231,-1.0768111,2.2153027,0.24556783,-5.336137
288,2024-05-15 22:10:25.736131,0.42075467,-2.0389154,-1.1336764,2.3209825,0.66950834,-5.8266616
289,2024-05-15 22:10:25.753207,0.2894519,-1.9883955,-1.1200093,2.3472497,0.86926126,-5.956776
290,2024-05-15 22:10:25.769888,-0.15326795,-1.6706328,-0.97381896,3.0002646,2.3701572,-6.038021
291,2024-05-15 22:10:25.786385,-0.30897647,-1.5464077,-1.0690013,3.2018502,2.7757716,-5.9237895
292,2024-05-15 22:10:25.802937,-0.41733786,-1.3984785,-1.1168364,3.0784554,2.9248228,-5.658674
293,2024-05-15 22:10:25.819819,-0.5542845,-1.0548459,-1.0262913,2.532342,2.819754,-5.3428564
294,2024-05-15 22:10:25.836346,-0.5452544,-0.9852896,-0.6453179,2.300213,2.9486465,-5.3330827
295,2024-05-15 22:10:25.853141,-0.6070009,-0.9694259,-0.5442782,2.3753495,3.0085113,-5.326974
296,2024-05-15 22:10:25.869602,-0.7595367,-0.88937515,-0.3973252,2.6398542,2.9865203,-5.167538
297,2024-05-15 22:10:25.886471,-0.799318,-0.87131494,-0.37096703,2.8658743,2.7751608,-5.0349803
298,2024-05-15 22:10:25.903131,-0.8083481,-0.79663336,-0.4253918,2.939789,2.4911084,-4.96412
299,2024-05-15 22:10:25.919807,-0.7783291,-0.7429407,-0.33997175,2.962391,2.1679606,-5.1614294
300,2024-05-15 22:10:25.936468,-0.88327366,-0.7351309,-0.417826,2.962391,2.1679606,-5.1614294
301,2024-05-15 22:10:25.953111,-0.7868711,-0.74074423,-0.34192422,3.0014863,1.9975294,-5.3532414
302,2024-05-15 22:10:25.969784,-0.7868711,-0.74074423,-0.34192422,3.0014863,1.9975294,-5.3532414
303,2024-05-15 22:10:25.986445,-0.7868711,-0.74074423,-0.34192422,3.0014863,1.9975294,-5.3532414
304,2024-05-15 22:10:26.003117,-0.7868711,-0.74074423,-0.34192422,3.0014863,1.9975294,-5.3532414
305,2024-05-15 22:10:26.019764,-0.7868711,-0.74074423,-0.34192422,3.0014863,1.9975294,-5.3532414
306,2024-05-15 22:10:26.036426,-0.7868711,-0.74074423,-0.34192422,3.0014863,1.9975294,-5.3532414
307,2024-05-15 22:10:26.053098,-0.7868711,-0.74074423,-0.34192422,3.0014863,1.9975294,-5.3532414
308,2024-05-15 22:10:26.070702,-0.7868711,-0.74074423,-0.34192422,3.0014863,1.9975294,-5.3532414
309,2024-05-15 22:10:26.086393,-0.7868711,-0.74074423,-0.34192422,3.0014863,1.9975294,-5.3532414
310,2024-05-15 22:10:26.102580,-3.2072477,-0.84153986,-0.73049384,3.1309898,0.2938262,-9.213909
311,2024-05-15 22:10:26.119264,-3.5865433,-0.62896603,-1.2693722,2.6398542,-0.015882496,-9.152212
312,2024-05-15 22:10:26.136949,-3.5838585,0.23331872,-1.4609572,0.04184427,-0.4605924,-7.478441
313,2024-05-15 22:10:26.153098,-3.4933133,0.24332508,-1.2098223,-0.5555819,-0.15088372,-7.147352
314,2024-05-15 22:10:26.169741,-3.593377,0.25211114,-0.15448824,-1.4944818,0.6188065,-5.8920245
315,2024-05-15 22:10:26.186390,-3.593377,0.25211114,-0.15448824,-1.4944818,0.6188065,-5.8920245
316,2024-05-15 22:10:26.202919,-3.033723,0.6738726,1.0472802,0.39492437,1.3640621,-4.3685265
317,2024-05-15 22:10:26.219256,-2.8067498,0.98309314,0.38536638,1.6276505,0.9981538,-3.5377498
318,2024-05-15 22:10:26.236001,-2.8213933,1.085353,-0.110801995,1.3087788,0.4642576,-3.586619
319,2024-05-15 22:10:26.252852,-3.063498,1.2967067,-0.24527754,0.042455133,-0.100792766,-3.5236998
320,2024-05-15 22:10:26.269209,-3.168931,1.4961015,0.00097622897,-0.5653558,-0.15515977,-2.9726994
321,2024-05-15 22:10:26.286181,-3.1106012,1.6184046,0.1901206,-0.9850202,-0.344528,-2.4015403
322,2024-05-15 22:10:26.302465,-3.238243,1.8317106,0.71072525,-1.4278975,-0.39645153,-1.7124844
323,2024-05-15 22:10:26.319647,-3.4171371,2.0291529,1.1939586,-0.8054258,-0.979217,-0.4272239
324,2024-05-15 22:10:26.336396,-3.4127438,2.0860183,1.2249539,-0.42363504,-1.205848,0.04314236
325,2024-05-15 22:10:26.352948,-3.7080839,2.072107,0.9618601,-0.057726767,-1.8112154,1.0156398
326,2024-05-15 22:10:26.369063,-3.9016213,1.6979674,0.85691553,0.33261612,-2.1270328,3.1445053
327,2024-05-15 22:10:26.386330,-3.8391426,1.5981479,0.83421814,0.4859433,-2.1068742,3.5696673
328,2024-05-15 22:10:26.402966,-3.4964557,1.182976,0.46297657,0.82253003,-2.3518312,4.9422817
329,2024-05-15 22:10:26.419547,-3.2685063,0.76466185,0.10396838,0.47494772,-3.249803,5.6233964
330,2024-05-15 22:10:26.436082,-3.2909594,0.43832684,0.08908089,0.08582657,-3.9822304,5.906227
331,2024-05-15 22:10:26.452760,-3.4535017,0.2933568,0.13789235,-0.08827003,-4.514905,6.2122703
332,2024-05-15 22:10:26.469622,-3.700274,0.11031388,0.29164842,0.07727446,-4.477642,6.5396943
333,2024-05-15 22:10:26.486292,-3.784474,-0.35827604,0.50766957,0.8555168,-3.934583,7.474929
334,2024-05-15 22:10:26.503549,-3.4840088,-0.39073566,0.37877685,1.8976529,-3.8252382,8.408331
335,2024-05-15 22:10:26.519303,-2.8660557,-0.2818861,-0.038561042,2.11451,-4.330424,8.401001
336,2024-05-15 22:10:26.536300,-2.7933266,-0.25650415,-0.4195344,1.6899587,-5.0023756,8.120003
337,2024-05-15 22:10:26.552951,-2.3842564,-0.17791773,-0.4790844,1.31672,-5.272989,8.038757
338,2024-05-15 22:10:26.569111,-2.1699739,-0.0019524579,-0.43295756,0.5708536,-4.0152173,7.797466
339,2024-05-15 22:10:26.586260,-1.8714919,-0.032459613,-0.45760733,0.24770586,-3.3292155,7.7925787
340,2024-05-15 22:10:26.602916,-1.8714919,-0.032459613,-0.45760733,0.24770586,-3.3292155,7.7925787
341,2024-05-15 22:10:26.619558,-1.8714919,-0.032459613,-0.45760733,0.24770586,-3.3292155,7.7925787
342,2024-05-15 22:10:26.636216,-1.8714919,-0.032459613,-0.45760733,0.24770586,-3.3292155,7.7925787
343,2024-05-15 22:10:26.652880,-1.8714919,-0.032459613,-0.45760733,0.24770586,-3.3292155,7.7925787
344,2024-05-15 22:10:26.669548,-1.8714919,-0.032459613,-0.45760733,0.24770586,-3.3292155,7.7925787
345,2024-05-15 22:10:26.686208,-1.8714919,-0.032459613,-0.45760733,0.24770586,-3.3292155,7.7925787
346,2024-05-15 22:10:26.711431,-1.8714919,-0.032459613,-0.45760733,0.24770586,-3.3292155,7.7925787
347,2024-05-15 22:10:26.734922,-0.6741166,-0.5584335,-0.46785772,0.17928895,-2.3005185,4.9490013
348,2024-05-15 22:10:26.752266,-0.73000574,-0.5567251,-0.6311625,-0.035124753,-2.149024,4.468861
349,2024-05-15 22:10:26.768997,-0.62994224,-0.6340912,-0.66093755,-0.0888809,-1.958434,4.512843
350,2024-05-15 22:10:26.787053,-0.46370876,-0.6482466,-0.56087404,0.36743546,-1.3677273,4.3271403
351,2024-05-15 22:10:26.802837,-0.21525851,-0.78809136,-0.7771088,0.30451632,-1.201572,4.204356
352,2024-05-15 22:10:26.820103,0.056377225,-0.8320217,-0.8493497,-0.099265605,-0.70738196,3.721773
353,2024-05-15 22:10:26.835621,-0.09518232,-0.88229746,-0.81396145,-0.8127562,-0.7312057,3.2367458
354,2024-05-15 22:10:26.852808,-0.09518232,-0.88229746,-0.81396145,-0.8127562,-0.7312057,3.2367458
355,2024-05-15 22:10:26.869499,-0.3219115,-0.96771747,-0.645806,-1.6972891,-2.0091357,3.5189657
356,2024-05-15 22:10:26.885598,0.14057697,-1.1988398,-0.15155955,-0.8005389,-1.9669861,3.4285576
357,2024-05-15 22:10:26.902742,0.14130914,-1.2398413,-0.20183535,0.044898596,-1.5931365,3.0925817
358,2024-05-15 22:10:26.918959,0.12056428,-1.3013438,-0.32093528,0.56779927,-1.5515977,3.046156
359,2024-05-15 22:10:26.936128,0.22916976,-1.4140981,-0.68851596,0.4266894,-1.8606955,3.123736
360,2024-05-15 22:10:26.952908,0.5515999,-1.4826783,-0.8032229,-0.33505958,-2.307849,2.8903852
361,2024-05-15 22:10:26.969136,0.49446,-1.6957707,-0.60114354,-0.3643811,-2.4593434,2.9331458
362,2024-05-15 22:10:26.986146,0.78979975,-1.8695395,-0.6077331,-0.13897185,-2.4721715,3.022943
363,2024-05-15 22:10:27.002751,1.3028082,-2.097489,-0.57869023,0.41263947,-1.8845193,2.4627795
364,2024-05-15 22:10:27.019128,1.3606497,-2.2719898,-0.6382402,1.2318097,-1.2345587,1.6601026
365,2024-05-15 22:10:27.035568,1.5886296,-2.4181802,-1.2308112,1.675298,-1.0097603,1.3711634
366,2024-05-15 22:10:27.052722,2.03257,-2.585146,-1.6447629,0.9440922,-0.7715228,1.0138072
367,2024-05-15 22:10:27.069409,2.3198252,-2.7274313,-1.6281669,0.25137106,-0.5338962,0.4395939
368,2024-05-15 22:10:27.086053,2.4706526,-2.8130953,-1.0367857,-0.004581489,0.17348573,-0.96539617
369,2024-05-15 22:10:27.102358,2.1260436,-2.6139445,-0.6067568,1.8408424,1.142318,-3.0484467
370,2024-05-15 22:10:27.118909,1.8385442,-2.5238876,-0.74050015,2.4425447,1.346347,-3.6916878
371,2024-05-15 22:10:27.136076,1.2581456,-2.2378218,-1.0943832,2.9678888,1.4300356,-4.655022
372,2024-05-15 22:10:27.152748,0.6826586,-1.9610609,-1.3133025,2.7143798,1.2027937,-5.2646656
373,2024-05-15 22:10:27.168827,0.52450955,-1.8116981,-1.3072011,2.4523184,1.1850786,-5.3391914
374,2024-05-15 22:10:27.187261,0.28701133,-1.5190734,-0.9574671,2.5476136,1.8185458,-5.6372933
375,2024-05-15 22:10:27.202721,0.25845662,-1.468767,-0.94502014,2.7284296,2.0366247,-5.7344213
376,2024-05-15 22:10:27.219393,0.14472595,-1.4026275,-0.99187917,2.8958068,2.2638667,-5.9317307
377,2024-05-15 22:10:27.236033,0.14472595,-1.4026275,-0.99187917,2.8958068,2.2638667,-5.9317307
378,2024-05-15 22:10:27.252692,0.14472595,-1.4026275,-0.99187917,2.8958068,2.2638667,-5.9317307
379,2024-05-15 22:10:27.269373,0.14472595,-1.4026275,-0.99187917,2.8958068,2.2638667,-5.9317307
380,2024-05-15 22:10:27.286031,0.14472595,-1.4026275,-0.99187917,2.8958068,2.2638667,-5.9317307
381,2024-05-15 22:10:27.302674,0.14472595,-1.4026275,-0.99187917,2.8958068,2.2638667,-5.9317307
382,2024-05-15 22:10:27.319356,0.14472595,-1.4026275,-0.99187917,2.8958068,2.2638667,-5.9317307
383,2024-05-15 22:10:27.336006,0.14472595,-1.4026275,-0.99187917,2.8958068,2.2638667,-5.9317307
384,2024-05-15 22:10:27.352676,0.14472595,-1.4026275,-0.99187917,2.8958068,2.2638667,-5.9317307
385,2024-05-15 22:10:27.370239,0.14472595,-1.4026275,-0.99187917,2.8958068,2.2638667,-5.9317307
386,2024-05-15 22:10:27.385862,-0.8644812,-0.8669218,-0.38146147,0.7644979,1.6707164,-6.6073475
387,2024-05-15 22:10:27.402660,-1.1114672,-0.8432483,-0.41050428,0.4352415,0.8594874,-7.055112
388,2024-05-15 22:10:27.419298,-1.2071377,-0.7671024,-0.3909797,0.28252518,0.74220127,-7.1974435
389,2024-05-15 22:10:27.435993,-1.3799303,-0.6987664,-0.28676724,0.013133603,0.89736104,-7.5199804
390,2024-05-15 22:10:27.452537,-1.6447629,-0.7146301,-0.16815543,-0.0290161,0.9126327,-7.960414
391,2024-05-15 22:10:27.469287,-1.8683193,-0.7358631,-0.09567044,0.0070249503,0.7806858,-8.074646
392,2024-05-15 22:10:27.485943,-2.396215,-0.66313404,0.0134231495,0.03756821,0.20830505,-8.337929
393,2024-05-15 22:10:27.502614,-2.7057102,-0.505229,0.15766099,-0.08155051,0.19058995,-7.876115
394,2024-05-15 22:10:27.519297,-2.7042458,-0.4893348,0.16888762,-0.12308934,0.16432275,-7.6989636
395,2024-05-15 22:10:27.535491,-2.6373742,-0.38780698,0.45297024,0.550695,0.0421497,-7.144298
396,2024-05-15 22:10:27.552577,-2.8819194,-0.07492557,0.021477038,1.8542814,0.68966687,-6.70081
397,2024-05-15 22:10:27.569254,-2.8365247,0.24747404,-0.46492904,1.2855659,1.2241739,-5.5920897
398,2024-05-15 22:10:27.585918,-2.7589147,0.33997175,-0.51547945,0.67164636,1.0916162,-5.3611827
399,2024-05-15 22:10:27.602045,-2.696192,0.6060247,-0.29213652,-0.61483586,0.42638394,-5.27444
400,2024-05-15 22:10:27.619233,-2.7110794,0.6975461,-0.0741934,-0.850019,0.3567453,-5.173036
401,2024-05-15 22:10:27.635943,-2.6830127,1.0377619,0.30019042,-1.0919216,0.40622538,-4.53346
402,2024-05-15 22:10:27.652500,-2.8026009,1.3059808,0.5018122,-1.0968086,0.56016344,-4.006894
403,2024-05-15 22:10:27.669263,-2.8387215,1.692354,0.73073786,-0.7180721,0.8552113,-3.1767282
404,2024-05-15 22:10:27.685888,-2.8526325,1.8692955,0.7068203,-0.58062744,0.8191703,-2.9965231
405,2024-05-15 22:10:27.702520,-3.1174347,2.3312957,0.35998443,-1.135904,-0.13927728,-2.8804586
406,2024-05-15 22:10:27.719193,-3.283882,2.5043628,0.3048275,-1.4358387,-0.4465425,-2.8493047
407,2024-05-15 22:10:27.735873,-4.15422,2.4428298,1.391645,-3.3374622,-1.3988814,-0.9708939
408,2024-05-15 22:10:27.752553,-4.3850985,2.2827284,2.4433181,-2.0118847,-0.069027774,1.0871111
409,2024-05-15 22:10:27.768779,-4.1754537,1.8553842,2.0999296,0.16890424,-0.5448918,3.5495088
410,2024-05-15 22:10:27.785829,-4.008274,1.5925345,1.7160275,0.627664,-1.4581354,4.2575016
411,2024-05-15 22:10:27.802517,-3.6209552,1.0929189,1.1070741,1.0693196,-2.6988027,5.3155203
412,2024-05-15 22:10:27.819155,-3.0190797,0.7380596,0.44516042,1.4767667,-2.792265,6.0448933
413,2024-05-15 22:10:27.835831,-2.85849,0.6660627,-0.14985114,1.094976,-2.6309967,6.19761
414,2024-05-15 22:10:27.852528,-2.6930192,0.552088,-0.43637437,-0.35216382,-3.31822,6.309398
415,2024-05-15 22:10:27.869146,-2.6451838,0.48542988,-0.34338856,-0.70646566,-3.544851,6.2935157
416,2024-05-15 22:10:27.885793,-2.6451838,0.48542988,-0.34338856,-0.70646566,-3.544851,6.2935157
417,2024-05-15 22:10:27.902439,-2.6451838,0.48542988,-0.34338856,-0.70646566,-3.544851,6.2935157
418,2024-05-15 22:10:27.919113,-2.6451838,0.48542988,-0.34338856,-0.70646566,-3.544851,6.2935157
419,2024-05-15 22:10:27.935279,-2.0442846,0.08566409,0.38268176,-0.5305365,-3.5143077,6.350937
420,2024-05-15 22:10:27.952436,-2.0442846,0.08566409,0.38268176,-0.5305365,-3.5143077,6.350937
421,2024-05-15 22:10:27.969107,-2.0442846,0.08566409,0.38268176,-0.5305365,-3.5143077,6.350937
422,2024-05-15 22:10:27.985774,-2.0442846,0.08566409,0.38268176,-0.5305365,-3.5143077,6.350937
423,2024-05-15 22:10:28.002452,-2.3383737,-0.20549619,-0.3402158,1.6423112,-4.5912633,5.992359
424,2024-05-15 22:10:28.019869,-1.8822305,-0.2865232,-0.88913107,0.9593639,-3.8588357,6.2531986
425,2024-05-15 22:10:28.035519,-1.6921101,-0.26992732,-0.935502,0.6227771,-3.8728857,6.231818
426,2024-05-15 22:10:28.052450,-0.978456,-0.27773714,-0.7858948,-0.25625798,-3.8686097,5.838421
427,2024-05-15 22:10:28.069174,-0.67728937,-0.30848834,-0.6580089,-0.6795876,-3.6603045,5.021694
428,2024-05-15 22:10:28.085741,-0.63604367,-0.3121492,-0.6453179,-0.70280045,-3.689626,4.8628693
429,2024-05-15 22:10:28.102391,-0.63799614,-0.31507793,-0.6565445,-0.66737026,-3.7818668,4.3631816
430,2024-05-15 22:10:28.119005,-0.73147005,-0.33582276,-0.684123,-0.6600399,-3.481321,4.428544
431,2024-05-15 22:10:28.135750,-0.7056,-0.37999713,-0.65288365,-0.6728681,-3.2943962,4.537889
432,2024-05-15 22:10:28.152384,-0.4002539,-0.5406173,-0.38170552,-0.410196,-2.620001,4.6570077
433,2024-05-15 22:10:28.168639,-0.2936009,-0.5630706,-0.25992095,0.23854288,-2.5625796,4.39739
434,2024-05-15 22:10:28.201868,-0.46029195,-0.7246365,-0.6057806,1.1462886,-2.502104,4.550106
435,2024-05-15 22:10:28.219277,-0.15155955,-1.0655844,-0.9040186,1.5293012,-1.6823229,4.9105167
436,2024-05-15 22:10:28.234952,-0.15155955,-1.0655844,-0.9040186,1.5293012,-1.6823229,4.9105167
437,2024-05-15 22:10:28.251656,0.46273252,-1.3281901,-1.1468556,1.7443258,-0.3866777,4.5458302
438,2024-05-15 22:10:28.268669,0.62896603,-1.4756007,-1.2891409,0.9049969,-0.014049901,3.7126098
439,2024-05-15 22:10:28.285340,0.5974827,-1.5151684,-1.362358,0.51893,-0.16432275,3.6057084
440,2024-05-15 22:10:28.301996,0.8288489,-1.6872289,-1.0838888,-1.402852,-1.8167132,3.2642348
441,2024-05-15 22:10:28.318579,1.0275115,-1.7123666,-0.6001673,-1.1902709,-1.8417587,2.633211
442,2024-05-15 22:10:28.335602,1.0033498,-1.6886932,-0.50840175,-0.79443026,-1.5406022,2.3412175
443,2024-05-15 22:10:28.352306,0.8886429,-1.7006519,-0.56038594,0.1133155,-0.7501425,2.0443368
444,2024-05-15 22:10:28.368832,1.0238507,-1.7855839,-0.6833908,0.713796,-0.32559118,1.8665751
445,2024-05-15 22:10:28.385633,1.0443515,-1.8270735,-0.74489325,0.92149025,-0.1740966,1.7205783
446,2024-05-15 22:10:28.402325,1.0477682,-1.9403161,-0.918662,1.1108584,-0.029932396,1.5623642
447,2024-05-15 22:10:28.418982,1.4367956,-2.16973,-1.0838888,1.1652255,0.8167268,1.3687199
448,2024-05-15 22:10:28.435646,1.637197,-2.2605193,-1.0404466,1.0772609,1.087951,1.2105058
449,2024-05-15 22:10:28.452172,1.965698,-2.4071977,-0.6240849,1.3613132,1.7128662,0.21846068
450,2024-05-15 22:10:28.468970,2.0052354,-2.3349566,-0.51523536,2.1053472,1.785559,-1.0399218
451,2024-05-15 22:10:28.485613,1.9588645,-2.3125033,-0.5201165,2.2562308,1.7470746,-1.2689962
452,2024-05-15 22:10:28.502263,1.8177994,-2.2448997,-0.67850965,2.2562308,1.7470746,-1.2689962
453,2024-05-15 22:10:28.518903,1.8177994,-2.2448997,-0.67850965,2.2562308,1.7470746,-1.2689962
454,2024-05-15 22:10:28.535561,1.8177994,-2.2448997,-0.67850965,2.2562308,1.7470746,-1.2689962
455,2024-05-15 22:10:28.552244,1.8177994,-2.2448997,-0.67850965,2.2562308,1.7470746,-1.2689962
456,2024-05-15 22:10:28.568917,1.8177994,-2.2448997,-0.67850965,2.2562308,1.7470746,-1.2689962
457,2024-05-15 22:10:28.585548,1.8177994,-2.2448997,-0.67850965,2.2562308,1.7470746,-1.2689962
458,2024-05-15 22:10:28.602219,1.8177994,-2.2448997,-0.67850965,2.2562308,1.7470746,-1.2689962
459,2024-05-15 22:10:28.618899,1.8177994,-2.2448997,-0.67850965,2.2562308,1.7470746,-1.2689962
460,2024-05-15 22:10:28.635554,1.8177994,-2.2448997,-0.67850965,2.2562308,1.7470746,-1.2689962
461,2024-05-15 22:10:28.651625,1.2269063,-1.7880243,-0.8515463,2.6563475,0.9755518,-4.0661483
462,2024-05-15 22:10:28.668493,-0.6975461,-0.5218249,-0.7756444,1.0803152,2.470339,-4.651357
463,2024-05-15 22:10:28.686463,-0.70364755,-0.45467865,-0.7409883,0.8597928,2.4599543,-4.560949
464,2024-05-15 22:10:28.702253,-0.7082847,-0.38561043,-0.56721956,0.56291234,2.5357015,-4.5267406
465,2024-05-15 22:10:28.718855,-0.7590486,-0.38121742,-0.42929673,0.41874814,2.737898,-4.719774
466,2024-05-15 22:10:28.735581,-0.8007824,-0.29921418,-0.3333822,0.25381452,2.8680124,-4.868214
467,2024-05-15 22:10:28.752213,-0.8520344,-0.2979939,-0.24112856,0.20005837,2.8600712,-4.9024224
468,2024-05-15 22:10:28.768791,-0.7971215,-0.28798756,-0.01952458,0.18112154,2.8808405,-4.9384637
469,2024-05-15 22:10:28.785006,-0.7273211,-0.29774985,0.08322352,0.36377025,3.241251,-5.2982635
470,2024-05-15 22:10:28.802163,-0.7429407,-0.36510965,0.26577836,0.41263947,3.2351422,-5.616524
471,2024-05-15 22:10:28.818592,-0.85593927,-0.5540405,0.36632994,-0.035124753,2.5289822,-6.2438827
472,2024-05-15 22:10:28.835759,-1.140266,-0.7187791,0.8493497,-0.16523905,1.4807373,-6.809544
473,2024-05-15 22:10:28.852125,-1.2225133,-0.74489325,1.1439269,0.6105598,1.423316,-6.9781427
474,2024-05-15 22:10:28.868320,-1.5534854,-0.6821705,1.1744341,3.5097263,2.094657,-7.0288444
475,2024-05-15 22:10:28.885260,-1.9476379,-0.56551117,0.09200958,4.9220467,2.307238,-6.7851095
476,2024-05-15 22:10:28.902107,-1.9466617,-0.41026023,-0.60992956,5.903707,1.8979583,-6.279313
477,2024-05-15 22:10:28.918730,-2.0603924,-0.10055158,-1.3840791,4.8267517,1.1808025,-6.8211503
478,2024-05-15 22:10:28.935723,-2.4906654,0.21818718,-1.7890006,2.7595837,0.37384954,-7.626271
479,2024-05-15 22:10:28.952129,-2.7315803,0.24674188,-1.8280497,1.5018122,0.26145032,-7.7099595
480,2024-05-15 22:10:28.969436,-3.0639863,0.34265637,-1.1846844,-0.82986045,0.48991394,-7.308621
481,2024-05-15 22:10:28.985434,-3.1315901,0.39634898,-0.6421451,-1.2586879,0.7788532,-6.9329386
482,2024-05-15 22:10:29.002055,-3.054956,0.88839895,0.6565445,-0.3631594,1.8606955,-5.516342
483,2024-05-15 22:10:29.018302,-2.781368,1.0716859,0.67021173,1.0680978,1.8759671,-4.5670576
484,2024-05-15 22:10:29.035415,-2.6944835,1.1427065,0.45126185,1.3723087,1.4899004,-4.3770785
485,2024-05-15 22:10:29.052100,-2.6415231,1.5400622,-0.03636453,1.2202033,0.8313876,-4.2420774
486,2024-05-15 22:10:29.068535,-2.892902,1.8219483,-0.1210524,-0.38331795,-0.2302962,-3.63671
487,2024-05-15 22:10:29.085459,-3.041045,1.9041957,-0.026602242,-0.79626286,-0.118507855,-3.3477707
488,2024-05-15 22:10:29.102074,-3.305359,2.0796728,0.44027928,-1.7437148,0.12095132,-2.1333704
489,2024-05-15 22:10:29.118754,-3.4186013,2.1826649,1.1297716,-2.1132884,-0.09590584,-0.8829293
490,2024-05-15 22:10:29.135375,-3.4759548,2.2234225,1.5493364,-1.8231273,-0.18325958,-0.13889548
491,2024-05-15 22:10:29.152041,-3.4759548,2.2234225,1.5493364,-1.1976013,-0.30787608,0.62041
492,2024-05-15 22:10:29.168703,-3.4759548,2.2234225,1.5493364,-1.1976013,-0.30787608,0.62041
493,2024-05-15 22:10:29.185359,-3.4759548,2.2234225,1.5493364,-1.1976013,-0.30787608,0.62041
494,2024-05-15 22:10:29.202044,-3.4759548,2.2234225,1.5493364,-1.1976013,-0.30787608,0.62041
495,2024-05-15 22:10:29.218684,-3.4759548,2.2234225,1.5493364,-1.1976013,-0.30787608,0.62041
496,2024-05-15 22:10:29.235340,-3.4759548,2.2234225,1.5493364,-1.1976013,-0.30787608,0.62041
497,2024-05-15 22:10:29.251779,-3.4759548,2.2234225,1.5493364,-1.1976013,-0.30787608,0.62041
498,2024-05-15 22:10:29.268272,-3.4759548,2.2234225,1.5493364,-1.1976013,-0.30787608,0.62041
499,2024-05-15 22:10:29.285053,-2.7389019,0.57698184,0.06687169,-1.452943,-4.076304,6.442567
500,2024-05-15 22:10:29.301964,-2.6007657,0.21184167,0.3743838,-1.2110404,-4.223522,6.8872766
501,2024-05-15 22:10:29.318427,-2.5326736,0.105676785,0.41074833,-0.6747007,-4.7061057,6.9282045
502,2024-05-15 22:10:29.335645,-2.4184241,0.041245673,0.29384494,-0.10476339,-5.001154,6.8646746
503,2024-05-15 22:10:29.351712,-2.2261071,0.031483386,-0.09493827,-0.052839845,-4.8209486,6.865896
504,2024-05-15 22:10:29.368537,-1.9398282,0.027090356,-0.4829893,-0.42546764,-4.5998154,6.617885
505,2024-05-15 22:10:29.385353,-1.8307344,0.03734076,-0.55062366,-0.5708536,-4.629137,6.518314
506,2024-05-15 22:10:29.401965,-1.3694357,-0.04148973,-0.61822754,-1.1664472,-4.6266932,6.0754366
507,2024-05-15 22:10:29.418601,-1.1305037,-0.07809832,-0.5535523,-1.181108,-4.5540004,5.9117246
508,2024-05-15 22:10:29.435265,-0.74660164,-0.17547716,-0.38756293,-0.9550878,-4.2082505,5.3918786
509,2024-05-15 22:10:29.452116,-0.9564909,-0.36266908,-0.58576787,-0.7883216,-4.0262127,5.1047716
510,2024-05-15 22:10:29.468575,-0.7751563,-0.47737598,-0.5286585,-0.9673051,-3.8722749,5.275203
511,2024-05-15 22:10:29.485105,-0.64434165,-0.48323336,-0.46736962,-0.86101454,-3.3786957,4.8616476
512,2024-05-15 22:10:29.501957,-0.26748675,-0.39342028,-0.30214286,-0.7809912,-3.3402112,4.596532
513,2024-05-15 22:10:29.518252,-0.13740423,-0.34509695,-0.18743597,-0.22510384,-3.6609154,3.7645335
514,2024-05-15 22:10:29.535231,-0.13740423,-0.34509695,-0.18743597,-0.22510384,-3.6609154,3.7645335
515,2024-05-15 22:10:29.551896,-0.1632743,-0.3287451,-0.4166057,0.4334089,-3.5399642,3.1512246
516,2024-05-15 22:10:29.568361,-0.5037647,-0.29311275,-0.9333054,0.10598512,-3.445891,3.3876295
517,2024-05-15 22:10:29.585242,-0.43149322,-0.36413342,-0.81225306,-0.5665775,-3.5246925,3.597767
518,2024-05-15 22:10:29.601901,-0.4424758,-0.3939084,-0.71072525,-0.63255095,-3.4923167,3.5708892
519,2024-05-15 22:10:29.618558,-0.34631723,-0.42685616,-0.49985978,0.27152961,-2.8215866,3.4346662
520,2024-05-15 22:10:29.634704,-0.35168648,-0.47151858,-0.564779,0.91599244,-2.4929411,3.3295975
521,2024-05-15 22:10:29.651857,-0.7827221,-0.5042528,-1.0258032,0.90133166,-2.5332582,3.49392
522,2024-05-15 22:10:29.668017,-0.5725888,-0.756608,-1.3643105,-0.5439755,-3.436117,4.30576
523,2024-05-15 22:10:29.685210,-0.41977844,-0.8681421,-1.2608302,-0.7101309,-3.513697,4.3265295
524,2024-05-15 22:10:29.701734,-0.22843759,-0.966009,-1.1185449,-0.64599,-3.4874296,4.1860304
525,2024-05-15 22:10:29.718378,-0.14350566,-1.323309,-0.7649059,1.0149527,-2.846632,3.5873826
526,2024-05-15 22:10:29.735174,-0.12910628,-1.5088229,-0.92476344,1.5470163,-2.5350907,3.5959346
527,2024-05-15 22:10:29.751316,-0.009518232,-1.888576,-1.5268831,1.7956384,-2.2308798,3.9642863
528,2024-05-15 22:10:29.768494,0.36096066,-2.1675334,-1.8358595,1.4944818,-2.1520782,4.193361
529,2024-05-15 22:10:29.785165,0.7944369,-2.446979,-1.8509911,1.0638218,-1.9871446,4.10112
530,2024-05-15 22:10:29.801818,0.7944369,-2.446979,-1.8509911,1.0638218,-1.9871446,4.10112
531,2024-05-15 22:10:29.818904,0.7944369,-2.446979,-1.8509911,1.0638218,-1.9871446,4.10112
532,2024-05-15 22:10:29.835145,0.7944369,-2.446979,-1.8509911,1.0638218,-1.9871446,4.10112
533,2024-05-15 22:10:29.851811,0.7944369,-2.446979,-1.8509911,1.0638218,-1.9871446,4.10112
534,2024-05-15 22:10:29.868455,0.7944369,-2.446979,-1.8509911,1.0638218,-1.9871446,4.10112
535,2024-05-15 22:10:29.885132,0.7944369,-2.446979,-1.8509911,1.0638218,-1.9871446,4.10112
536,2024-05-15 22:10:29.901781,0.7944369,-2.446979,-1.8509911,1.0638218,-1.9871446,4.10112
537,2024-05-15 22:10:29.918431,0.7944369,-2.446979,-1.8509911,1.0638218,-1.9871446,4.10112
538,2024-05-15 22:10:29.935374,1.714319,-2.6339574,-1.2593659,0.97524637,-0.48502702,1.9148334
539,2024-05-15 22:10:29.951584,0.5401292,-2.0984652,-1.4358193,3.175583,1.6701056,-5.724036
540,2024-05-15 22:10:29.969124,-0.13911264,-1.5576344,-1.3982345,1.988061,1.391551,-5.819331
541,2024-05-15 22:10:29.984904,-0.16278619,-1.4223962,-1.3496671,1.8585575,1.382999,-5.80406
542,2024-05-15 22:10:30.001622,-0.2604091,-1.2276385,-1.0221423,2.3197608,2.3542747,-5.711819
543,2024-05-15 22:10:30.017901,-0.3109289,-1.131968,-1.0516732,2.9843822,3.3261611,-5.6886063
544,2024-05-15 22:10:30.034517,-0.31581008,-1.0150646,-1.2837716,3.116329,3.5821137,-5.662339
545,2024-05-15 22:10:30.051220,-0.28579104,-0.99700433,-1.3074452,2.9269607,3.4831536,-5.686163
546,2024-05-15 22:10:30.067878,-0.272856,-0.9799203,-1.0514292,2.0002782,2.7989845,-5.948835
547,2024-05-15 22:10:30.084517,-0.36584184,-1.0194577,-0.82323563,1.7626517,2.6151142,-6.1003294
548,2024-05-15 22:10:30.101180,-0.5284144,-0.9889505,-0.57673776,1.7033978,2.4489589,-6.101551
549,2024-05-15 22:10:30.118039,-0.7265889,-0.92744803,-0.43661842,1.8170186,2.3591616,-5.9042416
550,2024-05-15 22:10:30.134914,-0.7082847,-0.8964527,-0.41123646,1.8035797,2.3322835,-5.772906
551,2024-05-15 22:10:30.151696,-0.641901,-0.91768575,-0.3499781,1.779756,2.4666739,-5.876142
552,2024-05-15 22:10:30.167869,-0.7446492,-0.92427534,-0.31312546,1.7198911,2.4526238,-5.9989257
553,2024-05-15 22:10:30.184459,-0.8085922,-0.9721105,-0.13081467,1.5946637,2.2650883,-6.0422974
554,2024-05-15 22:10:30.201658,-0.85911196,-0.999933,0.01586372,1.6215417,1.9437732,-6.3794947
555,2024-05-15 22:10:30.217974,-1.072174,-1.0087191,0.0353883,1.9398025,1.6804903,-6.604904
556,2024-05-15 22:10:30.234532,-1.3721204,-0.9816288,-0.08371163,2.363743,1.3396275,-6.868187
557,2024-05-15 22:10:30.251644,-1.7772858,-0.8693625,-0.3192269,2.4419339,1.1478158,-7.3965855
558,2024-05-15 22:10:30.268199,-2.4460027,-0.5633146,-0.34973404,2.1132884,0.14782938,-8.016614
559,2024-05-15 22:10:30.285010,-2.7552538,-0.45345837,-0.35363895,1.6734654,-0.5290093,-8.052654
560,2024-05-15 22:10:30.301593,-3.0920527,-0.064919226,-0.44516042,1.4321736,-0.7263188,-7.938423
561,2024-05-15 22:10:30.318019,-3.2099326,0.27432033,-0.3968371,0.8054258,-1.0567969,-7.3794813
562,2024-05-15 22:10:30.334939,-3.1479418,0.70096296,-0.1261776,0.75411314,-0.54244834,-6.34101
563,2024-05-15 22:10:30.351144,-2.824078,0.991147,-0.020744866,1.0601566,0.90285885,-5.3801193
564,2024-05-15 22:10:30.368285,-2.48554,1.1180567,-0.1044565,0.9092729,1.3115277,-4.82301
565,2024-05-15 22:10:30.384944,-2.0152416,1.4126339,0.041001618,0.1469131,0.35185838,-4.715498
566,2024-05-15 22:10:30.401249,-2.1663132,1.5532414,0.24015234,0.1133155,0.26939157,-4.7368784
567,2024-05-15 22:10:30.418258,-2.467968,1.8863794,-0.015375607,-0.27763826,-0.7812967,-4.3269877
568,2024-05-15 22:10:30.434920,-2.467968,1.8863794,-0.015375607,-0.27763826,-0.7812967,-4.3269877
569,2024-05-15 22:10:30.451619,-2.467968,1.8863794,-0.015375607,-0.27763826,-0.7812967,-4.3269877
570,2024-05-15 22:10:30.468260,-2.467968,1.8863794,-0.015375607,-0.27763826,-0.7812967,-4.3269877
571,2024-05-15 22:10:30.484922,-2.467968,1.8863794,-0.015375607,-0.27763826,-0.7812967,-4.3269877
572,2024-05-15 22:10:30.501581,-2.467968,1.8863794,-0.015375607,-0.27763826,-0.7812967,-4.3269877
573,2024-05-15 22:10:30.518240,-2.467968,1.8863794,-0.015375607,-0.27763826,-0.7812967,-4.3269877
574,2024-05-15 22:10:30.534892,-2.467968,1.8863794,-0.015375607,-0.27763826,-0.7812967,-4.3269877
575,2024-05-15 22:10:30.551556,-2.467968,1.8863794,-0.015375607,-0.27763826,-0.7812967,-4.3269877
576,2024-05-15 22:10:30.568227,-2.467968,1.8863794,-0.015375607,-0.27763826,-0.7812967,-4.3269877
577,2024-05-15 22:10:30.585101,-2.4455147,1.5444553,0.5611181,0.18967366,-1.7397442,4.3949466
578,2024-05-15 22:10:30.600989,-2.196088,1.3093976,0.18206671,0.116980694,-1.7580702,4.751081
579,2024-05-15 22:10:30.619092,-2.1846173,1.1060979,-0.117147475,-0.6747007,-2.3041837,4.949612
580,2024-05-15 22:10:30.634371,-2.226351,0.88620234,0.024405725,-1.3222178,-2.896723,5.5311556
581,2024-05-15 22:10:30.651384,-2.2090232,0.81566983,0.09054524,-1.3197744,-2.9345965,5.7583976
582,2024-05-15 22:10:30.668198,-2.0996854,0.6846111,0.16058967,-1.1725558,-2.9272664,6.0949845
583,2024-05-15 22:10:30.684864,-1.820484,0.4893348,0.17938207,-0.79381937,-2.9914072,6.1591253
584,2024-05-15 22:10:30.700993,-1.782411,0.46248847,0.1432616,-0.5390886,-3.2418618,6.04245
585,2024-05-15 22:10:30.717679,-1.6447629,0.509378,0.1010397,-0.35094208,-3.4245105,6.1817274
586,2024-05-15 22:10:30.734341,-1.5756946,0.40635532,0.090789296,-0.26542094,-3.4898732,6.3197827
587,2024-05-15 22:10:30.751291,-1.4319144,0.2774931,0.11031388,-0.06811147,-3.3310483,6.3662086
588,2024-05-15 22:10:30.767795,-1.1912739,0.16522676,0.03465613,0.13713925,-3.1093042,6.350937
589,2024-05-15 22:10:30.784835,-1.0333688,0.06443111,-0.03636453,0.21227567,-2.8625145,6.117586
590,2024-05-15 22:10:30.802188,-0.9372103,-0.06882414,-0.16205402,0.016798794,-2.9064968,5.8536925
591,2024-05-15 22:10:30.817557,-0.88107723,-0.15546446,-0.25821257,-0.4016439,-2.9077187,5.592853
592,2024-05-15 22:10:30.832818,-0.8176223,-0.21403822,-0.24747404,-0.61666846,-2.8350255,5.5219927
593,2024-05-15 22:10:30.850723,-0.7273211,-0.26821893,-0.2208718,-0.8536842,-2.6505444,5.248936
594,2024-05-15 22:10:30.867616,-0.66240185,-0.34973404,-0.25040275,-1.0424415,-2.7629435,4.868978
595,2024-05-15 22:10:30.884440,-0.65337175,-0.38975942,-0.27602875,-1.1676689,-2.9633074,4.636238
596,2024-05-15 22:10:30.918424,-0.33435842,-0.6487347,-0.3321619,-0.24220806,-2.7036896,4.676555
597,2024-05-15 22:10:30.934931,-0.24576566,-0.6804621,-0.42124277,0.13408493,-2.2602015,4.550717
598,2024-05-15 22:10:30.951597,-0.174745,-0.75734013,-0.5969946,0.13408493,-2.2602015,4.550717
599,2024-05-15 22:10:30.967220,-0.071264714,-0.79858583,-0.67021173,0.40286562,-1.7183639,4.3448553
600,2024-05-15 22:10:30.984314,0.34900185,-0.9462405,-0.7580723,-0.07238753,-1.6157386,3.666795
601,2024-05-15 22:10:31.001795,0.4271002,-1.0018855,-0.85130215,-0.5897904,-2.1025982,3.0858622
602,2024-05-15 22:10:31.017765,0.53427184,-1.0165288,-0.812009,-0.8078693,-2.2956316,2.8036425
603,2024-05-15 22:10:31.036767,0.85545117,-1.0938951,-0.6397045,-1.0210613,-2.4440718,1.7236327
604,2024-05-15 22:10:31.051530,0.7846745,-1.1100029,-0.5979708,-0.92087936,-2.3469443,1.4646258
605,2024-05-15 22:10:31.068852,0.8195747,-1.1339204,-0.5559929,-0.6429357,-2.371379,1.4310282
606,2024-05-15 22:10:31.086152,0.8195747,-1.1339204,-0.5559929,-0.6429357,-2.371379,1.4310282
607,2024-05-15 22:10:31.101311,0.8195747,-1.1339204,-0.5559929,-0.6429357,-2.371379,1.4310282
608,2024-05-15 22:10:31.117369,0.8195747,-1.1339204,-0.5559929,-0.6429357,-2.371379,1.4310282
609,2024-05-15 22:10:31.133476,0.8195747,-1.1339204,-0.5559929,-0.6429357,-2.371379,1.4310282
610,2024-05-15 22:10:31.148833,0.8195747,-1.1339204,-0.5559929,-0.6429357,-2.371379,1.4310282
611,2024-05-15 22:10:31.167661,0.8195747,-1.1339204,-0.5559929,-0.6429357,-2.371379,1.4310282
612,2024-05-15 22:10:31.184367,0.8195747,-1.1339204,-0.5559929,-0.6429357,-2.371379,1.4310282
613,2024-05-15 22:10:31.200981,0.8195747,-1.1339204,-0.5559929,-0.6429357,-2.371379,1.4310282
614,2024-05-15 22:10:31.217475,1.9581323,-1.8470863,-1.2083579,0.27885997,0.9950995,-0.716774
615,2024-05-15 22:10:31.234674,2.0237837,-1.8012035,-0.9088997,0.6264423,1.3048081,-1.4754686
616,2024-05-15 22:10:31.251020,1.8785696,-1.7216408,-0.7793053,1.6734654,1.8863518,-2.661769
617,2024-05-15 22:10:31.267991,1.7938818,-1.6664839,-0.8288489,2.0143282,2.0421226,-3.1303027
618,2024-05-15 22:10:31.285676,1.4367956,-1.55617,-0.94111526,2.2611177,2.044566,-4.0716457
619,2024-05-15 22:10:31.301376,0.98309314,-1.3572329,-1.0018855,1.933083,1.6548339,-4.6421943
620,2024-05-15 22:10:31.318034,0.78809136,-1.2886528,-1.0121359,1.6844609,1.4899004,-4.78758
621,2024-05-15 22:10:31.334607,0.36266908,-1.0912105,-0.8644812,0.9257663,1.1942415,-5.0618587
622,2024-05-15 22:10:31.351273,0.008542004,-0.99700433,-0.5962624,0.8542951,1.72264,-5.004437
623,2024-05-15 22:10:31.367971,-0.14204131,-0.9369663,-0.4097721,1.040609,2.1496348,-4.885929
624,2024-05-15 22:10:31.384564,-0.40903994,-0.7937047,-0.32801294,2.0387628,3.6022723,-4.451604
625,2024-05-15 22:10:31.401296,-0.8425161,-0.569172,-0.49128726,2.6007588,4.056756,-3.8841102
626,2024-05-15 22:10:31.417952,-0.8671659,-0.4471129,-0.5899168,2.626415,3.8832703,-3.6385424
627,2024-05-15 22:10:31.434622,-0.7673465,-0.26406994,-0.633115,2.245846,2.620001,-3.618384
628,2024-05-15 22:10:31.451246,-0.778085,-0.21232979,-0.5406173,1.924531,1.5784758,-4.3227115
629,2024-05-15 22:10:31.467957,-0.89205974,-0.17254847,-0.47884035,1.8805487,1.4807373,-4.543234
630,2024-05-15 22:10:31.484607,-1.148808,-0.18011424,-0.38805103,1.8451185,1.582141,-4.580497
631,2024-05-15 22:10:31.501273,-1.1392897,-0.17376876,-0.2630937,1.7754798,1.72264,-4.39235
632,2024-05-15 22:10:31.516851,-1.0443515,-0.272856,-0.1403329,1.7620409,1.7983873,-4.499252
633,2024-05-15 22:10:31.534544,-0.93794256,-0.38951537,0.01586372,1.7589865,1.5460999,-4.940296
634,2024-05-15 22:10:31.550977,-0.9433118,-0.43173727,0.14960709,1.8823812,0.97005403,-5.7484713
635,2024-05-15 22:10:31.567906,-1.1056099,-0.439059,0.15302388,2.0039434,0.5009095,-6.161416
636,2024-05-15 22:10:31.584565,-1.3787099,-0.43100512,0.08786061,2.1584923,-0.2510656,-6.5597
637,2024-05-15 22:10:31.601196,-1.6760021,-0.5332956,0.08542004,2.31915,-0.44348818,-7.303734
638,2024-05-15 22:10:31.617912,-1.790465,-0.48713827,0.08542004,2.500577,-0.36713,-7.5493016
639,2024-05-15 22:10:31.634590,-2.5133932,-0.1701079,-0.38194957,2.8915308,-0.5369505,-8.194375
640,2024-05-15 22:10:31.651244,-2.9082775,-0.025870068,-0.3746279,2.7968466,-0.66828656,-7.652538
641,2024-05-15 22:10:31.667862,-2.8082142,0.044418417,-0.33582276,2.9184086,-0.52778757,-7.3159513
642,2024-05-15 22:10:31.684534,-2.4757776,0.3109289,-0.83006924,2.6148088,-1.1148291,-7.6684203
643,2024-05-15 22:10:31.701213,-2.9458625,0.6645984,-0.87204707,2.1755965,-1.2822062,-8.037994
644,2024-05-15 22:10:31.717858,-2.9458625,0.6645984,-0.87204707,2.1755965,-1.2822062,-8.037994
645,2024-05-15 22:10:31.734514,-2.9458625,0.6645984,-0.87204707,2.1755965,-1.2822062,-8.037994
646,2024-05-15 22:10:31.751144,-2.9458625,0.6645984,-0.87204707,2.1755965,-1.2822062,-8.037994
647,2024-05-15 22:10:31.767832,-2.9458625,0.6645984,-0.87204707,2.1755965,-1.2822062,-8.037994
648,2024-05-15 22:10:31.784511,-2.9458625,0.6645984,-0.87204707,2.1755965,-1.2822062,-8.037994
649,2024-05-15 22:10:31.801185,-2.9458625,0.6645984,-0.87204707,2.1755965,-1.2822062,-8.037994
650,2024-05-15 22:10:31.817820,-2.9458625,0.6645984,-0.87204707,2.1755965,-1.2822062,-8.037994
651,2024-05-15 22:10:31.834767,-4.559386,1.6657517,-0.81371737,-1.2519683,-1.8643607,-6.954319
652,2024-05-15 22:10:31.851126,-2.747688,2.7762427,0.37316352,-2.6349673,-1.3591752,-1.147434
653,2024-05-15 22:10:31.868384,-3.0442176,2.6874058,0.9184179,-2.4126122,-0.6805039,-0.33620495
654,2024-05-15 22:10:31.884455,-3.1120656,2.6473806,0.9076794,-1.5457945,-0.4886922,1.1561388
655,2024-05-15 22:10:31.901132,-3.0617898,2.3244622,0.7173148,-1.0210613,-1.4526376,2.9392545
656,2024-05-15 22:10:31.917776,-2.7833204,2.1199422,0.70364755,-0.7119634,-1.6071864,3.5434003
657,2024-05-15 22:10:31.935546,-2.640791,1.7638626,0.345341,-0.30818152,-1.5204436,4.382729
658,2024-05-15 22:10:31.951119,-2.6981444,1.6074221,-0.039781332,-0.69913524,-1.3799446,5.345453
659,2024-05-15 22:10:31.967776,-2.794791,1.5483602,-0.15082738,-1.1169671,-1.4892895,5.6545506
660,2024-05-15 22:10:31.984464,-2.8611746,1.3489349,-0.10152781,-2.3283129,-2.0048597,6.267248
661,2024-05-15 22:10:32.001044,-2.9375644,1.085353,0.400742,-2.7766879,-2.270586,6.5018206
662,2024-05-15 22:10:32.017717,-3.0983982,1.029952,0.58259517,-2.5732698,-2.4110851,6.7095146
663,2024-05-15 22:10:32.034409,-3.1154823,0.863261,0.65019906,-1.738828,-3.0543263,7.1866007
664,2024-05-15 22:10:32.051051,-2.9978466,0.6538599,0.47810817,-0.9251554,-3.7586539,7.243411
665,2024-05-15 22:10:32.067444,-2.9075456,0.57405317,0.18914436,-0.5928447,-4.4416013,7.15789
666,2024-05-15 22:10:32.084428,-2.862883,0.49006698,0.16058967,-0.49754974,-4.5674396,7.124903
667,2024-05-15 22:10:32.100885,-2.7952793,0.1871919,0.16815543,-0.25442538,-4.125173,7.162777
668,2024-05-15 22:10:32.117678,-2.7952793,0.1871919,0.16815543,-0.25442538,-4.125173,7.162777
669,2024-05-15 22:10:32.134364,-2.695948,-0.20183535,0.11226633,0.07971791,-3.640146,7.3270993
670,2024-05-15 22:10:32.151034,-2.4242816,-0.49690056,0.08102701,0.30634892,-3.8154643,7.4358335
671,2024-05-15 22:10:32.167153,-1.7130988,-0.667039,-0.047347106,0.49877146,-4.085467,7.1230707
672,2024-05-15 22:10:32.184349,-1.505162,-0.66289,-0.12373702,0.4877759,-4.0982947,6.735782
673,2024-05-15 22:10:32.201119,-1.1683326,-0.69583774,-0.19109683,0.30573806,-3.8918226,5.9227204
674,2024-05-15 22:10:32.217160,-1.0760789,-0.6960818,-0.18377511,0.20189096,-3.6596937,5.4725127
675,2024-05-15 22:10:32.234342,-1.3613818,-0.68534327,-0.1637624,0.15057829,-3.390913,5.058346
676,2024-05-15 22:10:32.251021,-1.1126875,-0.66264594,-0.19817449,0.027794369,-3.5472944,5.125541
677,2024-05-15 22:10:32.267608,-1.0475242,-0.64897877,-0.17376876,0.038179077,-3.5558467,5.0742283
678,2024-05-15 22:10:32.284341,-0.88058907,-0.64482975,-0.1683995,0.11636983,-3.5081992,4.8940234
679,2024-05-15 22:10:32.301004,-0.64897877,-0.68534327,-0.2328306,0.122478485,-3.3457088,3.8665478
680,2024-05-15 22:10:32.317271,-0.9816288,-0.68021804,-0.36315718,0.06627888,-3.26874,3.8683805
681,2024-05-15 22:10:32.334316,-0.8556952,-0.72170776,-0.4497975,-0.124311075,-3.3347135,4.1218896
682,2024-05-15 22:10:32.350939,-0.8556952,-0.72170776,-0.4497975,-0.30390546,-3.412904,4.1805325
683,2024-05-15 22:10:32.367624,-0.8556952,-0.72170776,-0.4497975,-0.30390546,-3.412904,4.1805325
684,2024-05-15 22:10:32.384258,-0.8556952,-0.72170776,-0.4497975,-0.30390546,-3.412904,4.1805325
685,2024-05-15 22:10:32.400934,-0.8556952,-0.72170776,-0.4497975,-0.30390546,-3.412904,4.1805325
686,2024-05-15 22:10:32.417604,-0.8556952,-0.72170776,-0.4497975,-0.30390546,-3.412904,4.1805325
687,2024-05-15 22:10:32.434274,-0.8556952,-0.72170776,-0.4497975,-0.30390546,-3.412904,4.1805325
688,2024-05-15 22:10:32.450604,-0.14789869,-1.4651061,-1.5835044,1.4908166,-1.9150625,3.9367974
689,2024-05-15 22:10:32.467581,-0.14789869,-1.4651061,-1.5835044,1.4908166,-1.9150625,3.9367974
690,2024-05-15 22:10:32.484240,-0.14789869,-1.4651061,-1.5835044,1.4908166,-1.9150625,3.9367974
691,2024-05-15 22:10:32.500528,1.6640434,-2.4269662,-2.2283037,1.348485,-1.0677924,2.7627144
692,2024-05-15 22:10:32.517064,2.2187855,-2.6669052,-1.8380562,-0.21166481,-0.11484267,1.558699
693,2024-05-15 22:10:32.534240,2.4247699,-2.7723377,-1.3855435,-0.12675454,0.44837508,0.80428046
694,2024-05-15 22:10:32.550899,2.5631807,-2.6930192,-0.87912476,1.1328496,1.5693128,-0.8945358
695,2024-05-15 22:10:32.568584,2.1133528,-2.4735813,-0.97699165,2.5292876,2.2730296,-2.9708667
696,2024-05-15 22:10:32.584280,2.0269563,-2.442342,-1.0319046,2.6068676,2.2479842,-3.1803935
697,2024-05-15 22:10:32.600843,0.99431974,-2.0254922,-1.4421648,2.3936756,1.3622295,-4.5933247
698,2024-05-15 22:10:32.617177,0.51523536,-1.6386615,-1.4992741,1.4987578,1.1264355,-5.045976
699,2024-05-15 22:10:32.634207,0.51523536,-1.5620273,-1.4582726,1.4987578,1.1264355,-5.045976
700,2024-05-15 22:10:32.650870,0.16205402,-1.2156796,-0.999689,0.99296147,1.9168952,-5.4002776
701,2024-05-15 22:10:32.667397,0.060038086,-1.1802914,-0.7856508,1.6417004,2.4471262,-5.5749855
702,2024-05-15 22:10:32.684237,-0.14985114,-1.0541137,-0.6233527,1.9929478,2.6316075,-5.5792613
703,2024-05-15 22:10:32.700692,-0.38463423,-0.8329979,-0.999933,2.2165246,2.7159069,-5.286657
704,2024-05-15 22:10:32.716977,-0.40830776,-0.71121335,-1.0694894,1.3674219,2.63344,-5.130886
705,2024-05-15 22:10:32.734190,-0.43808278,-0.6931531,-0.9545384,0.91415983,2.5185974,-5.130886
706,2024-05-15 22:10:32.750817,-0.36218095,-0.6919328,-0.65288365,0.38881573,2.4697282,-5.268942
707,2024-05-15 22:10:32.764794,-0.36218095,-0.6919328,-0.65288365,0.32895094,2.5100453,-5.3850064
708,2024-05-15 22:10:32.783895,-0.49690056,-0.675581,-0.25674823,0.5494733,2.6132815,-5.6556196
709,2024-05-15 22:10:32.800627,-0.63506746,-0.70950496,-0.23405088,0.5494733,2.6132815,-5.6556196
710,2024-05-15 22:10:32.817471,-0.6653306,-0.71072525,-0.23405088,0.5531385,2.4080307,-5.8828616
711,2024-05-15 22:10:32.834167,-0.64482975,-0.70267135,-0.19134088,-0.16646078,1.8240436,-6.2121177
712,2024-05-15 22:10:32.850739,-0.74489325,-0.7666143,-0.019036464,-0.7431176,1.3726143,-6.5395417
713,2024-05-15 22:10:32.866981,-0.7588045,-0.77149546,0.03929322,-0.8585711,1.3805555,-6.925608
714,2024-05-15 22:10:32.884113,-1.055334,-0.95990765,0.38805103,-0.6606508,1.5815301,-7.0074644
715,2024-05-15 22:10:32.900626,-1.4458256,-0.88278556,0.6311625,-0.10720685,2.0500638,-7.0367856
716,2024-05-15 22:10:32.916905,-1.7367723,-0.55818945,0.06955632,1.8793269,2.2919664,-7.222489
717,2024-05-15 22:10:32.933915,-1.8051084,-0.4419877,-0.23502712,1.8707749,1.3848315,-7.5004325
718,2024-05-15 22:10:32.950759,-1.9681387,-0.5445222,-0.52719414,1.2654073,0.09162979,-8.059985
719,2024-05-15 22:10:32.967735,-2.46748,-0.5064493,-0.26504618,0.98746365,1.0622946,-7.8321323
720,2024-05-15 22:10:32.984068,-2.598813,-0.37169918,-0.054912884,1.4694363,2.2064452,-7.4863825
721,2024-05-15 22:10:33.000742,-2.598813,-0.37169918,-0.054912884,1.4694363,2.2064452,-7.4863825
722,2024-05-15 22:10:33.017396,-2.598813,-0.37169918,-0.054912884,1.4694363,2.2064452,-7.4863825
723,2024-05-15 22:10:33.034065,-2.598813,-0.37169918,-0.054912884,1.4694363,2.2064452,-7.4863825
724,2024-05-15 22:10:33.050715,-2.598813,-0.37169918,-0.054912884,1.4694363,2.2064452,-7.4863825
725,2024-05-15 22:10:33.067364,-2.598813,-0.37169918,-0.054912884,1.4694363,2.2064452,-7.4863825
726,2024-05-15 22:10:33.084064,-2.7450035,-0.1637624,-0.30092257,2.083356,2.5357015,-7.1669
727,2024-05-15 22:10:33.100709,-2.7450035,-0.1637624,-0.30092257,2.083356,2.5357015,-7.1669
728,2024-05-15 22:10:33.116959,-3.2709467,0.82909304,-0.31507793,-0.52381694,1.0317514,-5.377065
729,2024-05-15 22:10:33.134032,-3.254839,1.2476511,0.45321432,-1.1267409,0.34574974,-4.6415834
730,2024-05-15 22:10:33.150373,-3.4322684,1.7960784,0.7468457,-0.20433442,0.89369583,-3.0075188
731,2024-05-15 22:10:33.166891,-3.3283002,1.876373,0.71218956,0.043676864,0.9242391,-2.3881013
732,2024-05-15 22:10:33.183991,-2.875818,2.0838218,0.6326269,0.122478485,0.7098254,-1.7002671
733,2024-05-15 22:10:33.200425,-2.5492694,2.2678409,0.58723223,-0.022296581,-0.18387043,-1.3655128
734,2024-05-15 22:10:33.218530,-2.8631272,2.4711406,0.39024755,-0.41447207,-0.95905846,-0.67951125
735,2024-05-15 22:10:33.233970,-3.0825346,2.489933,0.30019042,-0.67103547,-1.097114,-0.39668062
736,2024-05-15 22:10:33.250693,-3.3339133,2.4616225,0.50840175,-1.4871514,-1.287093,1.309466
737,2024-05-15 22:10:33.267360,-3.370278,2.1372705,0.7075525,-1.6172657,-1.6120734,2.6802475
738,2024-05-15 22:10:33.284019,-3.3385506,1.9527631,0.7932165,-1.5922203,-1.7330247,2.9435306
739,2024-05-15 22:10:33.300671,-3.306579,1.4802377,0.87277925,-0.6075055,-2.3768766,4.800561
740,2024-05-15 22:10:33.317113,-3.097666,1.208846,0.3397277,-0.24281894,-2.4581218,5.281923
741,2024-05-15 22:10:33.333964,-3.067159,1.1483198,0.18816814,0.09010262,-2.63344,5.8628554
742,2024-05-15 22:10:33.350626,-2.998335,0.7868711,-0.19939478,-0.77854776,-3.585779,6.4749427
743,2024-05-15 22:10:33.367310,-2.9502554,0.70267135,-0.15058333,-0.9850202,-3.8081338,6.517092
744,2024-05-15 22:10:33.383998,-3.1301258,0.5240214,-0.06638357,-1.1346822,-4.1551056,6.7095146
745,2024-05-15 22:10:33.400639,-3.0556881,0.19134088,0.10030753,-0.79137594,-4.289496,7.388797
746,2024-05-15 22:10:33.417268,-2.9307308,0.08908089,0.14008886,-0.52748215,-4.2864413,7.5409026
747,2024-05-15 22:10:33.433993,-2.8689845,-0.023673553,0.020012695,-0.082161374,-4.255287,7.6985054
748,2024-05-15 22:10:33.450601,-2.0559993,0.048567392,-0.31947094,-0.22693644,-4.448321,7.820068
749,2024-05-15 22:10:33.466929,-1.8143826,0.2403964,-0.4634647,-1.2281445,-4.7531424,6.881168
750,2024-05-15 22:10:33.483927,-2.037207,0.2865232,-0.3275248,-1.7534887,-4.910135,6.567794
751,2024-05-15 22:10:33.500572,-2.2444115,0.122516744,0.40708748,-1.6685784,-4.8380527,6.754719
752,2024-05-15 22:10:33.517001,-2.101394,0.028554698,0.598947,-1.0180069,-4.6114216,6.883611
753,2024-05-15 22:10:33.534257,-1.5376216,-0.5618503,0.21013328,1.6148223,-4.163047,6.4340143
754,2024-05-15 22:10:33.551007,-1.5376216,-0.5618503,0.21013328,1.6148223,-4.163047,6.4340143
755,2024-05-15 22:10:33.566635,-1.2391092,-0.7673465,0.084931925,1.8811595,-4.0909643,6.250755
756,2024-05-15 22:10:33.583448,-1.1270869,-0.81689006,0.035632357,2.2592852,-3.8166862,5.8182626
757,2024-05-15 22:10:33.599945,-0.9994449,-0.884494,-0.24161668,2.250122,-3.5027013,4.800561
758,2024-05-15 22:10:33.617781,-1.0248269,-0.85496306,-0.35559142,1.6911805,-3.8716638,4.6081386
759,2024-05-15 22:10:33.633527,-1.0248269,-0.85496306,-0.35559142,1.6911805,-3.8716638,4.6081386
760,2024-05-15 22:10:33.650191,-1.0248269,-0.85496306,-0.35559142,1.6911805,-3.8716638,4.6081386
761,2024-05-15 22:10:33.666851,-1.0248269,-0.85496306,-0.35559142,1.6911805,-3.8716638,4.6081386
762,2024-05-15 22:10:33.683901,-1.0248269,-0.85496306,-0.35559142,1.6911805,-3.8716638,4.6081386
763,2024-05-15 22:10:33.700515,-1.0248269,-0.85496306,-0.35559142,1.6911805,-3.8716638,4.6081386
764,2024-05-15 22:10:33.717064,-1.0248269,-0.85496306,-0.35559142,1.6911805,-3.8716638,4.6081386
765,2024-05-15 22:10:33.733819,-1.0248269,-0.85496306,-0.35559142,1.6911805,-3.8716638,4.6081386
766,2024-05-15 22:10:33.750446,-1.0248269,-0.85496306,-0.35559142,1.6911805,-3.8716638,4.6081386
767,2024-05-15 22:10:33.767149,-1.0248269,-0.85496306,-0.35559142,1.6911805,-3.8716638,4.6081386
768,2024-05-15 22:10:33.784426,-0.16864355,-1.204453,-1.191762,2.0906863,-2.3658812,3.344258
769,2024-05-15 22:10:33.800509,0.06272271,-1.5036978,-1.387984,2.196977,-1.3390167,3.236135
770,2024-05-15 22:10:33.818214,0.4058672,-1.8026677,-1.7545886,2.410169,-0.9584476,3.1878767
771,2024-05-15 22:10:33.833340,0.6343353,-1.9681387,-2.1038344,2.1126773,-0.8582657,3.010115
772,2024-05-15 22:10:33.851699,1.1973754,-2.2405066,-2.4328237,0.03573562,-1.6194037,2.4004714
773,2024-05-15 22:10:33.866649,1.7084616,-2.489689,-2.0149977,-1.2855659,-1.7208074,1.7376826
774,2024-05-15 22:10:33.883759,1.9193271,-2.5639129,-1.8192637,-1.3955216,-1.5314392,1.4609606
775,2024-05-15 22:10:33.900408,2.489445,-2.6061347,-1.2081139,-0.42485678,0.40866885,-0.23846652
776,2024-05-15 22:10:33.917086,2.3024971,-2.542924,-1.1754103,1.0021244,2.172237,-2.0356321
777,2024-05-15 22:10:33.933139,2.2029216,-2.5360904,-1.2312994,1.3387111,2.5118778,-2.6177866
778,2024-05-15 22:10:33.950605,1.9410484,-2.493594,-1.4182471,1.5781704,2.747061,-3.5744016
779,2024-05-15 22:10:33.968314,1.722617,-2.3757143,-1.4138541,1.5781704,2.747061,-3.5744016
780,2024-05-15 22:10:33.983495,1.1468556,-2.2239106,-1.2330077,0.88300574,2.0775528,-6.087501
781,2024-05-15 22:10:34.001562,0.44808912,-1.9410484,-1.084621,0.48166725,1.5216653,-6.8486395
782,2024-05-15 22:10:34.016671,0.18231077,-1.8197519,-1.0277556,0.129198,1.4343116,-7.0917635
783,2024-05-15 22:10:34.033164,-0.25796852,-1.6086423,-0.94965726,-0.008857546,1.5381587,-7.050225
784,2024-05-15 22:10:34.049883,-0.5789343,-1.3996987,-0.7527031,-0.21227567,1.8490891,-6.9164453
785,2024-05-15 22:10:34.066864,-0.84080774,-1.1168364,-0.5406173,0.17806722,3.0934217,-6.3941555
786,2024-05-15 22:10:34.083683,-0.8681421,-1.050697,-0.5298788,0.29229903,3.291342,-6.2444935
787,2024-05-15 22:10:34.100356,-1.0367857,-0.9020661,-0.4378387,0.37659842,3.363424,-5.8688116
788,2024-05-15 22:10:34.116563,-0.95282996,-0.7832102,-0.27041543,0.27947086,3.0567696,-5.5377226
789,2024-05-15 22:10:34.133201,-0.99041486,-0.78125775,-0.17450093,0.30695978,3.0298917,-5.531614
790,2024-05-15 22:10:34.150339,-1.1780949,-0.66947955,-0.031239327,0.6435465,2.8319712,-5.4748034
791,2024-05-15 22:10:34.167044,-1.2325196,-0.6040722,-0.03734076,0.6435465,2.8319712,-5.4748034
792,2024-05-15 22:10:34.183475,-1.1175686,-0.44613665,-0.05588911,0.87689704,1.7849482,-5.5749855
793,2024-05-15 22:10:34.200356,-1.0433753,-0.45248213,0.11568313,0.6001751,1.387275,-6.333069
794,2024-05-15 22:10:34.217140,-1.2447225,-0.42514774,0.3018988,1.0253373,1.432479,-6.830924
795,2024-05-15 22:10:34.233633,-1.4885356,-0.4424758,0.20696054,1.2202033,1.0219775,-7.0477815
796,2024-05-15 22:10:34.249847,-1.8649024,-0.44027928,-0.026602242,1.0180069,-0.29077184,-7.2438693
797,2024-05-15 22:10:34.266971,-2.0616126,-0.3277689,0.16425052,0.95081174,-0.9120218,-7.3251143
798,2024-05-15 22:10:34.283642,-2.0616126,-0.3277689,0.16425052,0.95081174,-0.9120218,-7.3251143
799,2024-05-15 22:10:34.300300,-2.0616126,-0.3277689,0.16425052,0.95081174,-0.9120218,-7.3251143
800,2024-05-15 22:10:34.316962,-2.0616126,-0.3277689,0.16425052,0.95081174,-0.9120218,-7.3251143
801,2024-05-15 22:10:34.333622,-2.0616126,-0.3277689,0.16425052,0.95081174,-0.9120218,-7.3251143
802,2024-05-15 22:10:34.350270,-2.0616126,-0.3277689,0.16425052,0.95081174,-0.9120218,-7.3251143
803,2024-05-15 22:10:34.366923,-2.0616126,-0.3277689,0.16425052,0.95081174,-0.9120218,-7.3251143
804,2024-05-15 22:10:34.383590,-2.0616126,-0.3277689,0.16425052,0.95081174,-0.9120218,-7.3251143
805,2024-05-15 22:10:34.399793,-2.7572062,0.38048524,0.607489,-1.0784826,0.24984388,-5.706932
806,2024-05-15 22:10:34.416730,-2.7318244,0.55867755,0.56599927,-0.18478674,0.52595496,-4.7778063
807,2024-05-15 22:10:34.433416,-2.7318244,0.55867755,0.56599927,-0.18478674,0.52595496,-4.7778063
808,2024-05-15 22:10:34.450263,-2.4064655,0.6318947,0.41855815,0.027794369,-0.3231477,-4.2652903
809,2024-05-15 22:10:34.466661,-2.2776031,0.83006924,0.33045352,0.4120286,-0.18997909,-3.758883
810,2024-05-15 22:10:34.483503,-2.2434351,0.83787906,0.25259924,0.51893,0.081855945,-3.5725691
811,2024-05-15 22:10:34.500979,-2.1985288,0.8964527,0.14057697,0.528093,0.22907446,-3.391753
812,2024-05-15 22:10:34.516449,-2.1628964,1.0326368,-0.07248501,-0.01863139,-0.16676621,-3.364264
813,2024-05-15 22:10:34.533538,-2.2780914,1.0992644,-0.14057697,-0.37110063,-0.50701815,-3.2885168
814,2024-05-15 22:10:34.550191,-2.1846173,1.3760253,-0.31873876,-1.1010846,-1.0439687,-3.0252337
815,2024-05-15 22:10:34.566755,-2.302741,1.6642874,-0.21550256,-2.287385,-1.1594223,-2.8633544
816,2024-05-15 22:10:34.584073,-2.6390824,1.9305538,0.17523311,-2.273335,-0.4605924,-2.1889594
817,2024-05-15 22:10:34.599679,-2.8238337,2.0494096,0.26870704,-2.3099868,-0.3200934,-1.782123
818,2024-05-15 22:10:34.616377,-3.156484,2.3803513,0.5044969,-2.5262332,-0.6102544,-0.6043748
819,2024-05-15 22:10:34.633411,-3.335378,2.3117712,0.6306744,-2.676506,-1.2565498,0.25938866
820,2024-05-15 22:10:34.650159,-3.37882,2.1289723,0.79150814,-2.6673431,-1.736079,1.1433107
821,2024-05-15 22:10:34.666511,-3.0866835,1.6764902,1.3557686,-1.1615603,-1.3524556,3.1652746
822,2024-05-15 22:10:34.683618,-2.9900367,1.4155625,1.2334958,0.023518313,-1.2363913,3.8372264
823,2024-05-15 22:10:34.700094,-3.0901003,1.1495401,0.8571595,0.62949663,-1.6676621,4.405942
824,2024-05-15 22:10:34.716407,-3.0937612,0.71438605,0.42929673,0.5103779,-2.720183,5.238551
825,2024-05-15 22:10:34.733471,-3.0957136,0.5196284,0.3699908,0.39492437,-2.918714,5.4816756
826,2024-05-15 22:10:34.749852,-3.0957136,0.2613853,0.36462155,0.30940324,-2.8820622,5.7681713
827,2024-05-15 22:10:34.766389,-3.1850386,-0.05296042,0.31385764,0.24648413,-2.828917,6.442567
828,2024-05-15 22:10:34.783485,-3.165514,-0.1415532,0.34900185,0.18417588,-2.8893926,6.609333
829,2024-05-15 22:10:34.799861,-3.1694188,-0.28725538,0.42661208,0.23915374,-3.0952542,6.817027
830,2024-05-15 22:10:34.816783,-3.2660656,-0.38829508,0.5030325,0.38453966,-3.245527,6.949585
831,2024-05-15 22:10:34.832928,-3.3253715,-0.6338472,0.6309185,0.98990715,-3.1850514,7.520133
832,2024-05-15 22:10:34.849872,-3.165026,-0.78394234,0.5628265,1.5409076,-2.9907963,7.900091
833,2024-05-15 22:10:34.866787,-3.066671,-0.85447496,0.39195594,1.6777414,-3.0775392,7.9575124
834,2024-05-15 22:10:34.883487,-2.9470828,-0.9467286,0.2979939,1.5635096,-3.49476,7.95568
835,2024-05-15 22:10:34.900032,-2.772826,-1.0904783,0.32557237,1.6612481,-3.5973854,8.0204315
836,2024-05-15 22:10:34.916773,-2.772826,-1.0904783,0.32557237,1.6612481,-3.5973854,8.0204315
837,2024-05-15 22:10:34.933453,-2.772826,-1.0904783,0.32557237,1.6612481,-3.5973854,8.0204315
838,2024-05-15 22:10:34.950071,-2.772826,-1.0904783,0.32557237,1.6612481,-3.5973854,8.0204315
839,2024-05-15 22:10:34.966733,-2.772826,-1.0904783,0.32557237,1.6612481,-3.5973854,8.0204315
840,2024-05-15 22:10:34.983245,-2.772826,-1.0904783,0.32557237,1.6612481,-3.5973854,8.0204315
841,2024-05-15 22:10:35.000043,-2.772826,-1.0904783,0.32557237,1.6612481,-3.5973854,8.0204315
842,2024-05-15 22:10:35.016726,-2.772826,-1.0904783,0.32557237,1.6612481,-3.5973854,8.0204315
843,2024-05-15 22:10:35.033385,-2.772826,-1.0904783,0.32557237,1.6612481,-3.5973854,8.0204315
844,2024-05-15 22:10:35.050059,-2.772826,-1.0904783,0.32557237,1.6612481,-3.5973854,8.0204315
845,2024-05-15 22:10:35.066469,0.36437747,-0.9725986,-0.046858992,0.22327125,-2.3854287,3.1848223
846,2024-05-15 22:10:35.083103,0.35412705,-0.9396509,-0.1261776,1.0283916,-2.2369885,2.8066967
847,2024-05-15 22:10:35.099555,0.35412705,-0.9396509,-0.1261776,1.0283916,-2.2369885,2.8066967
848,2024-05-15 22:10:35.116210,0.67680126,-0.8500819,-0.5386648,1.2556335,-2.2534819,2.56907
849,2024-05-15 22:10:35.133363,0.78198993,-0.93379354,-0.4888467,1.502423,-2.126422,2.3540456
850,2024-05-15 22:10:35.150806,1.1153722,-1.1780949,-0.71072525,2.4846945,-1.9639318,1.9368246
851,2024-05-15 22:10:35.166439,1.1346527,-1.1776067,-0.9157333,3.0369165,-1.1215485,1.7321848
852,2024-05-15 22:10:35.183352,0.90133387,-1.0768111,-1.8239008,2.490803,-0.41416663,2.0357847
853,2024-05-15 22:10:35.199980,1.0524054,-1.1370933,-2.1316571,1.3222178,-0.7122689,2.084654
854,2024-05-15 22:10:35.215151,1.1480758,-1.1856606,-1.8841829,-0.40103304,-1.1575897,1.5764141
855,2024-05-15 22:10:35.234237,1.084621,-1.1668682,-1.2881647,-0.63499445,-0.93828905,1.1420889
856,2024-05-15 22:10:35.249859,1.0851091,-1.1622311,-1.2303231,-0.5580254,-0.8399397,1.1115457
857,2024-05-15 22:10:35.266671,1.3255055,-1.1907858,-1.2503358,0.29840767,0.45448375,0.90262973
858,2024-05-15 22:10:35.283354,1.5581225,-1.1976194,-1.3176955,0.28924468,1.1612549,0.5220607
859,2024-05-15 22:10:35.299506,1.5705694,-1.1927383,-1.2952423,0.17379116,1.5296066,0.19769126
860,2024-05-15 22:10:35.316637,1.6291431,-1.1776067,-1.1458793,0.09315695,2.144137,-0.37163514
861,2024-05-15 22:10:35.333321,1.7004079,-1.1561297,-1.076323,0.086437434,2.7861564,-1.0771846
862,2024-05-15 22:10:35.349435,1.6264585,-1.131724,-0.9198823,-0.10476339,3.1575625,-1.8291596
863,2024-05-15 22:10:35.366583,1.5078467,-1.1344086,-0.79785365,-0.16707164,3.241251,-2.3264039
864,2024-05-15 22:10:35.383305,1.2888968,-1.1129316,-0.58747625,-0.055283304,3.2131512,-3.2139912
865,2024-05-15 22:10:35.399906,1.2183642,-1.0897461,-0.5313431,0.16279559,3.196047,-4.2225294
866,2024-05-15 22:10:35.416587,0.84861755,-1.0055463,-0.4080637,0.23060162,3.1355712,-4.761924
867,2024-05-15 22:10:35.433283,0.49470404,-0.9303767,-0.3145898,0.16707164,2.7629435,-5.571931
868,2024-05-15 22:10:35.450320,0.20574026,-0.863505,-0.21989559,-0.004581489,2.225993,-6.09361
869,2024-05-15 22:10:35.466573,0.10470056,-0.8032229,-0.1901206,-0.10903945,1.954158,-6.2487698
870,2024-05-15 22:10:35.483280,-0.20061506,-0.83421814,-0.0156196635,-0.43035457,1.4428637,-6.5322113
871,2024-05-15 22:10:35.500388,-0.44662476,-0.81933075,0.1381364,-0.4370741,1.5076154,-6.39721
872,2024-05-15 22:10:35.516557,-0.57405317,-0.8286049,0.16522676,-0.4089743,1.5986344,-6.2640414
873,2024-05-15 22:10:35.532985,-0.60089946,-0.7815018,-0.0046370877,-0.6252206,1.754405,-6.170579
874,2024-05-15 22:10:35.549886,-0.6475144,-0.79614526,-0.06589546,-0.91538155,1.7434094,-6.3080235
875,2024-05-15 22:10:35.566518,-0.6475144,-0.79614526,-0.06589546,-0.91538155,1.7434094,-6.3080235
876,2024-05-15 22:10:35.583185,-0.6475144,-0.79614526,-0.06589546,-0.91538155,1.7434094,-6.3080235
877,2024-05-15 22:10:35.599845,-0.6475144,-0.79614526,-0.06589546,-0.91538155,1.7434094,-6.3080235
878,2024-05-15 22:10:35.616516,-0.6475144,-0.79614526,-0.06589546,-0.91538155,1.7434094,-6.3080235
879,2024-05-15 22:10:35.633175,-0.6475144,-0.79614526,-0.06589546,-0.91538155,1.7434094,-6.3080235
880,2024-05-15 22:10:35.649838,-0.6475144,-0.79614526,-0.06589546,-0.91538155,1.7434094,-6.3080235
881,2024-05-15 22:10:35.666309,-0.6475144,-0.79614526,-0.06589546,-0.91538155,1.7434094,-6.3080235
882,2024-05-15 22:10:35.683178,-2.1167696,-0.3121492,-0.41636166,0.8231409,1.4288138,-6.9207215
883,2024-05-15 22:10:35.699841,-1.9744841,-0.33191785,-0.2660224,0.45051312,1.0250319,-7.034953
884,2024-05-15 22:10:35.716088,-2.1423955,-0.49397188,-0.3277689,-0.33505958,0.45998153,-6.777779
885,2024-05-15 22:10:35.733194,-2.157039,-0.58820844,-0.07834238,-0.5421429,1.0115929,-6.428975
886,2024-05-15 22:10:35.749877,-2.2602751,-0.6746047,0.117635585,0.024129177,2.2699752,-6.16447
887,2024-05-15 22:10:35.766487,-2.3376412,-0.6931531,0.035632357,0.25686884,2.3231206,-6.0765057
888,2024-05-15 22:10:35.784337,-2.4408774,-0.5923574,-0.277005,-0.21533,1.4636332,-6.2090635
889,2024-05-15 22:10:35.799713,-2.5888066,-0.48225713,-0.12178457,-1.4474452,0.5852089,-6.1400356
890,2024-05-15 22:10:35.816473,-2.649333,-0.4751795,0.043198135,-1.7901406,0.55833083,-5.9451694
891,2024-05-15 22:10:35.833110,-2.8687406,-0.42807645,0.42197496,-1.815797,1.1362094,-5.4381514
892,2024-05-15 22:10:35.849780,-2.833596,-0.033435844,0.87253517,-0.82863873,1.9688187,-4.53346
893,2024-05-15 22:10:35.866483,-2.8445787,0.09567044,0.87595195,-0.038789943,2.1978931,-4.0869174
894,2024-05-15 22:10:35.883141,-2.7615993,0.4556549,0.42319524,0.7828238,1.926669,-3.4125223
895,2024-05-15 22:10:35.899786,-2.8914378,0.9289124,-0.008542004,-0.08827003,0.548557,-3.1901674
896,2024-05-15 22:10:35.916449,-2.9966264,1.0572865,-0.019768637,-0.80481493,-0.1301143,-2.9995775
897,2024-05-15 22:10:35.933129,-3.0490987,1.1292834,0.21379416,-1.8072448,-0.93034774,-2.3331234
898,2024-05-15 22:10:35.949526,-3.0727723,1.0768111,0.6475144,-2.2403483,-1.0604621,-1.3148111
899,2024-05-15 22:10:35.966409,-3.1415963,1.0999964,0.93062085,-2.0693061,-0.7141015,-0.78274745
900,2024-05-15 22:10:35.982984,-3.401029,1.1614989,1.0738825,-1.5598444,-0.36346483,0.3974442
901,2024-05-15 22:10:35.999735,-3.3417232,1.0619236,1.0306844,-1.3857478,-1.4422529,1.8519144
902,2024-05-15 22:10:36.016404,-3.2526424,0.90279824,0.9894386,-1.4083499,-2.2021692,2.4041364
903,2024-05-15 22:10:36.033058,-3.1079166,0.5640468,1.1224499,-1.0668762,-3.3939674,3.3705254
904,2024-05-15 22:10:36.050106,-2.998335,0.3265486,1.2949983,0.17379116,-3.1435125,4.19275
905,2024-05-15 22:10:36.066384,-2.9932096,0.2626056,1.1380695,0.87995136,-2.973692,4.449313
906,2024-05-15 22:10:36.083048,-3.0866835,0.14179726,0.547695,1.3411547,-3.286455,4.961829
907,2024-05-15 22:10:36.099731,-2.9246294,-0.067847915,0.23844394,0.840856,-3.993226,5.2831445
908,2024-05-15 22:10:36.116369,-2.841162,-0.06931226,0.25137895,0.69974613,-4.007887,5.239162
909,2024-05-15 22:10:36.133000,-3.0185916,-0.08127106,0.011470691,0.310625,-4.0494256,5.1017175
910,2024-05-15 22:10:36.149374,-3.1967533,-0.21940747,-0.030751213,-0.33505958,-4.681671,5.3821044
911,2024-05-15 22:10:36.166333,-3.229213,-0.2438132,0.008786061,-0.3747658,-4.753753,5.431585
912,2024-05-15 22:10:36.182986,-3.4430072,-0.44662476,0.30873242,0.22937989,-4.806288,6.18356
913,2024-05-15 22:10:36.199643,-3.4430072,-0.44662476,0.30873242,0.22937989,-4.806288,6.18356
914,2024-05-15 22:10:36.216317,-3.4430072,-0.44662476,0.30873242,0.22937989,-4.806288,6.18356
915,2024-05-15 22:10:36.232983,-3.4430072,-0.44662476,0.30873242,0.22937989,-4.806288,6.18356
916,2024-05-15 22:10:36.266459,-3.4430072,-0.44662476,0.30873242,0.22937989,-4.806288,6.18356
917,2024-05-15 22:10:36.283131,-3.4430072,-0.44662476,0.30873242,0.22937989,-4.806288,6.18356
918,2024-05-15 22:10:36.300023,-3.4430072,-0.44662476,0.30873242,0.22937989,-4.806288,6.18356
919,2024-05-15 22:10:36.315688,-3.4430072,-0.44662476,0.30873242,0.22937989,-4.806288,6.18356
920,2024-05-15 22:10:36.332420,-3.4430072,-0.44662476,0.30873242,0.22937989,-4.806288,6.18356
921,2024-05-15 22:10:36.349260,-3.4430072,-0.44662476,0.30873242,0.22937989,-4.806288,6.18356
922,2024-05-15 22:10:36.365759,-0.3653537,-0.83836716,-0.4429639,0.38820487,-2.874121,5.9948025
923,2024-05-15 22:10:36.382571,-0.44516042,-0.75734013,-0.17718557,-0.102319926,-3.1563408,4.977101
924,2024-05-15 22:10:36.399278,-0.6831467,-0.7265889,-0.117635585,-0.20372356,-3.4245105,4.904408
925,2024-05-15 22:10:36.414720,-0.6401926,-0.73049384,-0.07468152,-0.16707164,-3.4190128,4.9746575
926,2024-05-15 22:10:36.432404,-0.41343296,-0.76588213,0.017328065,0.21594086,-2.723848,5.030857
927,2024-05-15 22:10:36.449791,0.016107777,-0.7588045,-0.17938207,0.26908615,-1.9339994,4.5476627
928,2024-05-15 22:10:36.465706,0.11617125,-0.7578283,-0.24478942,0.12858713,-2.0738876,4.251393
929,2024-05-15 22:10:36.482540,0.3607166,-0.76148915,-0.31507793,-0.3051272,-2.960253,3.453603
930,2024-05-15 22:10:36.499204,0.55770135,-0.7563639,-0.29945824,-0.43218717,-3.327383,2.6545913
931,2024-05-15 22:10:36.516067,0.72170776,-0.77271575,-0.2877435,-0.09437868,-3.195436,1.867186
932,2024-05-15 22:10:36.532877,0.8254321,-0.82323563,-0.27261195,0.40225476,-3.1202996,1.6930894
933,2024-05-15 22:10:36.549526,1.0482564,-0.863505,-0.5601419,1.5647314,-2.1673498,1.2581533
934,2024-05-15 22:10:36.566184,1.0865734,-0.8273846,-0.8124971,1.7870862,-1.5008959,1.0529026
935,2024-05-15 22:10:36.582836,0.86057633,-0.9340376,-1.2796227,1.3930782,-1.0091494,1.2160037
936,2024-05-15 22:10:36.599519,1.0472802,-1.1217176,-1.6730734,0.5849035,-1.2137892,1.9221638
937,2024-05-15 22:10:36.616175,1.0472802,-1.1217176,-1.6730734,0.5849035,-1.2137892,1.9221638
938,2024-05-15 22:10:36.632626,1.7667913,-1.4070204,-1.4790175,-0.18234327,-0.5271767,1.7682258
939,2024-05-15 22:10:36.649501,2.05844,-1.602541,-1.2976829,0.3594942,0.6927212,0.8085565
940,2024-05-15 22:10:36.666432,2.1426396,-1.6164521,-1.3172075,0.61666846,1.3701707,-0.115071744
941,2024-05-15 22:10:36.682810,2.106275,-1.585701,-1.3142787,0.5036584,1.4727961,-0.6874525
942,2024-05-15 22:10:36.699320,1.9127377,-1.4936609,-1.0965797,0.19883664,1.3439035,-1.6623935
943,2024-05-15 22:10:36.716111,1.8622179,-1.4629096,-1.0572865,0.19883664,1.3439035,-1.6623935
944,2024-05-15 22:10:36.732770,1.5656883,-1.2647351,-0.8227475,0.21044308,1.6878207,-2.8981738
945,2024-05-15 22:10:36.749132,1.2046971,-1.1270869,-0.6965699,0.27397305,1.8771889,-3.124194
946,2024-05-15 22:10:36.765619,0.89083946,-0.97235465,-0.6994986,0.514654,2.438574,-3.750331
947,2024-05-15 22:10:36.782746,0.73317844,-0.9057269,-0.6985224,0.43401974,2.6627617,-4.093026
948,2024-05-15 22:10:36.799416,0.42978483,-0.80468726,-0.6138345,0.1554652,2.692694,-4.292168
949,2024-05-15 22:10:36.816125,0.27334413,-0.7368393,-0.49299565,-0.04550946,3.0482175,-4.284227
950,2024-05-15 22:10:36.832746,0.17572121,-0.6977902,-0.3756041,-0.04550946,3.0482175,-4.284227
951,2024-05-15 22:10:36.849560,0.17572121,-0.6977902,-0.3756041,-0.04550946,3.0482175,-4.284227
952,2024-05-15 22:10:36.866089,0.17572121,-0.6977902,-0.3756041,-0.04550946,3.0482175,-4.284227
953,2024-05-15 22:10:36.882775,0.17572121,-0.6977902,-0.3756041,-0.04550946,3.0482175,-4.284227
954,2024-05-15 22:10:36.899433,0.17572121,-0.6977902,-0.3756041,-0.04550946,3.0482175,-4.284227
955,2024-05-15 22:10:36.916104,0.17572121,-0.6977902,-0.3756041,-0.04550946,3.0482175,-4.284227
956,2024-05-15 22:10:36.932763,0.17572121,-0.6977902,-0.3756041,-0.04550946,3.0482175,-4.284227
957,2024-05-15 22:10:36.949423,0.17572121,-0.6977902,-0.3756041,-0.04550946,3.0482175,-4.284227
958,2024-05-15 22:10:36.966029,0.17572121,-0.6977902,-0.3756041,-0.04550946,3.0482175,-4.284227
959,2024-05-15 22:10:36.983331,-0.53573614,-0.5310991,-0.011226633,1.1462886,1.8099937,-5.6513433
960,2024-05-15 22:10:36.998929,-1.0416669,-0.29726174,0.3360668,2.4211645,2.3328943,-5.626298
961,2024-05-15 22:10:37.015812,-1.2171439,-0.34680536,0.102748096,3.1584787,1.6609426,-5.8877482
962,2024-05-15 22:10:37.032679,-1.3613818,-0.27651685,0.07370529,3.7168095,1.704925,-6.0691752
963,2024-05-15 22:10:37.049362,-1.6484238,-0.24088451,-0.33753118,4.5683556,1.7427986,-6.243272
964,2024-05-15 22:10:37.066030,-1.8526996,-0.11568313,-0.79687744,4.5152106,1.509448,-6.1455336
965,2024-05-15 22:10:37.082254,-1.8656346,-0.032459613,-1.1307478,3.4315355,0.8918633,-5.7509146
966,2024-05-15 22:10:37.099985,-1.7470227,-0.12568948,-0.9652769,2.4969118,0.84238315,-5.961663
967,2024-05-15 22:10:37.115738,-1.8048644,-0.15961345,-0.8608204,2.1163425,0.95539325,-6.161416
968,2024-05-15 22:10:37.132670,-1.8846711,-0.079318605,-0.6787537,1.8341229,1.0152581,-6.3965993
969,2024-05-15 22:10:37.149245,-2.2021897,-0.06760386,-0.81493765,1.208597,0.6957755,-6.6623254
970,2024-05-15 22:10:37.166580,-2.5007021,-0.07834238,-0.77344793,0.23671028,0.20830505,-6.5639763
971,2024-05-15 22:10:37.182650,-2.5910034,-0.07516963,-0.6667949,-0.26297748,0.1020145,-6.450966
972,2024-05-15 22:10:37.198803,-2.7750225,-0.046614934,-0.40684342,-0.52442783,0.27000242,-6.202955
973,2024-05-15 22:10:37.215926,-2.8680084,0.15912533,-0.12471326,-0.14446963,0.9388999,-5.309259
974,2024-05-15 22:10:37.232664,-2.649577,0.47078642,0.012690976,0.6246097,1.5161675,-4.3111053
975,2024-05-15 22:10:37.249029,-2.537799,0.6472703,-0.12154051,0.26175576,0.7611381,-3.8004217
976,2024-05-15 22:10:37.265770,-2.5175421,0.67728937,-0.10860548,0.09743301,0.46731192,-3.6507597
977,2024-05-15 22:10:37.282610,-2.3247063,0.8886429,-0.051007964,-0.25686884,-0.023823744,-2.974532
978,2024-05-15 22:10:37.299303,-2.369613,1.0653404,0.12373702,-0.15424347,0.602924,-2.266539
979,2024-05-15 22:10:37.315969,-2.3366652,1.1512486,0.153512,-0.049785517,0.77763146,-2.067397
980,2024-05-15 22:10:37.333735,-2.2148807,1.4067765,0.16888762,0.18478674,0.89919364,-1.8242728
981,2024-05-15 22:10:37.349076,-2.4704084,1.7711844,-0.21452633,-0.09682214,-0.18692477,-1.8676441
982,2024-05-15 22:10:37.365431,-2.7074187,1.8524556,-0.31556603,-1.4999796,-0.9987647,-1.138271
983,2024-05-15 22:10:37.382600,-3.4891338,2.1880343,-0.17547716,-2.087632,-1.16492,-0.3282637
984,2024-05-15 22:10:37.399419,-3.5721438,2.157283,0.051007964,-2.62275,-1.1624765,1.5929074
985,2024-05-15 22:10:37.415673,-3.5189395,1.9610609,0.3577879,-2.53112,-1.0464121,2.1793382
986,2024-05-15 22:10:37.432583,-3.0776534,1.3770015,1.0958476,-1.135904,-0.88697636,3.8958695
987,2024-05-15 22:10:37.449283,-2.926094,0.9989568,0.6899803,0.06505715,-1.6175711,5.0320787
988,2024-05-15 22:10:37.465916,-2.926094,0.9989568,0.6899803,0.06505715,-1.6175711,5.0320787
989,2024-05-15 22:10:37.482570,-2.926094,0.9989568,0.6899803,0.06505715,-1.6175711,5.0320787
990,2024-05-15 22:10:37.499238,-2.926094,0.9989568,0.6899803,0.06505715,-1.6175711,5.0320787
991,2024-05-15 22:10:37.515896,-2.926094,0.9989568,0.6899803,0.06505715,-1.6175711,5.0320787
992,2024-05-15 22:10:37.532558,-2.926094,0.9989568,0.6899803,0.06505715,-1.6175711,5.0320787
993,2024-05-15 22:10:37.550148,-2.926094,0.9989568,0.6899803,0.06505715,-1.6175711,5.0320787
994,2024-05-15 22:10:37.565873,-2.926094,0.9989568,0.6899803,0.06505715,-1.6175711,5.0320787
995,2024-05-15 22:10:37.582516,-2.6256592,0.46785772,-0.05515694,-1.7461584,-4.3114867,6.713791
996,2024-05-15 22:10:37.599182,-2.6256592,0.46785772,-0.05515694,-1.7461584,-4.3114867,6.713791
997,2024-05-15 22:10:37.615333,-2.4611342,0.33362624,-0.30897647,-0.79809546,-3.8679988,7.1499486
998,2024-05-15 22:10:37.632520,-2.33276,0.30922052,-0.36291313,-0.8872818,-3.948633,7.0735903
999,2024-05-15 22:10:37.649163,-2.20341,0.10323621,-0.21916342,-1.1487321,-4.2913284,6.8011446
