id,timestamp,acc_x,acc_y,acc_z,gyro_x,gyro_y,gyro_z
0,2024-05-15 22:16:31.068735,-0.70437974,0.20329969,0.607489,-0.1966986,-0.0092393365,-0.9004917
1,2024-05-15 22:16:31.084601,-0.72756517,0.37487194,0.6509312,-0.2773328,-0.09476047,-0.5058728
2,2024-05-15 22:16:31.097496,-0.72756517,0.37487194,0.6509312,-0.2773328,-0.09476047,-0.5058728
3,2024-05-15 22:16:31.112983,-0.6267695,0.5384208,0.82396775,-0.50701815,-0.58528525,-0.08743009
4,2024-05-15 22:16:31.134613,-0.5630706,0.70315945,1.0821804,-0.18692477,-1.2126439,0.044516806
5,2024-05-15 22:16:31.148166,-0.57063633,0.78125775,1.1634514,-0.06780604,-1.303052,0.056123246
6,2024-05-15 22:16:31.163937,-0.5901609,1.0558221,1.2784024,0.81122905,-1.63353,0.14164437
7,2024-05-15 22:16:31.184350,-1.0301962,1.5754505,1.5630037,2.1148155,-1.2505175,0.2674826
8,2024-05-15 22:16:31.205707,-1.4465579,1.6503762,1.7799705,3.1807754,-0.9292024,0.7812203
9,2024-05-15 22:16:31.218087,-1.6093745,1.6437867,1.7658151,3.6254852,-0.94264144,1.1397982
10,2024-05-15 22:16:31.233592,-1.794858,1.5105313,1.7233493,3.8716638,-1.2163091,1.5038738
11,2024-05-15 22:16:31.249143,-1.8900403,1.3311187,1.7938818,4.0201044,-1.429501,1.8013653
12,2024-05-15 22:16:31.264890,-1.9893718,0.8181104,2.1160374,5.425705,-0.058719423,2.7934103
13,2024-05-15 22:16:31.280532,-1.9893718,0.8181104,2.1160374,5.425705,-0.058719423,2.7934103
14,2024-05-15 22:16:31.301225,-1.9893718,0.8181104,2.1160374,5.425705,-0.058719423,2.7934103
15,2024-05-15 22:16:31.315406,-1.9893718,0.8181104,2.1160374,5.425705,-0.058719423,2.7934103
16,2024-05-15 22:16:31.331556,-1.9893718,0.8181104,2.1160374,5.425705,-0.058719423,2.7934103
17,2024-05-15 22:16:31.347183,-1.9893718,0.8181104,2.1160374,5.425705,-0.058719423,2.7934103
18,2024-05-15 22:16:31.367868,-1.9893718,0.8181104,2.1160374,5.425705,-0.058719423,2.7934103
19,2024-05-15 22:16:31.381958,-1.9893718,0.8181104,2.1160374,5.425705,-0.058719423,2.7934103
20,2024-05-15 22:16:31.397215,-1.9893718,0.8181104,2.1160374,5.425705,-0.058719423,2.7934103
21,2024-05-15 22:16:31.417486,-1.0831566,-2.8428702,0.42514774,2.420248,-1.6750689,2.8795424
22,2024-05-15 22:16:31.436509,-0.5911371,-2.6778877,-0.5247536,0.8717047,-4.426406,1.2711343
23,2024-05-15 22:16:31.451756,-0.29311275,-2.4804149,-0.8854702,-0.009773844,-4.452062,0.7250207
24,2024-05-15 22:16:31.466854,0.048567392,-2.1731467,-0.89035136,-0.8240572,-2.5376105,-0.08071057
25,2024-05-15 22:16:31.482288,0.17669745,-1.9800974,-0.89669687,-1.1184943,-1.248074,-0.63965225
26,2024-05-15 22:16:31.498179,-0.010006348,-1.8475745,-0.9926113,-2.0720549,-0.28657216,-1.6836209
27,2024-05-15 22:16:31.517832,-0.15033926,-1.7257898,-0.9747952,-3.4159584,-0.2364812,-2.4691937
28,2024-05-15 22:16:31.533465,-0.3431445,-1.7523922,-0.97674763,-4.43366,0.1605812,-2.8204412
29,2024-05-15 22:16:31.548625,-0.73024976,-1.7179799,-0.44808912,-5.5741453,1.3975834,-2.920623
30,2024-05-15 22:16:31.567793,-0.8110328,-1.6730734,-0.23258655,-5.7610703,1.9351448,-2.9151254
31,2024-05-15 22:16:31.583477,-1.055334,-1.6066898,0.30360723,-6.3120704,3.307148,-3.2052863
32,2024-05-15 22:16:31.601650,-1.6206012,-1.2073817,1.2156796,-7.3395457,4.1177664,-4.0293436
33,2024-05-15 22:16:31.616794,-2.2099996,-0.71096927,2.619314,-7.805636,4.0261364,-4.236427
34,2024-05-15 22:16:31.632458,-2.8128512,0.035144243,4.0565977,-6.211889,3.348076,-3.731852
35,2024-05-15 22:16:31.650671,-2.6256592,0.8017586,3.9623916,-4.4703116,2.332818,-3.2761467
36,2024-05-15 22:16:31.666767,-2.485296,1.0589949,3.6426764,-3.9675698,1.5997797,-2.9542208
37,2024-05-15 22:16:31.684401,-2.3222656,1.8102336,3.169175,-4.2021422,-0.41485387,-1.9652299
38,2024-05-15 22:16:31.699978,-2.157039,2.1463006,3.5035636,-3.8686097,-1.942017,-0.5584072
39,2024-05-15 22:16:31.715751,-1.7633747,2.4796827,3.4386141,-2.64749,-2.3073144,0.17340937
40,2024-05-15 22:16:31.734267,-1.289385,2.5441442,2.8221257,-0.34574974,-2.5498278,0.65843636
41,2024-05-15 22:16:31.750102,-1.2786465,2.5197384,1.8719802,1.4147639,-2.2651646,1.0823768
42,2024-05-15 22:16:31.767684,-1.3816385,2.4411216,1.5473839,2.2131648,-1.8027397,1.920484
43,2024-05-15 22:16:31.784385,-1.7919292,2.1311688,1.2818192,2.4678955,-1.710499,2.4849234
44,2024-05-15 22:16:31.800540,-1.8788137,1.633048,1.332339,3.037833,-1.7282141,3.8245509
45,2024-05-15 22:16:31.815671,-1.6350006,1.1580821,1.4658383,3.4190128,-1.737988,4.3028584
46,2024-05-15 22:16:31.834520,-1.2454547,0.5515999,1.6042492,4.468479,-1.20287,4.336456
47,2024-05-15 22:16:31.850142,-1.0619236,-0.031239327,1.7130988,5.6254582,-0.6537022,3.896022
48,2024-05-15 22:16:31.866661,-1.0863293,-0.24967057,1.7016281,6.093381,-0.5278639,3.7414732
49,2024-05-15 22:16:31.883841,-1.1463674,-0.70999306,1.4638858,6.5332036,-0.42890376,3.5398877
50,2024-05-15 22:16:31.899540,-1.063876,-1.1295274,1.3479587,6.232658,-0.3665955,3.1067843
51,2024-05-15 22:16:31.917646,-1.063876,-1.1295274,1.3479587,6.232658,-0.3665955,3.1067843
52,2024-05-15 22:16:31.934328,-1.063876,-1.1295274,1.3479587,6.232658,-0.3665955,3.1067843
53,2024-05-15 22:16:31.949975,-1.063876,-1.1295274,1.3479587,6.232658,-0.3665955,3.1067843
54,2024-05-15 22:16:31.967638,-1.063876,-1.1295274,1.3479587,6.232658,-0.3665955,3.1067843
55,2024-05-15 22:16:31.983297,-1.063876,-1.1295274,1.3479587,6.232658,-0.3665955,3.1067843
56,2024-05-15 22:16:32.001022,-1.063876,-1.1295274,1.3479587,6.232658,-0.3665955,3.1067843
57,2024-05-15 22:16:32.017667,-1.063876,-1.1295274,1.3479587,6.232658,-0.3665955,3.1067843
58,2024-05-15 22:16:32.033324,-1.063876,-1.1295274,1.3479587,6.232658,-0.3665955,3.1067843
59,2024-05-15 22:16:32.049983,-1.063876,-1.1295274,1.3479587,6.232658,-0.3665955,3.1067843
60,2024-05-15 22:16:32.067041,-1.6352446,-1.8595332,0.6990105,4.881424,0.89300865,1.7952566
61,2024-05-15 22:16:32.082872,-0.794925,-2.0303733,-0.59333366,-5.235726,0.45501825,-4.445954
62,2024-05-15 22:16:32.100336,-1.2930459,-1.7575173,0.13057062,-6.0078597,1.2436453,-4.8399615
63,2024-05-15 22:16:32.115602,-1.9727757,-1.3421013,0.6570326,-6.1208696,1.9265926,-4.712291
64,2024-05-15 22:16:32.134471,-2.4708965,-0.6980342,1.1178128,-6.7891564,2.8850403,-4.399528
65,2024-05-15 22:16:32.147859,-2.60345,-0.19548985,2.071863,-7.9986696,2.3120487,-4.1374664
66,2024-05-15 22:16:32.163607,-2.4965227,0.71170145,3.4727821,-7.6095486,1.3157274,-4.082489
67,2024-05-15 22:16:32.185207,-2.454789,1.1756543,3.5831263,-5.1410418,0.5460372,-3.841197
68,2024-05-15 22:16:32.198259,-2.4440503,2.328367,2.9644108,-2.8386908,1.3059535,-2.9475012
69,2024-05-15 22:16:32.213576,-2.3923101,3.0195677,2.4108584,-2.362216,0.5973498,-2.0666335
70,2024-05-15 22:16:32.234218,-2.0569754,3.5025876,2.3330042,-2.3041837,-1.1857657,-0.2364812
71,2024-05-15 22:16:32.256348,-1.8321989,3.446424,2.7540333,-0.8368854,-1.3488668,1.3688726
72,2024-05-15 22:16:32.270000,-1.8151147,3.3234189,2.7269433,0.008552114,-0.9841803,1.9039906
73,2024-05-15 22:16:32.287710,-1.7675235,2.3893814,2.0733273,1.4844025,-0.62193716,3.670002
74,2024-05-15 22:16:32.303334,-1.8180435,2.088703,2.335445,1.6328428,-0.75021887,4.131205
75,2024-05-15 22:16:32.313672,-2.0418441,1.2591219,3.0952256,2.7983737,-1.0568732,4.866687
76,2024-05-15 22:16:32.324450,-1.9669183,0.7580723,3.2216473,4.011552,-1.2651783,5.0285664
77,2024-05-15 22:16:32.334930,-1.9669183,0.7580723,3.2216473,4.011552,-1.2651783,5.0285664
78,2024-05-15 22:16:32.345708,-1.8861353,0.41880223,3.1330545,4.6346345,-1.3213779,4.9638147
79,2024-05-15 22:16:32.362535,-1.8675871,-0.2255089,2.8189526,5.7555723,-1.2804499,4.6534953
80,2024-05-15 22:16:32.379395,-1.6943065,-0.8217713,2.4111025,6.1526346,-1.2517393,4.231998
81,2024-05-15 22:16:32.395856,-1.9627694,-1.7235934,2.2880976,6.367659,-1.1356748,3.0890691
82,2024-05-15 22:16:32.412806,-2.1836412,-2.1958442,1.926893,6.7073,-1.0098366,2.6938393
83,2024-05-15 22:16:32.429415,-2.391578,-2.7044897,1.131724,6.4311895,-0.0031306844,2.5728881
84,2024-05-15 22:16:32.446055,-2.0657616,-3.5357795,-0.06955632,3.6914587,-1.6591864,3.3224196
85,2024-05-15 22:16:32.462866,-1.7082176,-3.6246164,-0.15277983,2.977968,-2.4478135,3.2649984
86,2024-05-15 22:16:32.479285,-0.7878473,-3.6985655,-0.56746364,1.9730947,-3.7251327,2.2589033
87,2024-05-15 22:16:32.495920,-0.20574026,-3.3741827,-1.4311821,1.0800097,-2.309758,1.2332605
88,2024-05-15 22:16:32.512446,0.13447554,-3.1713715,-2.0577078,-0.4111123,-1.2602913,0.5820782
89,2024-05-15 22:16:32.529439,0.3704789,-2.9827151,-2.042576,-2.85946,-0.3262784,-0.618272
90,2024-05-15 22:16:32.545978,0.3436326,-2.892658,-1.7277422,-2.85946,-0.3262784,-0.618272
91,2024-05-15 22:16:32.562723,0.3436326,-2.892658,-1.7277422,-2.85946,-0.3262784,-0.618272
92,2024-05-15 22:16:32.579337,0.3436326,-2.892658,-1.7277422,-2.85946,-0.3262784,-0.618272
93,2024-05-15 22:16:32.595956,0.3436326,-2.892658,-1.7277422,-2.85946,-0.3262784,-0.618272
94,2024-05-15 22:16:32.612603,0.3436326,-2.892658,-1.7277422,-2.85946,-0.3262784,-0.618272
95,2024-05-15 22:16:32.629469,0.3436326,-2.892658,-1.7277422,-2.85946,-0.3262784,-0.618272
96,2024-05-15 22:16:32.645952,0.3436326,-2.892658,-1.7277422,-2.85946,-0.3262784,-0.618272
97,2024-05-15 22:16:32.662215,-3.0022397,-0.10982577,2.2876096,-6.7341785,1.8826103,-4.5424705
98,2024-05-15 22:16:32.679557,-3.3856537,1.3750491,3.7822773,-6.1043763,1.0237337,-3.6298378
99,2024-05-15 22:16:32.696414,-1.714319,3.1838183,2.5951521,-4.418999,-0.71601045,-1.5284612
100,2024-05-15 22:16:32.712805,-1.3569888,3.3151212,2.4064655,-3.8741074,-0.8271879,-1.1570551
101,2024-05-15 22:16:32.729436,-0.72073156,3.2214031,1.7177359,-1.0751228,-1.1833223,0.16119206
102,2024-05-15 22:16:32.745710,-0.33899552,2.8216374,1.2715688,0.5326745,-0.99884105,0.7390706
103,2024-05-15 22:16:32.763550,-0.22062775,2.6332252,1.1231819,2.007914,-0.40691262,1.0170143
104,2024-05-15 22:16:32.779464,-0.12715383,2.187302,1.0870615,2.007914,-0.40691262,1.0170143
105,2024-05-15 22:16:32.795461,-0.38780698,1.5495806,1.2474071,3.5057557,-0.2590832,1.3206143
106,2024-05-15 22:16:32.812305,-0.5979708,1.2496036,1.4214199,3.9193115,-0.53519434,1.5924493
107,2024-05-15 22:16:32.829188,-0.667283,0.8349504,1.6564776,4.6663995,-0.2083814,2.2075906
108,2024-05-15 22:16:32.845440,-0.8522784,0.4544346,2.0054793,5.1208835,-0.13141239,2.5643358
109,2024-05-15 22:16:32.862670,-0.9071913,0.35876414,2.0562432,5.240002,-0.10086913,2.6767352
110,2024-05-15 22:16:32.879459,-0.97284275,-0.025626011,2.2173212,5.289482,0.32429308,2.6926177
111,2024-05-15 22:16:32.895514,-0.98333716,-0.2806658,2.5697703,5.3878317,1.3896421,1.8630626
112,2024-05-15 22:16:32.912501,-1.564712,-0.5210927,2.5975928,5.3401837,1.2668581,1.8838321
113,2024-05-15 22:16:32.929267,-2.213416,-0.786627,2.046237,5.056132,0.14530957,1.680414
114,2024-05-15 22:16:32.945554,-2.7684329,-1.1939586,1.1461233,3.9535198,-0.40569088,1.974851
115,2024-05-15 22:16:32.962869,-2.628588,-1.4209318,0.7051119,2.8991663,-0.8394052,2.4995842
116,2024-05-15 22:16:32.979128,-1.8192637,-2.0450168,0.3904916,-0.034208454,-2.1772,3.334026
117,2024-05-15 22:16:32.995639,-0.9818728,-2.7130318,0.7168266,-1.4740179,-3.8405862,2.3633614
118,2024-05-15 22:16:33.012185,-0.675825,-2.6163852,0.67850965,-0.9077458,-3.896175,1.4055246
119,2024-05-15 22:16:33.029154,-0.5440341,-2.4701643,-0.2328306,0.1826487,-3.0379093,0.12698361
120,2024-05-15 22:16:33.045446,-0.5811308,-2.1194541,-1.6323159,-1.6181821,-0.8601746,-0.41668645
121,2024-05-15 22:16:33.062065,-0.65410393,-2.0723512,-1.5154124,-2.747061,-0.6879106,-0.35987598
122,2024-05-15 22:16:33.079125,-0.47884035,-1.914446,-0.9020661,-3.9223657,-0.31772628,-0.38003454
123,2024-05-15 22:16:33.095734,-0.13545178,-1.5715456,-0.15082738,-4.1471643,1.1013137,-1.7196621
124,2024-05-15 22:16:33.112729,-0.3275248,-1.4197116,-0.099087246,-4.120286,1.5942819,-2.2529473
125,2024-05-15 22:16:33.129301,-1.2488714,-0.8981612,0.038316987,-5.1569242,1.9498055,-2.2737167
126,2024-05-15 22:16:33.145461,-1.5063823,-0.6250611,0.40781966,-5.861252,1.8361846,-1.8858174
127,2024-05-15 22:16:33.162126,-1.6079102,0.07809832,1.6774664,-6.986466,1.6455946,-0.95791304
128,2024-05-15 22:16:33.179000,-1.1973754,0.5923574,2.765016,-7.0487742,1.1617893,-0.6842454
129,2024-05-15 22:16:33.195740,-0.8742436,0.91817385,3.284614,-6.147748,1.4250723,-0.92859155
130,2024-05-15 22:16:33.212507,-0.8742436,0.91817385,3.284614,-6.147748,1.4250723,-0.92859155
131,2024-05-15 22:16:33.229067,-0.8742436,0.91817385,3.284614,-6.147748,1.4250723,-0.92859155
132,2024-05-15 22:16:33.245729,-0.8742436,0.91817385,3.284614,-6.147748,1.4250723,-0.92859155
133,2024-05-15 22:16:33.262785,-0.8742436,0.91817385,3.284614,-6.147748,1.4250723,-0.92859155
134,2024-05-15 22:16:33.279010,-0.8742436,0.91817385,3.284614,-6.147748,1.4250723,-0.92859155
135,2024-05-15 22:16:33.296336,-0.8742436,0.91817385,3.284614,-6.147748,1.4250723,-0.92859155
136,2024-05-15 22:16:33.312471,0.51669973,2.096757,2.8438466,-0.0720821,-1.4814246,0.6718754
137,2024-05-15 22:16:33.329029,0.51669973,2.096757,2.8438466,-0.0720821,-1.4814246,0.6718754
138,2024-05-15 22:16:33.345347,-0.32923323,1.0729063,1.1644276,3.8655553,-2.1002312,-0.49793154
139,2024-05-15 22:16:33.362366,-0.32923323,0.9381865,1.1439269,3.9522982,-1.9969949,-0.5217553
140,2024-05-15 22:16:33.379019,-0.3585201,0.5579454,1.0648522,4.4122796,-1.4130076,-0.63843054
141,2024-05-15 22:16:33.395112,-0.6973021,0.17889395,1.0692453,4.7940702,-1.1179597,-0.3861432
142,2024-05-15 22:16:33.412455,-0.6973021,0.17889395,1.0692453,4.7940702,-1.1179597,-0.3861432
143,2024-05-15 22:16:33.428743,-0.3014107,-0.3521746,0.8217713,4.95595,-1.5651131,-0.10636691
144,2024-05-15 22:16:33.445407,-0.16425052,-0.8447127,1.0370297,4.8032336,-1.2181417,-0.7942012
145,2024-05-15 22:16:33.462429,-0.15326795,-0.96722937,1.0772992,4.81484,-0.9255372,-1.1240684
146,2024-05-15 22:16:33.479063,-0.29604146,-1.1510044,1.0411787,4.7378707,0.07078401,-1.9041433
147,2024-05-15 22:16:33.495279,-1.408973,-1.1807795,0.7756444,3.6658022,1.2405909,-1.8522198
148,2024-05-15 22:16:33.511942,-1.8258532,-1.1863928,0.59333366,2.438574,1.2357041,-0.74349934
149,2024-05-15 22:16:33.529088,-1.7797265,-1.4077528,0.7060881,0.28893927,0.1868484,1.0164034
150,2024-05-15 22:16:33.545998,-1.3216006,-1.5979038,1.1541772,-0.7611381,-0.64331746,1.7763197
151,2024-05-15 22:16:33.562010,-0.5035206,-1.9256727,1.3784659,-0.77763146,-0.4667774,1.0151817
152,2024-05-15 22:16:33.579030,-0.63726395,-2.0232954,1.0194577,-0.88208944,-0.41546473,0.7512879
153,2024-05-15 22:16:33.595368,-0.68705165,-1.8507471,0.52719414,-1.7843374,-0.50159675,0.59246296
154,2024-05-15 22:16:33.612665,-0.6560564,-1.7170037,0.46834585,-3.0060678,-0.37087157,0.35239288
155,2024-05-15 22:16:33.628733,-0.61822754,-1.476821,0.4634647,-3.1752775,-0.35865426,0.16913332
156,2024-05-15 22:16:33.645146,-0.6653306,-1.1771187,0.41416514,-3.2779028,0.11965323,-0.048334714
157,2024-05-15 22:16:33.663031,-0.714142,-0.88839895,0.39146784,-3.7617083,0.99257964,-0.08987355
158,2024-05-15 22:16:33.679058,-0.69412935,-0.7639297,0.5018122,-3.9492438,1.2576952,-0.088040955
159,2024-05-15 22:16:33.695750,-0.6733844,-0.48665017,0.7273211,-4.344474,1.6303229,-0.12530373
160,2024-05-15 22:16:33.712099,-0.68802786,-0.29774985,0.93525785,-4.6486845,1.8508453,-0.1680643
161,2024-05-15 22:16:33.728870,-0.8015145,-0.036120474,1.5566581,-4.690834,2.0646482,-0.20166188
162,2024-05-15 22:16:33.745448,-0.735375,0.2796896,1.6379292,-4.365243,1.9608011,-0.11491902
163,2024-05-15 22:16:33.762242,-0.5755175,0.60944146,1.6083983,-4.474588,1.6407077,-0.0538325
164,2024-05-15 22:16:33.778999,-0.39195594,1.2034768,2.088703,-4.6706758,1.7549394,0.007254025
165,2024-05-15 22:16:33.795678,-0.3243521,1.6655077,2.888997,-3.8136318,1.6071101,-0.060552016
166,2024-05-15 22:16:33.812469,-0.25430766,1.9486141,3.14062,-2.8716774,1.2656364,-0.10758864
167,2024-05-15 22:16:33.828982,-0.18255483,2.0833337,3.1220717,-2.122146,0.82031566,-0.15767959
168,2024-05-15 22:16:33.845509,-0.18255483,2.0833337,3.1220717,-2.122146,0.82031566,-0.15767959
169,2024-05-15 22:16:33.862179,-0.18255483,2.0833337,3.1220717,-2.122146,0.82031566,-0.15767959
170,2024-05-15 22:16:33.878816,-0.18255483,2.0833337,3.1220717,-2.122146,0.82031566,-0.15767959
171,2024-05-15 22:16:33.895726,-0.18255483,2.0833337,3.1220717,-2.122146,0.82031566,-0.15767959
172,2024-05-15 22:16:33.912170,-0.18255483,2.0833337,3.1220717,-2.122146,0.82031566,-0.15767959
173,2024-05-15 22:16:33.928919,-0.18255483,2.0833337,3.1220717,-2.122146,0.82031566,-0.15767959
174,2024-05-15 22:16:33.945694,-0.18255483,2.0833337,3.1220717,-2.122146,0.82031566,-0.15767959
175,2024-05-15 22:16:33.961901,-0.17620933,2.3269029,2.83262,1.6084082,-0.25663975,-0.5480225
176,2024-05-15 22:16:33.978994,-0.6431213,0.055645052,1.4992741,5.071403,-2.5052347,0.65843636
177,2024-05-15 22:16:33.995241,-0.5215808,-0.20915705,1.2012802,5.289482,-2.4850762,0.55336756
178,2024-05-15 22:16:34.012196,-0.35461518,-0.3692586,1.1344086,5.2241197,-2.299984,0.37743837
179,2024-05-15 22:16:34.028896,-0.27480847,-0.62603736,0.9808966,4.8936415,-1.515633,0.0023671028
180,2024-05-15 22:16:34.045445,-0.439059,-1.119033,1.183464,4.1496077,-0.4741078,-0.4209625
181,2024-05-15 22:16:34.061877,-0.5110864,-1.3601615,1.3306307,3.9138136,-0.17172949,-0.6653086
182,2024-05-15 22:16:34.078994,-0.8527665,-1.8858913,1.4436291,3.562566,-0.12408201,-1.1472813
183,2024-05-15 22:16:34.095510,-1.2195846,-2.1831532,1.170285,3.083037,0.023747386,-0.8497899
184,2024-05-15 22:16:34.112351,-1.3037844,-2.2536857,0.90743536,2.488665,0.25648704,-0.3000112
185,2024-05-15 22:16:34.128966,-1.1453912,-2.4738252,0.5423257,1.0910053,0.15325081,0.18440494
186,2024-05-15 22:16:34.145402,-0.86106443,-2.5326736,0.4234393,-0.10873401,-0.3476587,-0.082543164
187,2024-05-15 22:16:34.162471,-0.718291,-2.3786428,0.32728076,-0.37751472,-0.40752348,-0.28290698
188,2024-05-15 22:16:34.178949,-0.51767594,-2.0115807,-0.16449459,-1.3530666,-0.30795243,-0.9866237
189,2024-05-15 22:16:34.195493,-0.82396775,-1.6764902,-0.20988922,-2.6621506,0.4825072,-1.4997505
190,2024-05-15 22:16:34.212215,-1.0402025,-1.54714,-0.20232345,-3.38175,0.9760863,-1.5144113
191,2024-05-15 22:16:34.228782,-1.2061614,-1.3574768,-0.04612682,-3.9449677,1.1233048,-1.4514922
192,2024-05-15 22:16:34.245070,-1.1817558,-1.2664436,0.17254847,-5.220454,1.5380824,-1.3568081
193,2024-05-15 22:16:34.262115,-1.1392897,-1.004326,1.0858412,-5.86675,2.613816,-1.6597972
194,2024-05-15 22:16:34.278329,-1.3189158,-0.8251881,1.6533049,-5.7586265,3.1703143,-1.7691422
195,2024-05-15 22:16:34.294996,-1.6262144,-0.5184081,2.2158568,-4.327369,3.769573,-1.3158801
196,2024-05-15 22:16:34.312102,-1.3679714,0.2806658,1.7985189,-4.5674396,1.648038,-0.72578424
197,2024-05-15 22:16:34.328981,-1.2474071,0.34045988,1.8304904,-4.713436,1.2778537,-0.7190648
198,2024-05-15 22:16:34.345713,-1.0326368,0.5879644,1.982294,-4.619363,0.77144647,-0.65614563
199,2024-05-15 22:16:34.362171,-0.9896826,1.0233626,1.9249405,-4.2626176,1.1410199,-0.21693352
200,2024-05-15 22:16:34.378342,-0.86057633,1.3169634,2.0601482,-4.106847,1.5252541,0.067118816
201,2024-05-15 22:16:34.395596,-0.6043163,1.9466617,2.6947274,-2.7782152,1.5454127,0.6132324
202,2024-05-15 22:16:34.411821,-0.5025444,2.0791848,2.6720302,-2.0879374,0.76961386,0.809931
203,2024-05-15 22:16:34.428793,-0.20476402,2.1499612,2.4128108,-1.0390818,-0.29206994,1.0945941
204,2024-05-15 22:16:34.445327,-0.11299851,2.139955,2.3632672,-0.657291,-0.49426633,1.1581241
205,2024-05-15 22:16:34.461925,-0.024649782,1.9754603,2.408174,0.34574974,-0.74899715,1.1691197
206,2024-05-15 22:16:34.478133,-0.07028849,1.7999833,2.5031426,1.1038336,-0.83696175,1.0328968
207,2024-05-15 22:16:34.495424,-0.07028849,1.7999833,2.5031426,1.1038336,-0.83696175,1.0328968
208,2024-05-15 22:16:34.511711,-0.07028849,1.7999833,2.5031426,1.1038336,-0.83696175,1.0328968
209,2024-05-15 22:16:34.528785,-0.07028849,1.7999833,2.5031426,1.1038336,-0.83696175,1.0328968
210,2024-05-15 22:16:34.545236,-0.07028849,1.7999833,2.5031426,1.1038336,-0.83696175,1.0328968
211,2024-05-15 22:16:34.561764,-0.07028849,1.7999833,2.5031426,1.1038336,-0.83696175,1.0328968
212,2024-05-15 22:16:34.578669,-0.07028849,1.7999833,2.5031426,1.1038336,-0.83696175,1.0328968
213,2024-05-15 22:16:34.594946,-0.07028849,1.7999833,2.5031426,1.1038336,-0.83696175,1.0328968
214,2024-05-15 22:16:34.612011,-0.07028849,1.7999833,2.5031426,1.1038336,-0.83696175,1.0328968
215,2024-05-15 22:16:34.631242,-0.91695356,-0.106164895,1.3269697,5.299256,-1.9383518,1.068327
216,2024-05-15 22:16:34.645576,-0.87546384,-0.3243521,1.238133,5.459303,-1.3830752,0.70791644
217,2024-05-15 22:16:34.662157,-0.8493497,-0.5364683,1.272789,5.494733,-0.42157337,0.49594623
218,2024-05-15 22:16:34.679366,-1.080716,-1.0367857,1.4092171,5.28093,0.5606979,0.11049025
219,2024-05-15 22:16:34.695043,-1.4873154,-1.5403063,1.1436827,4.810564,0.5069418,-0.34277177
220,2024-05-15 22:16:34.712300,-1.8302463,-1.7724047,0.6836348,3.7055085,0.37377316,0.17096591
221,2024-05-15 22:16:34.728544,-1.4631537,-2.2131722,0.53549206,1.4709635,0.16730072,1.2772429
222,2024-05-15 22:16:34.744846,-0.9882183,-2.534626,0.77906126,0.39522982,-0.0819323,1.3578771
223,2024-05-15 22:16:34.761846,-0.8015145,-2.739146,0.8349504,0.1282817,-0.51809007,1.0719922
224,2024-05-15 22:16:34.778504,-0.4549227,-2.7320683,0.26699865,-0.10567969,-1.3983469,0.3450625
225,2024-05-15 22:16:34.794869,-0.06199054,-2.2922466,-0.53427184,-1.5943583,-1.5901586,-0.7037931
226,2024-05-15 22:16:34.811751,-0.17059602,-2.1638725,-0.58527976,-2.9236012,-1.017167,-1.3684145
227,2024-05-15 22:16:34.828350,-0.7239043,-1.9115173,0.013911263,-4.2730026,0.62361705,-2.1130593
228,2024-05-15 22:16:34.844869,-1.0841328,-1.7253017,0.28627914,-4.7152686,1.652925,-2.4074962
229,2024-05-15 22:16:34.862223,-1.2205608,-1.6257263,0.33020946,-5.168531,1.8337411,-2.5473845
230,2024-05-15 22:16:34.878478,-1.7323793,-1.1993278,1.1102469,-6.373157,2.428113,-2.5095108
231,2024-05-15 22:16:34.895129,-1.8526996,-0.9708903,1.7231051,-6.4696736,2.7873018,-2.337247
232,2024-05-15 22:16:34.912050,-1.7972987,-0.34460884,2.3603387,-5.8465915,3.2026901,-2.2260692
233,2024-05-15 22:16:34.928595,-1.7724047,0.067359805,2.3259265,-5.3664513,2.227749,-2.2327888
234,2024-05-15 22:16:34.945177,-1.6833237,0.4549227,2.1548424,-5.318193,1.1190288,-1.8473328
235,2024-05-15 22:16:34.962237,-1.552265,0.60968554,2.0984652,-5.2919254,0.9919688,-1.5852717
236,2024-05-15 22:16:34.978198,-1.208846,1.1895655,2.3244622,-5.158146,1.5252541,-1.1900419
237,2024-05-15 22:16:34.995398,-1.1571059,1.6518404,2.6058908,-4.682282,1.8758909,-1.0000628
238,2024-05-15 22:16:35.012014,-1.3274579,2.293955,2.8521445,-3.8136318,1.5173129,-0.4014148
239,2024-05-15 22:16:35.028039,-1.3608937,2.4572294,2.8018687,-3.3719761,0.9131672,0.1483639
240,2024-05-15 22:16:35.045128,-0.8598442,2.725967,2.4408774,-2.6676486,-0.4179082,1.4018594
241,2024-05-15 22:16:35.061762,-0.1986626,2.6720302,2.5487814,-1.9230038,-0.9860129,1.9327012
242,2024-05-15 22:16:35.078507,0.08932495,2.4179363,2.8599544,-0.037873644,-0.7563275,1.6492598
243,2024-05-15 22:16:35.095076,0.06638357,2.2531974,2.8731334,0.87109387,-0.6353762,1.3859769
244,2024-05-15 22:16:35.111814,-0.4996157,1.756541,2.6683693,2.9339857,-0.72822773,0.92599535
245,2024-05-15 22:16:35.128414,-0.4996157,1.756541,2.6683693,2.9339857,-0.72822773,0.92599535
246,2024-05-15 22:16:35.145083,-0.4996157,1.756541,2.6683693,2.9339857,-0.72822773,0.92599535
247,2024-05-15 22:16:35.161835,-0.4996157,1.756541,2.6683693,2.9339857,-0.72822773,0.92599535
248,2024-05-15 22:16:35.178525,-0.4996157,1.756541,2.6683693,2.9339857,-0.72822773,0.92599535
249,2024-05-15 22:16:35.195181,-1.1949348,0.5203605,1.7999833,5.1331005,-2.246228,2.160554
250,2024-05-15 22:16:35.211727,-1.1949348,0.5203605,1.7999833,5.1331005,-2.246228,2.160554
251,2024-05-15 22:16:35.228381,-1.1949348,0.5203605,1.7999833,5.1331005,-2.246228,2.160554
252,2024-05-15 22:16:35.240886,-1.1649158,-0.40098605,1.6594063,6.1208696,-1.7453184,2.1733823
253,2024-05-15 22:16:35.261918,-1.0670488,-0.9762595,1.5019894,5.9400535,-1.2773956,1.8697822
254,2024-05-15 22:16:35.287278,-0.83128947,-1.8441576,1.6386615,5.318193,-0.9915106,0.0017562376
255,2024-05-15 22:16:35.298044,-0.83128947,-1.8441576,1.6386615,5.318193,-0.9915106,0.0017562376
256,2024-05-15 22:16:35.311291,-1.6974791,-2.2651563,1.2476511,5.500231,-0.7398342,-0.971963
257,2024-05-15 22:16:35.328016,-2.0091403,-2.3639996,0.30067852,3.296229,-0.122860275,-0.43745586
258,2024-05-15 22:16:35.339428,-1.8941894,-2.5155895,0.22794947,2.0708332,-0.3843106,-0.056886826
259,2024-05-15 22:16:35.349705,-1.7314031,-2.7982078,0.5023003,0.115453534,-1.3586407,0.4525748
260,2024-05-15 22:16:35.361427,-1.5695932,-2.9131587,0.6138345,-0.21685717,-1.6414713,0.5454263
261,2024-05-15 22:16:35.377968,-0.57649374,-2.82481,0.1632743,-0.7770206,-2.44537,0.15997034
262,2024-05-15 22:16:35.394777,-0.071264714,-2.547317,-0.33826336,-1.1911873,-2.281047,-0.7056257
263,2024-05-15 22:16:35.411709,-0.04148973,-2.4613783,-0.530611,-2.506991,-0.6488153,-2.095955
264,2024-05-15 22:16:35.429312,-0.9030423,-1.9910799,-0.4893348,-4.365854,0.99929917,-2.6634488
265,2024-05-15 22:16:35.444818,-1.3040284,-1.7811908,0.052716363,-5.431203,1.8453475,-2.9456685
266,2024-05-15 22:16:35.461791,-1.5332286,-1.6469593,0.38390204,-5.64806,2.0689242,-3.034244
267,2024-05-15 22:16:35.478050,-2.0450168,-1.2144594,1.0275115,-5.8472023,2.3755786,-3.0818915
268,2024-05-15 22:16:35.489891,-2.1006618,-1.0226303,1.2081139,-5.9143972,2.9332986,-2.8430433
269,2024-05-15 22:16:35.502150,-2.0987093,-0.61749536,1.5205377,-5.9736514,3.461697,-2.7037659
270,2024-05-15 22:16:35.513077,-2.2407506,-0.22965786,1.888332,-6.1550784,3.4598644,-2.7068202
271,2024-05-15 22:16:35.528688,-2.3144557,-0.111046046,2.092608,-6.197839,3.1507666,-2.6603944
272,2024-05-15 22:16:35.544937,-2.3769345,0.1871919,2.6036942,-5.9510493,1.9785162,-2.4337635
273,2024-05-15 22:16:35.561219,-1.8875998,0.72170776,2.4386811,-5.0237556,1.3096187,-1.891926
274,2024-05-15 22:16:35.578661,-1.6667279,1.3135467,2.6803284,-4.6346345,1.9363664,-1.7086664
275,2024-05-15 22:16:35.594830,-1.55617,1.7721606,2.8936343,-4.4067817,1.893606,-1.6023759
276,2024-05-15 22:16:35.611224,-1.5066264,2.0396473,2.781856,-3.255301,0.7250207,-1.0996338
277,2024-05-15 22:16:35.627838,-1.1012168,2.434044,2.1240911,-2.5363126,-0.5779549,-0.1698969
278,2024-05-15 22:16:35.644574,-0.940139,2.4418538,2.0452607,-2.3738225,-0.8986591,0.18379408
279,2024-05-15 22:16:35.661219,-0.45687518,2.4838316,2.1641166,-1.582141,-0.85406595,0.7250207
280,2024-05-15 22:16:35.677952,-0.31678632,2.4394133,2.3686366,-0.7189884,-0.63843054,0.6840927
281,2024-05-15 22:16:35.694818,-0.48445365,2.2776031,2.451372,1.9339994,-0.7025714,0.4507422
282,2024-05-15 22:16:35.711194,-0.8515463,1.9852226,2.1711943,2.293188,-0.8479573,0.5032766
283,2024-05-15 22:16:35.728207,-1.0897461,1.5451875,1.5173649,3.227812,-1.9023107,1.2228758
284,2024-05-15 22:16:35.745209,-1.0055463,1.1578381,1.4038478,3.3420436,-2.110005,1.4183527
285,2024-05-15 22:16:35.761561,-1.0055463,1.1578381,1.4038478,3.3420436,-2.110005,1.4183527
286,2024-05-15 22:16:35.778189,-1.0055463,1.1578381,1.4038478,3.3420436,-2.110005,1.4183527
287,2024-05-15 22:16:35.795272,-1.0055463,1.1578381,1.4038478,3.3420436,-2.110005,1.4183527
288,2024-05-15 22:16:35.813306,-1.0055463,1.1578381,1.4038478,3.3420436,-2.110005,1.4183527
289,2024-05-15 22:16:35.828491,-1.0055463,1.1578381,1.4038478,3.3420436,-2.110005,1.4183527
290,2024-05-15 22:16:35.844830,-1.0055463,1.1578381,1.4038478,3.3420436,-2.110005,1.4183527
291,2024-05-15 22:16:35.861582,-1.0055463,1.1578381,1.4038478,3.3420436,-2.110005,1.4183527
292,2024-05-15 22:16:35.878124,-1.0055463,1.1578381,1.4038478,3.3420436,-2.110005,1.4183527
293,2024-05-15 22:16:35.894793,-1.0055463,1.1578381,1.4038478,3.3420436,-2.110005,1.4183527
294,2024-05-15 22:16:35.911204,-2.310307,-1.8185316,2.538531,5.621182,0.18318321,-0.2664136
295,2024-05-15 22:16:35.928100,-2.2368457,-1.9749724,1.5290797,4.649906,-1.4282793,0.92233014
296,2024-05-15 22:16:35.945271,-1.7636187,-2.3437426,0.8339742,3.0347786,-2.2529473,1.294958
297,2024-05-15 22:16:35.962337,-1.6850322,-2.590759,0.65922916,2.6774223,-2.2651646,1.3279446
298,2024-05-15 22:16:35.978515,-0.83080137,-2.9639227,0.04637088,0.72265357,-2.494239,1.5832864
299,2024-05-15 22:16:35.994446,0.3802412,-2.6717863,-0.28213018,-0.24984388,-2.7037659,0.031077769
300,2024-05-15 22:16:36.011737,0.3104408,-2.5707467,-0.6462941,-0.66156703,-2.3757312,-1.7208837
301,2024-05-15 22:16:36.028232,-0.25308737,-2.4154956,-1.2232454,-1.3750577,-1.6762906,-2.6622272
302,2024-05-15 22:16:36.044636,-0.5457425,-2.208047,-1.3855435,-2.5002716,-0.7538841,-2.7844002
303,2024-05-15 22:16:36.061428,-0.8625288,-1.8824744,-1.2442343,-4.8301115,0.92049754,-2.7471373
304,2024-05-15 22:16:36.077966,-1.2962185,-1.7260338,-0.27871338,-6.3658266,1.6138296,-2.7587438
305,2024-05-15 22:16:36.094683,-1.409461,-1.4289857,0.94550824,-6.255871,2.5160775,-3.011642
306,2024-05-15 22:16:36.111650,-1.5246866,-1.1783389,1.2454547,-5.9137864,3.1067843,-3.3231833
307,2024-05-15 22:16:36.127869,-2.3039613,-0.5320753,1.9859549,-5.660888,3.492851,-3.5259905
308,2024-05-15 22:16:36.144651,-2.4403894,0.21184167,2.973197,-4.5271225,2.6779568,-2.4832435
309,2024-05-15 22:16:36.161812,-2.3200693,0.319715,3.1801574,-4.1679335,2.2845597,-2.4239895
310,2024-05-15 22:16:36.178471,-2.2019455,0.5879644,3.045926,-2.9119947,0.4189772,-2.3512967
311,2024-05-15 22:16:36.194381,-2.20341,1.106342,2.3679044,-2.7806585,-0.88827443,-1.6481907
312,2024-05-15 22:16:36.212776,-1.9874192,1.859045,1.7933937,-3.145956,-1.0611492,-0.87544626
313,2024-05-15 22:16:36.228429,-1.8668548,2.0128012,1.7277422,-3.145956,-1.0611492,-0.87544626
314,2024-05-15 22:16:36.244472,-1.3801743,2.3732738,1.5952193,-3.1343496,-0.6506478,1.2210432
315,2024-05-15 22:16:36.261398,-1.2010362,2.378399,1.61572,-3.0213394,-0.7557167,1.4959326
316,2024-05-15 22:16:36.278008,-0.48225713,2.3901136,1.8561163,-2.1875083,-0.9322567,1.8288542
317,2024-05-15 22:16:36.294855,-0.31068486,2.3766904,2.0450168,-1.5039502,-0.84245956,1.7188984
318,2024-05-15 22:16:36.311732,-0.3360668,2.1709502,2.3208015,0.5992588,-0.6701955,1.2094368
319,2024-05-15 22:16:36.328111,-0.69412935,1.8607534,2.0291529,2.3157902,-1.0593166,0.96631247
320,2024-05-15 22:16:36.344413,-0.8044432,1.7148073,1.8436695,2.3157902,-1.0593166,0.96631247
321,2024-05-15 22:16:36.361335,-0.9093878,1.4331347,1.4697433,3.2901201,-1.5877151,1.2967906
322,2024-05-15 22:16:36.377888,-0.92403126,0.96161604,1.3765135,3.7464366,-1.778916,1.7335593
323,2024-05-15 22:16:36.394641,-0.92403126,0.96161604,1.3765135,3.7464366,-1.778916,1.7335593
324,2024-05-15 22:16:36.411340,-0.92403126,0.96161604,1.3765135,3.7464366,-1.778916,1.7335593
325,2024-05-15 22:16:36.428072,-0.92403126,0.96161604,1.3765135,3.7464366,-1.778916,1.7335593
326,2024-05-15 22:16:36.444638,-0.92403126,0.96161604,1.3765135,3.7464366,-1.778916,1.7335593
327,2024-05-15 22:16:36.461601,-0.92403126,0.96161604,1.3765135,3.7464366,-1.778916,1.7335593
328,2024-05-15 22:16:36.478078,-0.92403126,0.96161604,1.3765135,3.7464366,-1.778916,1.7335593
329,2024-05-15 22:16:36.494697,-0.92403126,0.96161604,1.3765135,3.7464366,-1.778916,1.7335593
330,2024-05-15 22:16:36.511636,-0.92403126,0.96161604,1.3765135,3.7464366,-1.778916,1.7335593
331,2024-05-15 22:16:36.527687,-1.1087825,-1.7748454,1.3645545,4.4611487,0.57108265,-1.2627348
332,2024-05-15 22:16:36.544915,-1.3330712,-1.7501955,1.2864562,4.129449,0.5429828,-1.2975541
333,2024-05-15 22:16:36.561655,-1.8949214,-1.824633,1.0392263,2.4636195,0.12759447,-0.13324498
334,2024-05-15 22:16:36.577576,-1.2481393,-2.289074,1.2874324,1.1191051,-1.0373255,0.7946593
335,2024-05-15 22:16:36.594280,-0.38536638,-2.6842332,0.93110895,1.2657127,-1.3952925,0.13859005
336,2024-05-15 22:16:36.611380,0.18182266,-2.3456953,-0.07175283,1.2443326,-1.3403147,-0.500375
337,2024-05-15 22:16:36.628041,0.099087246,-2.03379,-0.8347063,-0.86620694,-1.2376894,-2.3555727
338,2024-05-15 22:16:36.644532,-0.020744866,-1.9800974,-0.9391628,-1.5674802,-1.2175308,-2.6164122
339,2024-05-15 22:16:36.661462,-0.4527262,-1.8021798,-0.43588626,-3.9852848,-0.41179952,-3.4936147
340,2024-05-15 22:16:36.678096,-1.20006,-1.705533,0.23112221,-4.7836857,0.60468024,-3.7740018
341,2024-05-15 22:16:36.694287,-1.6472033,-1.4172709,0.63750803,-4.9834385,0.98036236,-3.5681403
342,2024-05-15 22:16:36.711341,-1.7663033,-1.1746781,0.7485541,-5.087897,1.0102948,-3.273703
343,2024-05-15 22:16:36.727959,-1.8400086,-0.6697236,0.8766842,-5.517946,1.3462707,-2.7923415
344,2024-05-15 22:16:36.744501,-1.8400086,-0.6697236,0.8766842,-5.517946,1.3462707,-2.7923415
345,2024-05-15 22:16:36.761208,-1.9332385,-0.1615659,1.4848748,-6.786102,1.181337,-2.5528822
346,2024-05-15 22:16:36.778009,-2.305914,0.13179092,2.7977197,-5.6132407,1.2705233,-2.5644886
347,2024-05-15 22:16:36.794204,-2.5817292,0.38927132,2.7794156,-4.2406263,1.0542771,-1.978058
348,2024-05-15 22:16:36.811397,-2.0164618,0.86740994,1.6054696,-3.6230419,0.27420214,-0.81374884
349,2024-05-15 22:16:36.827685,-1.2771821,1.1461233,1.4370396,-5.068349,-0.29390255,-0.24503332
350,2024-05-15 22:16:36.848094,-1.1729697,1.4997928,2.327879,-4.360967,0.17035505,-0.0067958757
351,2024-05-15 22:16:36.861113,-1.16638,1.6469593,2.4481993,-3.7641516,0.32490396,0.04879286
352,2024-05-15 22:16:36.875216,-1.3762693,2.0491657,2.166069,-2.1862867,0.39393172,0.39759693
353,2024-05-15 22:16:36.890916,-1.3762693,2.0491657,2.166069,-2.1862867,0.39393172,0.39759693
354,2024-05-15 22:16:36.911441,-1.0890139,2.2178092,1.6825917,-1.7146988,-1.0923034,2.324266
355,2024-05-15 22:16:36.927789,-0.41026023,2.1038344,2.4286747,-0.75136423,-1.1741594,2.3908503
356,2024-05-15 22:16:36.944583,-0.5730769,1.8400086,2.8999798,1.8435913,-0.18822286,1.6388751
357,2024-05-15 22:16:36.961246,-0.7656381,1.7345759,2.7711174,2.8136454,-0.018402316,1.5173129
358,2024-05-15 22:16:36.977902,-1.2459428,1.5791113,2.1956,3.862501,-0.09231701,1.698129
359,2024-05-15 22:16:36.994397,-1.5198054,1.152957,1.5464077,3.775758,-1.3733014,2.7036133
360,2024-05-15 22:16:37.011112,-1.4316703,0.9386747,1.6911337,3.7195585,-2.322586,3.0909019
361,2024-05-15 22:16:37.027558,-1.3189158,0.5303669,1.9647218,4.696332,-2.0696878,3.017598
362,2024-05-15 22:16:37.044430,-1.3189158,0.5303669,1.9647218,4.696332,-2.0696878,3.017598
363,2024-05-15 22:16:37.060722,-1.3189158,0.5303669,1.9647218,4.696332,-2.0696878,3.017598
364,2024-05-15 22:16:37.077770,-1.3189158,0.5303669,1.9647218,4.696332,-2.0696878,3.017598
365,2024-05-15 22:16:37.094420,-1.3189158,0.5303669,1.9647218,4.696332,-2.0696878,3.017598
366,2024-05-15 22:16:37.111051,-1.3189158,0.5303669,1.9647218,4.696332,-2.0696878,3.017598
367,2024-05-15 22:16:37.127712,-1.3189158,0.5303669,1.9647218,4.696332,-2.0696878,3.017598
368,2024-05-15 22:16:37.144401,-1.3189158,0.5303669,1.9647218,4.696332,-2.0696878,3.017598
369,2024-05-15 22:16:37.161067,-1.3189158,0.5303669,1.9647218,4.696332,-2.0696878,3.017598
370,2024-05-15 22:16:37.177721,-1.3189158,0.5303669,1.9647218,4.696332,-2.0696878,3.017598
371,2024-05-15 22:16:37.193903,-1.1222057,-2.9866202,-0.050763905,1.1575897,-0.8846092,1.3407729
372,2024-05-15 22:16:37.210919,-0.4253918,-3.109625,-0.31605414,-0.15943582,-1.45699,0.6559929
373,2024-05-15 22:16:37.229044,0.13520771,-3.0608134,-0.65459204,-1.3396275,-1.6793449,-0.5089271
374,2024-05-15 22:16:37.244109,0.08664032,-2.7381697,-0.71316576,-2.7904325,-0.5620724,-2.7654634
375,2024-05-15 22:16:37.260853,-0.28725538,-2.6437197,-0.7426967,-3.1923819,0.049403727,-3.2327752
376,2024-05-15 22:16:37.277544,-0.91719764,-2.408174,-0.62994224,-4.632802,1.2931254,-4.1252494
377,2024-05-15 22:16:37.294176,-1.3389286,-2.2729661,-0.3214234,-5.3695054,1.5936711,-4.4386234
378,2024-05-15 22:16:37.311086,-1.8839389,-1.9796093,0.4253918,-5.935167,1.8050305,-4.553466
379,2024-05-15 22:16:37.327197,-2.0403795,-1.7367723,0.60334,-6.11415,1.920484,-4.6817474
380,2024-05-15 22:16:37.344647,-2.2905383,-1.4692552,0.98309314,-6.2589254,2.255238,-4.7275624
381,2024-05-15 22:16:37.360669,-2.537799,-1.0753468,1.4162947,-6.188065,3.1257212,-4.7880383
382,2024-05-15 22:16:37.377141,-3.2646015,-0.4339338,2.3330042,-5.5704803,4.0621777,-5.2205305
383,2024-05-15 22:16:37.394009,-3.5228443,0.31556603,2.4064655,-4.7983465,1.1996629,-3.9303834
384,2024-05-15 22:16:37.410968,-3.2533746,0.5613622,2.3229978,-4.874705,0.72563154,-3.174132
385,2024-05-15 22:16:37.427744,-2.9590416,0.6633781,2.3522847,-4.9419,0.6278931,-2.6646705
386,2024-05-15 22:16:37.443978,-2.204874,0.8691184,2.662024,-4.321261,0.74884444,-2.063579
387,2024-05-15 22:16:37.461320,-1.8412288,1.259854,2.6732504,-4.321261,0.74884444,-2.063579
388,2024-05-15 22:16:37.477577,-1.8692955,1.5922905,1.9691149,-2.1991148,0.16913332,-1.452103
389,2024-05-15 22:16:37.494049,-1.7370164,1.7687438,1.5468959,-2.2791383,-0.6879106,-0.9029352
390,2024-05-15 22:16:37.511061,-1.3645545,1.935679,1.4160507,-2.4465153,-1.1387292,0.2008983
391,2024-05-15 22:16:37.527727,-1.1688206,1.9830261,1.477309,-2.3542747,-1.0018953,0.5613088
392,2024-05-15 22:16:37.543941,-0.81396145,2.0474572,1.8958976,-0.4605924,-0.7954229,0.88567823
393,2024-05-15 22:16:37.560717,-0.81396145,2.0474572,1.8958976,-0.4605924,-0.7954229,0.88567823
394,2024-05-15 22:16:37.577598,-1.2698604,1.935191,1.476821,1.4074335,-0.7184539,1.3450489
395,2024-05-15 22:16:37.594056,-1.3996987,1.8456221,1.2874324,1.7195857,-0.9560805,1.9693532
396,2024-05-15 22:16:37.610590,-1.2410617,1.5456756,1.2962185,1.9792033,-1.6604081,2.6492462
397,2024-05-15 22:16:37.627110,-1.1861488,1.195911,1.4480221,2.8527408,-1.8797088,2.8386145
398,2024-05-15 22:16:37.643942,-1.2566813,0.7815018,1.1580821,3.8356228,-1.8589393,3.0298152
399,2024-05-15 22:16:37.660713,-1.3050046,0.7082847,1.1261107,3.9522982,-1.8192331,3.1202233
400,2024-05-15 22:16:37.677512,-1.4638858,0.5760056,1.2161677,3.9522982,-1.8192331,3.1202233
401,2024-05-15 22:16:37.693944,-1.4638858,0.5760056,1.2161677,3.9522982,-1.8192331,3.1202233
402,2024-05-15 22:16:37.711166,-1.4638858,0.5760056,1.2161677,3.9522982,-1.8192331,3.1202233
403,2024-05-15 22:16:37.727501,-1.4638858,0.5760056,1.2161677,3.9522982,-1.8192331,3.1202233
404,2024-05-15 22:16:37.744369,-1.4638858,0.5760056,1.2161677,3.9522982,-1.8192331,3.1202233
405,2024-05-15 22:16:37.761172,-1.4638858,0.5760056,1.2161677,3.9522982,-1.8192331,3.1202233
406,2024-05-15 22:16:37.777495,-1.4638858,0.5760056,1.2161677,3.9522982,-1.8192331,3.1202233
407,2024-05-15 22:16:37.794149,-1.4638858,0.5760056,1.2161677,3.9522982,-1.8192331,3.1202233
408,2024-05-15 22:16:37.810914,-1.4638858,0.5760056,1.2161677,3.9522982,-1.8192331,3.1202233
409,2024-05-15 22:16:37.827103,-1.4638858,0.5760056,1.2161677,3.9522982,-1.8192331,3.1202233
410,2024-05-15 22:16:37.843896,-1.2420379,-3.220183,-0.12520137,1.5589281,-2.8509846,3.122056
411,2024-05-15 22:16:37.860684,-0.34338856,-3.4210422,-0.54867125,-0.37934732,-3.3635004,1.8905516
412,2024-05-15 22:16:37.877189,0.16254212,-3.0227406,-0.77320385,-1.1972959,-3.2321644,-0.27924177
413,2024-05-15 22:16:37.893743,0.017084008,-2.6939955,-1.3777337,-2.1685717,-1.2492958,-2.0177643
414,2024-05-15 22:16:37.910574,-0.38536638,-2.486272,-1.417515,-3.1874948,0.29313895,-2.789287
415,2024-05-15 22:16:37.927741,-0.6060247,-2.403781,-1.3079332,-3.5643988,0.77816594,-2.9609401
416,2024-05-15 22:16:37.944453,-1.1056099,-2.0152416,-0.68070614,-4.646241,2.2992203,-3.4319172
417,2024-05-15 22:16:37.960850,-1.3867638,-1.8871115,-0.37243137,-5.086064,2.75065,-3.6628244
418,2024-05-15 22:16:37.977904,-2.02476,-1.2076257,0.8395874,-5.2467217,3.8056142,-3.8699076
419,2024-05-15 22:16:37.994264,-2.6700778,-0.58259517,1.4663264,-4.7714686,3.9888737,-3.651218
420,2024-05-15 22:16:38.010740,-2.5695262,-0.15839316,1.3816385,-4.810564,2.7585912,-3.2168927
421,2024-05-15 22:16:38.027693,-2.4625988,-0.028554698,1.3987225,-5.02681,2.4690409,-3.0556242
422,2024-05-15 22:16:38.044131,-2.3805954,0.34631723,2.0772324,-4.8734827,3.0475304,-2.8650343
423,2024-05-15 22:16:38.061163,-2.281752,0.6838789,2.2292798,-4.373795,2.890538,-2.889469
424,2024-05-15 22:16:38.078151,-2.2356255,1.1546654,2.332272,-4.1679335,2.4213934,-2.825328
425,2024-05-15 22:16:38.094277,-2.3632672,1.5283475,2.344719,-3.857614,1.8099173,-2.2889884
426,2024-05-15 22:16:38.111110,-2.403781,1.6440306,2.2959075,-3.8191295,1.5991689,-2.005547
427,2024-05-15 22:16:38.127675,-1.803156,2.1836412,2.1238472,-3.9510765,0.18990274,-0.19372064
428,2024-05-15 22:16:38.144044,-1.1942025,2.3125033,2.3078663,-3.659083,-0.32872185,0.3114649
429,2024-05-15 22:16:38.160715,-0.60382813,2.434776,2.7188892,-1.8674151,-0.4405102,0.44219008
430,2024-05-15 22:16:38.177770,-0.5642909,2.4645512,2.6281,-0.65240407,-0.54008126,0.3279583
431,2024-05-15 22:16:38.194042,-1.0350773,2.4687002,1.8485507,1.3060299,-1.0690905,0.65354943
432,2024-05-15 22:16:38.210809,-1.2627827,2.1711943,1.3735847,1.890017,-1.5364025,1.7262288
433,2024-05-15 22:16:38.227616,-1.2066495,2.0274446,1.2691282,1.9865338,-1.6946166,2.0298288
434,2024-05-15 22:16:38.244236,-0.956979,1.5442113,1.1841964,2.485,-2.042199,2.586938
435,2024-05-15 22:16:38.260843,-0.87326735,1.1346527,1.0975559,3.2748485,-1.964619,2.7628672
436,2024-05-15 22:16:38.277474,-0.92232287,0.93159705,1.0636319,3.7665951,-1.8033506,2.8538861
437,2024-05-15 22:16:38.294030,-1.2159237,0.6809502,0.98260504,4.2992697,-1.547398,3.1562643
438,2024-05-15 22:16:38.310674,-1.4421648,0.42051062,1.0699775,4.379904,-1.6316974,3.7164278
439,2024-05-15 22:16:38.327414,-1.4421648,0.42051062,1.0699775,4.379904,-1.6316974,3.7164278
440,2024-05-15 22:16:38.344120,-1.4421648,0.42051062,1.0699775,4.379904,-1.6316974,3.7164278
441,2024-05-15 22:16:38.382766,-1.4421648,0.42051062,1.0699775,4.379904,-1.6316974,3.7164278
442,2024-05-15 22:16:38.401331,-1.4421648,0.42051062,1.0699775,4.379904,-1.6316974,3.7164278
443,2024-05-15 22:16:38.411945,-1.4421648,0.42051062,1.0699775,4.379904,-1.6316974,3.7164278
444,2024-05-15 22:16:38.426911,-1.2940221,-0.153512,1.6135235,5.0164256,-0.69218665,3.1752012
445,2024-05-15 22:16:38.443583,-2.9795425,-1.5698372,1.6401258,3.1453452,-1.5742761,2.8838184
446,2024-05-15 22:16:38.460265,-2.9795425,-1.5698372,1.6401258,3.1453452,-1.5742761,2.8838184
447,2024-05-15 22:16:38.476907,-0.9291565,-2.6759353,-0.500836,0.9254609,-2.3769531,1.2289845
448,2024-05-15 22:16:38.493836,-0.21379416,-2.5212028,-0.7988299,-0.6389651,-2.6640596,0.6278931
449,2024-05-15 22:16:38.510556,0.29555333,-2.3076222,-0.74831,-1.4789047,-2.567543,-1.2499067
450,2024-05-15 22:16:38.527668,0.3082443,-2.2275715,-0.8434923,-1.5497651,-2.1741457,-1.8283961
451,2024-05-15 22:16:38.543915,-0.21989559,-1.9451972,-1.1895655,-2.2999077,0.13859005,-3.4410803
452,2024-05-15 22:16:38.561058,-0.9994449,-1.7587376,-0.78174585,-3.418402,1.9491947,-3.78683
453,2024-05-15 22:16:38.577262,-1.2762059,-1.5224901,-0.48274526,-3.9791763,2.2454643,-3.6817613
454,2024-05-15 22:16:38.593608,-1.2962185,-1.2564372,-0.12861817,-4.169766,2.138563,-3.6548831
455,2024-05-15 22:16:38.610598,-1.3750491,-0.918662,0.1398448,-4.483751,1.9724075,-4.0501127
456,2024-05-15 22:16:38.626871,-1.4641299,-0.82982516,0.21769907,-4.5216246,2.2118666,-4.1686206
457,2024-05-15 22:16:38.643702,-2.3737617,-0.33631086,0.9020661,-4.9119673,3.0933452,-4.1973314
458,2024-05-15 22:16:38.660300,-2.7371936,0.041245673,1.4275213,-5.059186,2.8288405,-3.727576
459,2024-05-15 22:16:38.677201,-2.6910667,0.18279888,1.6508642,-5.0921726,2.3358724,-3.4991124
460,2024-05-15 22:16:38.693975,-2.4367285,0.47859627,2.0821135,-4.9748864,1.906434,-3.5278232
461,2024-05-15 22:16:38.710496,-3.0395803,1.6530607,2.7501285,-3.1257975,1.2283736,-2.8967993
462,2024-05-15 22:16:38.727454,-2.897295,1.9791212,2.332028,-2.7727172,0.32979086,-1.8222874
463,2024-05-15 22:16:38.743863,-2.051362,2.2536857,1.8068169,-2.9999592,-0.7960338,-0.80702937
464,2024-05-15 22:16:38.760538,-1.4748684,2.3857205,1.9647218,-2.9205468,-1.3256539,-0.067882404
465,2024-05-15 22:16:38.777230,-1.0409347,2.47773,2.318849,-1.4563028,-0.75938183,0.28031078
466,2024-05-15 22:16:38.793962,-0.9484369,2.379131,2.3171406,-0.004886922,-0.37636936,0.32429308
467,2024-05-15 22:16:38.810610,-1.0716859,2.1597235,1.8756409,1.6194037,-0.42279512,0.45807257
468,2024-05-15 22:16:38.826912,-1.2322756,1.9530071,1.4038478,2.44285,-0.71601045,0.98586017
469,2024-05-15 22:16:38.843910,-1.2613183,1.756297,1.0924308,2.5729644,-1.0165561,1.4721088
470,2024-05-15 22:16:38.860758,-1.1097587,1.4119016,0.9887064,2.6847527,-1.348256,2.165441
471,2024-05-15 22:16:38.877214,-0.9787001,1.0380061,1.1888334,3.3035593,-1.1210141,2.437276
472,2024-05-15 22:16:38.893899,-0.9948079,0.79663336,1.2845038,3.9290853,-0.8113054,2.4794257
473,2024-05-15 22:16:38.910458,-1.217632,0.44149956,1.1041455,4.7433686,-0.6854672,2.7243826
474,2024-05-15 22:16:38.927155,-1.2581456,0.17620933,0.9745511,4.9076915,-0.64392835,3.1892512
475,2024-05-15 22:16:38.943898,-1.2386211,0.017816179,1.0453277,4.849048,-0.44845146,3.344411
476,2024-05-15 22:16:38.960558,-1.2178762,-0.1300825,1.1539332,4.8154507,-0.23770294,3.380452
477,2024-05-15 22:16:38.977485,-1.2178762,-0.1300825,1.1539332,4.8154507,-0.23770294,3.380452
478,2024-05-15 22:16:38.993802,-1.2178762,-0.1300825,1.1539332,4.8154507,-0.23770294,3.380452
479,2024-05-15 22:16:39.010403,-1.2178762,-0.1300825,1.1539332,4.8154507,-0.23770294,3.380452
480,2024-05-15 22:16:39.027155,-1.2178762,-0.1300825,1.1539332,4.8154507,-0.23770294,3.380452
481,2024-05-15 22:16:39.043766,-1.2178762,-0.1300825,1.1539332,4.8154507,-0.23770294,3.380452
482,2024-05-15 22:16:39.060552,-1.2178762,-0.1300825,1.1539332,4.8154507,-0.23770294,3.380452
483,2024-05-15 22:16:39.077093,-1.2178762,-0.1300825,1.1539332,4.8154507,-0.23770294,3.380452
484,2024-05-15 22:16:39.094414,-0.3590082,-2.6473806,-0.114218794,0.37812558,-1.9426278,0.65660375
485,2024-05-15 22:16:39.105930,0.27505252,-2.4008522,-0.3829258,-0.9138544,-2.372066,-0.75449497
486,2024-05-15 22:16:39.117917,0.29213652,-2.328367,-0.47639978,-1.174083,-2.2859342,-1.2657892
487,2024-05-15 22:16:39.131368,0.200371,-2.1511817,-0.7234162,-1.8106046,-1.6261996,-2.259056
488,2024-05-15 22:16:39.144041,0.107629254,-2.059172,-0.79468095,-2.1716259,-1.1900419,-2.6359599
489,2024-05-15 22:16:39.160709,-0.51523536,-1.692842,-0.44491637,-3.38175,0.49716794,-3.6426659
490,2024-05-15 22:16:39.176511,-0.961372,-1.4458256,-0.17254847,-3.5918877,0.737238,-3.8057668
491,2024-05-15 22:16:39.193690,-1.2332518,-1.2393532,0.04807928,-4.065308,0.74456835,-3.995135
492,2024-05-15 22:16:39.210481,-1.4638858,-0.9091437,0.20256752,-4.1361685,0.8600219,-3.9719222
493,2024-05-15 22:16:39.227144,-1.782167,-0.53500396,0.28115395,-4.5191813,1.6284903,-3.9163334
494,2024-05-15 22:16:39.243819,-1.9603289,-0.43930307,0.37145513,-4.7586403,1.7671568,-3.8381426
495,2024-05-15 22:16:39.260449,-2.3635116,-0.14008886,0.9850456,-5.447696,1.5643495,-3.2889748
496,2024-05-15 22:16:39.276929,-2.5158336,0.0690682,1.5383539,-5.434257,0.71402514,-2.4917958
497,2024-05-15 22:16:39.293682,-2.3566778,0.23771177,1.7460465,-5.218011,0.38293615,-2.213241
498,2024-05-15 22:16:39.310459,-2.3566778,0.23771177,1.7460465,-5.218011,0.38293615,-2.213241
499,2024-05-15 22:16:39.326637,-2.3517966,0.9896826,2.021343,-3.7678168,0.66026896,-1.4850898
500,2024-05-15 22:16:39.343318,-2.3630233,1.0973119,1.9315301,-3.645033,0.35117117,-1.1026881
501,2024-05-15 22:16:39.359690,-2.033302,1.3940855,1.594243,-3.807523,-0.9224829,-0.05749769
502,2024-05-15 22:16:39.376619,-1.4287416,1.5937549,1.7894888,-3.8020253,-1.6683494,0.6999752
503,2024-05-15 22:16:39.393756,-1.0445955,1.7257898,2.2017014,-3.145956,-1.3745232,0.83436555
504,2024-05-15 22:16:39.409963,-0.8654575,1.9066361,2.305426,-0.51251596,-0.24197899,0.5802456
505,2024-05-15 22:16:39.426702,-1.1292834,1.9552035,1.8592892,1.1203269,-0.20715968,0.67859495
506,2024-05-15 22:16:39.443365,-1.2932898,1.910053,1.5632477,1.5247196,-0.5089271,1.0573313
507,2024-05-15 22:16:39.460376,-1.306713,1.7799705,1.2886528,1.6487253,-1.1643856,1.7140115
508,2024-05-15 22:16:39.476855,-1.110491,1.4160507,1.3174515,2.007914,-1.7361554,2.2931118
509,2024-05-15 22:16:39.493311,-1.0201898,1.1680884,1.425813,2.6309967,-1.620091,2.442163
510,2024-05-15 22:16:39.510282,-1.0587507,0.80566347,1.4802377,3.8276815,-1.1026881,2.6046531
511,2024-05-15 22:16:39.527094,-1.2632707,0.49616838,1.2161677,4.7128253,-0.7740426,2.877099
512,2024-05-15 22:16:39.543611,-1.3381964,0.40220633,1.1593024,4.774523,-0.80153155,3.0383673
513,2024-05-15 22:16:39.560331,-1.3838351,0.024649782,1.1456352,4.7470336,-1.0831405,3.5905895
514,2024-05-15 22:16:39.576590,-1.2356924,-0.298482,1.2183642,4.7787986,-1.1020772,3.6321285
515,2024-05-15 22:16:39.593564,-1.1375813,-0.5193843,1.3093976,4.813618,-0.90354604,3.479412
516,2024-05-15 22:16:39.610180,-1.1419744,-1.1353848,1.8895522,5.2827625,0.48311806,2.4904213
517,2024-05-15 22:16:39.626906,-1.6184046,-1.6606265,1.9664303,5.9547143,1.0964267,1.5783994
518,2024-05-15 22:16:39.643589,-1.6184046,-1.6606265,1.9664303,5.9547143,1.0964267,1.5783994
519,2024-05-15 22:16:39.660232,-1.6184046,-1.6606265,1.9664303,5.9547143,1.0964267,1.5783994
520,2024-05-15 22:16:39.676999,-1.6184046,-1.6606265,1.9664303,5.9547143,1.0964267,1.5783994
521,2024-05-15 22:16:39.693689,-0.97284275,-2.7196214,0.5206046,0.3848451,-1.8369482,1.7757089
522,2024-05-15 22:16:39.711092,-0.97284275,-2.7196214,0.5206046,0.3848451,-1.8369482,1.7757089
523,2024-05-15 22:16:39.726840,-0.97284275,-2.7196214,0.5206046,0.3848451,-1.8369482,1.7757089
524,2024-05-15 22:16:39.743388,-0.97284275,-2.7196214,0.5206046,0.3848451,-1.8369482,1.7757089
525,2024-05-15 22:16:39.760572,-0.15424417,-1.7814348,-0.88058907,-1.4630222,-1.4600443,-2.7703502
526,2024-05-15 22:16:39.776969,-0.54208165,-1.4492424,-0.8395874,-3.0634892,-0.3665955,-3.2101731
527,2024-05-15 22:16:39.793619,-0.8696065,-1.1881012,-0.37072295,-3.7085629,0.56986094,-3.220558
528,2024-05-15 22:16:39.810148,-1.3277019,-0.67899776,0.37218732,-3.7299433,1.6547576,-3.152141
529,2024-05-15 22:16:39.826788,-1.6149879,-0.1615659,0.5462307,-3.6957347,1.3340533,-2.9334512
530,2024-05-15 22:16:39.843382,-1.6904016,-0.009274175,0.5923574,-3.8337903,1.0225121,-2.8277717
531,2024-05-15 22:16:39.860402,-1.8475745,0.3699908,0.7836983,-4.216192,0.3310126,-2.1881957
532,2024-05-15 22:16:39.877085,-1.7858279,0.61847156,1.0311724,-4.38418,0.5839108,-1.4783703
533,2024-05-15 22:16:39.893597,-1.7096821,0.65459204,1.1248904,-4.416556,0.63583434,-1.2169199
534,2024-05-15 22:16:39.910148,-1.306469,0.9045067,1.4172709,-4.2491784,0.7476227,-1.0751992
535,2024-05-15 22:16:39.926679,-1.2393532,1.1600347,1.5835044,-3.9773436,0.79893535,-1.2499067
536,2024-05-15 22:16:39.943894,-1.6642874,1.7548326,1.8395205,-3.1429017,0.986471,-1.3280973
537,2024-05-15 22:16:39.960102,-2.101882,2.1333654,1.769232,-2.4373524,0.8087092,-0.26519188
538,2024-05-15 22:16:39.976955,-1.7719167,2.213416,1.3359998,-2.4373524,0.8087092,-0.26519188
539,2024-05-15 22:16:39.994359,-1.0157968,2.0794287,1.5017452,-2.4984388,-0.78564906,1.911321
540,2024-05-15 22:16:40.010101,-0.5645349,1.9430008,2.0357425,-1.2394456,-0.40080395,2.0078378
541,2024-05-15 22:16:40.026257,-0.5523321,1.8134062,2.161188,-0.65179324,-0.1643991,1.8856647
542,2024-05-15 22:16:40.043083,-0.9948079,1.6013206,2.038427,1.3628404,-0.014737124,1.3407729
543,2024-05-15 22:16:40.060307,-1.119277,1.5200496,1.9383637,2.2009475,-0.4893794,1.426294
544,2024-05-15 22:16:40.076631,-1.2154356,1.2322756,1.5649561,2.7507262,-1.3592515,1.892995
545,2024-05-15 22:16:40.093527,-1.1524688,1.0580187,1.4460697,2.9620855,-1.6671276,2.0640373
546,2024-05-15 22:16:40.110440,-0.99553996,0.6931531,1.3084214,3.5607336,-1.9499582,2.1501694
547,2024-05-15 22:16:40.126395,-0.92842424,0.33191785,1.1341646,4.5625525,-1.6720145,1.9687424
548,2024-05-15 22:16:40.143338,-0.92695993,0.2306341,1.0267794,4.8447723,-1.5333481,1.8923842
549,2024-05-15 22:16:40.160050,-1.0819362,-0.052472305,0.6685033,5.123327,-1.1979831,1.9155971
550,2024-05-15 22:16:40.176214,-1.1075623,-0.24747404,0.6231087,4.9938235,-1.0330495,2.0023398
551,2024-05-15 22:16:40.193158,-1.1397778,-0.4229512,0.66044945,4.8789806,-0.8125271,2.0066159
552,2024-05-15 22:16:40.210161,-1.2940221,-0.8425161,0.8044432,4.659069,-0.27435485,1.8233564
553,2024-05-15 22:16:40.226913,-1.3372202,-1.1846844,0.93062085,4.529566,0.18379408,1.4892131
554,2024-05-15 22:16:40.243532,-1.3372202,-1.1846844,0.93062085,4.529566,0.18379408,1.4892131
555,2024-05-15 22:16:40.259957,-1.3372202,-1.1846844,0.93062085,4.529566,0.18379408,1.4892131
556,2024-05-15 22:16:40.277047,-1.3372202,-1.1846844,0.93062085,4.529566,0.18379408,1.4892131
557,2024-05-15 22:16:40.293303,-1.3372202,-1.1846844,0.93062085,4.529566,0.18379408,1.4892131
558,2024-05-15 22:16:40.309963,-1.3372202,-1.1846844,0.93062085,4.529566,0.18379408,1.4892131
559,2024-05-15 22:16:40.327265,-0.9489251,-2.0628328,0.27261195,-0.19120082,-1.3910165,0.8245917
560,2024-05-15 22:16:40.344498,-0.9489251,-2.0628328,0.27261195,-0.19120082,-1.3910165,0.8245917
561,2024-05-15 22:16:40.355914,-0.9489251,-2.0628328,0.27261195,-0.19120082,-1.3910165,0.8245917
562,2024-05-15 22:16:40.367565,-0.005857374,-1.7780181,-0.016595893,-2.7800477,-0.30245465,-2.0874028
563,2024-05-15 22:16:40.380832,-0.48665017,-1.5739862,-0.012202863,-3.245527,0.5283221,-3.551647
564,2024-05-15 22:16:40.393388,-0.7671024,-1.438992,-0.02757847,-3.4232888,0.7042513,-3.7538433
565,2024-05-15 22:16:40.409839,-1.200548,-1.217632,0.13325526,-3.889379,0.9559277,-3.990859
566,2024-05-15 22:16:40.426382,-1.4385039,-0.7712514,0.3414361,-4.139223,1.244867,-4.1454077
567,2024-05-15 22:16:40.443568,-1.5451875,-0.61920375,0.35607952,-4.2571197,1.3505467,-4.244979
568,2024-05-15 22:16:40.459638,-2.2097552,0.0353883,1.0118918,-4.787962,1.6333773,-4.0556107
569,2024-05-15 22:16:40.476585,-2.4662595,0.38756293,1.4565641,-4.5588875,1.3138947,-3.5608099
570,2024-05-15 22:16:40.493217,-2.5373106,0.71048117,1.6022968,-4.2455134,0.31451926,-2.5089
571,2024-05-15 22:16:40.510320,-2.3530169,0.7873592,1.5505568,-4.174653,-0.022067508,-1.8571067
572,2024-05-15 22:16:40.526542,-1.5071145,0.9901707,1.6269467,-4.212527,-0.064828075,-1.0953578
573,2024-05-15 22:16:40.543113,-1.5071145,0.9901707,1.6269467,-4.212527,-0.064828075,-1.0953578
574,2024-05-15 22:16:40.560183,-1.4058002,1.4226402,2.071375,-3.1942143,0.4965571,-1.0550406
575,2024-05-15 22:16:40.576682,-1.6230417,1.7301829,1.8553842,-2.0146337,0.18501581,-0.10392345
576,2024-05-15 22:16:40.593640,-1.722617,1.7955902,1.5324965,-2.07572,-0.08620836,0.17890716
577,2024-05-15 22:16:40.609885,-1.4055562,1.7936378,1.4758446,-2.1551325,-1.0923034,1.290682
578,2024-05-15 22:16:40.626595,-0.85886794,1.8026677,1.7721606,-1.5204436,-0.97990423,1.6743053
579,2024-05-15 22:16:40.643510,-0.88058907,1.6894253,2.2585669,-1.1624765,-0.7942012,1.62116
580,2024-05-15 22:16:40.659887,-0.95575863,1.6313397,2.3605828,0.57848936,-0.31772628,1.3322208
581,2024-05-15 22:16:40.676321,-1.3379524,1.4189793,2.1216507,2.1801782,-0.5571855,1.322447
582,2024-05-15 22:16:40.693063,-1.5166328,1.2659554,1.8114538,2.638938,-1.2853369,1.6248252
583,2024-05-15 22:16:40.709883,-1.5056502,1.0084751,1.5534854,2.9981265,-2.2847123,2.087861
584,2024-05-15 22:16:40.726639,-1.2361805,0.60895336,1.3320949,3.7519343,-2.686051,2.2900574
585,2024-05-15 22:16:40.742755,-1.1822438,0.49226347,1.2474071,4.048204,-2.649399,2.2619576
586,2024-05-15 22:16:40.759851,-1.1390457,0.22331238,0.9618601,4.6853366,-2.4123833,2.2008712
587,2024-05-15 22:16:40.776503,-1.1944467,-0.020012695,0.7102371,4.705495,-2.399555,2.2656229
588,2024-05-15 22:16:40.793290,-1.191762,-0.18231077,0.68876004,4.6089783,-2.467972,2.346257
589,2024-05-15 22:16:40.810106,-1.0751027,-0.39293218,0.67680126,4.4678683,-2.544941,2.387185
590,2024-05-15 22:16:40.826577,-0.7773528,-0.80419916,0.64482975,3.8313468,-2.0837376,2.2094233
591,2024-05-15 22:16:40.843507,-0.709749,-0.9406271,0.68778384,3.6242635,-1.915139,2.0634265
592,2024-05-15 22:16:40.859837,-0.46419686,-1.3328272,0.8757079,2.919936,-1.7691422,1.0194577
593,2024-05-15 22:16:40.876581,-0.46419686,-1.3328272,0.8757079,2.919936,-1.7691422,1.0194577
594,2024-05-15 22:16:40.893193,-0.46419686,-1.3328272,0.8757079,2.919936,-1.7691422,1.0194577
595,2024-05-15 22:16:40.909777,-0.46419686,-1.3328272,0.8757079,2.919936,-1.7691422,1.0194577
596,2024-05-15 22:16:40.926542,-0.46419686,-1.3328272,0.8757079,2.919936,-1.7691422,1.0194577
597,2024-05-15 22:16:40.943214,-0.46419686,-1.3328272,0.8757079,2.919936,-1.7691422,1.0194577
598,2024-05-15 22:16:40.959755,-0.46419686,-1.3328272,0.8757079,2.919936,-1.7691422,1.0194577
599,2024-05-15 22:16:40.976143,-0.46419686,-1.3328272,0.8757079,2.919936,-1.7691422,1.0194577
600,2024-05-15 22:16:40.992668,-0.46419686,-1.3328272,0.8757079,2.919936,-1.7691422,1.0194577
601,2024-05-15 22:16:41.009751,-0.46419686,-1.3328272,0.8757079,2.919936,-1.7691422,1.0194577
602,2024-05-15 22:16:41.027565,-0.38170552,-1.6789309,0.27334413,-2.3909266,-0.07338019,-1.2034808
603,2024-05-15 22:16:41.042751,-1.4001869,-0.96722937,-0.18743597,-2.869845,2.6822329,-2.7911196
604,2024-05-15 22:16:41.059512,-1.4546117,-0.8525225,-0.14936304,-3.1832187,2.7054458,-2.675666
605,2024-05-15 22:16:41.076069,-1.8019358,-0.48518583,0.522313,-4.4892488,2.6663504,-2.0935116
606,2024-05-15 22:16:41.093239,-1.8500149,-0.3053156,0.83739096,-4.609589,2.8221211,-1.7886899
607,2024-05-15 22:16:41.109762,-1.7462906,-0.026358182,1.3591853,-4.542394,3.2314007,-1.3592515
608,2024-05-15 22:16:41.126137,-1.5654442,0.24723,1.7438501,-4.188092,2.9326878,-1.484479
609,2024-05-15 22:16:41.143477,-1.5022334,0.34241232,1.7938818,-4.105625,2.478204,-1.6689602
610,2024-05-15 22:16:41.159285,-1.5095551,0.85960007,1.9342147,-4.224744,2.4678192,-1.6622407
611,2024-05-15 22:16:41.176606,-1.7782621,1.3633343,2.5775802,-4.3267584,2.0182223,-1.2156982
612,2024-05-15 22:16:41.193036,-1.7789943,1.6779546,2.9409814,-3.4483342,1.1440742,-0.74349934
613,2024-05-15 22:16:41.210064,-1.7026043,1.7831432,2.8907056,-2.9358184,0.56802833,-0.49548808
614,2024-05-15 22:16:41.226143,-0.6660627,2.4093943,2.1670454,-1.4068227,-1.1930962,0.29130638
615,2024-05-15 22:16:41.243274,-0.61066175,2.5697703,2.3825479,-0.8216137,-0.76487964,0.29802588
616,2024-05-15 22:16:41.259431,-0.846421,2.5326736,2.5155895,0.8246681,0.1043816,0.48678324
617,2024-05-15 22:16:41.276585,-1.0206779,2.3757143,2.3168964,2.044566,0.2485458,0.69631004
618,2024-05-15 22:16:41.292760,-1.3572329,1.8871115,1.7335995,3.2919528,-0.6671412,1.5313628
619,2024-05-15 22:16:41.309462,-1.3584532,1.5993681,1.4846307,3.4972036,-1.2095896,2.0182223
620,2024-05-15 22:16:41.326092,-1.2535084,1.1795592,1.3259935,3.7329974,-1.6133715,2.5435665
621,2024-05-15 22:16:41.343073,-1.1898096,0.9489251,1.2593659,3.9920044,-1.7239381,2.8074603
622,2024-05-15 22:16:41.359461,-1.0621676,0.53402776,1.0743705,4.410447,-1.6707928,3.063413
623,2024-05-15 22:16:41.376287,-1.0153086,0.2716357,0.9852896,4.5857654,-1.5962672,3.1092277
624,2024-05-15 22:16:41.403521,-0.99431974,-0.14008886,0.9289124,4.728097,-1.5736653,3.0499737
625,2024-05-15 22:16:41.415454,-0.85911196,-0.6087093,0.8937682,4.768414,-1.5645022,2.763478
626,2024-05-15 22:16:41.429684,-0.78028154,-0.83080137,0.9193942,4.67373,-1.1491139,2.491643
627,2024-05-15 22:16:41.442422,-0.709749,-1.1224499,1.0790076,4.578435,-0.7037931,2.2363014
628,2024-05-15 22:16:41.455020,-0.67045575,-1.362358,1.3179396,4.566218,0.6712645,1.2198216
629,2024-05-15 22:16:41.469007,-1.2742534,-1.871004,1.404336,4.681671,1.8306868,-0.39530617
630,2024-05-15 22:16:41.481416,-1.5403063,-1.9325063,1.2615625,4.601648,1.7714329,-0.60483295
631,2024-05-15 22:16:41.492669,-2.2561262,-2.0237837,0.79102004,3.566842,1.1013137,-0.53580517
632,2024-05-15 22:16:41.509352,-2.4481993,-2.1048107,0.6550802,2.9565878,0.8117635,-0.27130052
633,2024-05-15 22:16:41.526061,-2.4481993,-2.1048107,0.6550802,2.9565878,0.8117635,-0.27130052
634,2024-05-15 22:16:41.542929,-2.4481993,-2.1048107,0.6550802,2.9565878,0.8117635,-0.27130052
635,2024-05-15 22:16:41.559627,-2.4481993,-2.1048107,0.6550802,2.9565878,0.8117635,-0.27130052
636,2024-05-15 22:16:41.576672,-2.4481993,-2.1048107,0.6550802,2.9565878,0.8117635,-0.27130052
637,2024-05-15 22:16:41.592574,-0.39805737,-2.5734313,0.39244407,-1.3628404,-2.6603944,1.0371728
638,2024-05-15 22:16:41.609539,-0.15058333,-1.8234128,-0.2767609,-2.6316075,-0.08926269,-2.4691937
639,2024-05-15 22:16:41.626407,-0.15058333,-1.8234128,-0.2767609,-2.6316075,-0.08926269,-2.4691937
640,2024-05-15 22:16:41.642619,-1.6774664,-0.8359266,-0.15912533,-5.1966305,1.2809081,-2.5119543
641,2024-05-15 22:16:41.659639,-1.6774664,-0.8359266,-0.15912533,-5.1966305,1.2809081,-2.5119543
642,2024-05-15 22:16:41.675941,-1.7929054,-0.4339338,1.0345892,-6.393316,1.6174948,-2.0929008
643,2024-05-15 22:16:41.692831,-1.7326233,-0.20549619,1.8319546,-5.9266148,2.1348977,-1.9664515
644,2024-05-15 22:16:41.709286,-1.645495,-0.08346757,2.20341,-4.053702,1.9901226,-2.372066
645,2024-05-15 22:16:41.725883,-1.5600749,0.24991462,1.6843,-3.0549371,1.6700292,-2.5565474
646,2024-05-15 22:16:41.742803,-1.5961955,0.3909797,1.4109254,-3.1410692,1.5722908,-2.4490352
647,2024-05-15 22:16:41.759705,-1.5422589,0.46248847,1.374805,-3.5839465,1.3059535,-2.1582632
648,2024-05-15 22:16:41.776230,-1.1351408,0.81396145,1.9498343,-3.9920044,1.0420598,-1.9334649
649,2024-05-15 22:16:41.793022,-1.0726621,1.1927383,2.5817292,-4.180762,0.78549635,-1.7636443
650,2024-05-15 22:16:41.809656,-1.6359768,1.8141385,2.4130552,-1.7592919,0.8838456,-1.3635275
651,2024-05-15 22:16:41.827266,-1.7340878,2.1472766,1.8336631,-1.9388863,-0.22182044,0.015195273
652,2024-05-15 22:16:41.842573,-1.4677907,2.1289723,1.7450703,-2.4251351,-1.0684797,0.81542873
653,2024-05-15 22:16:41.859453,-0.7675905,1.999378,2.3332481,-2.5320365,-2.0202076,1.5991689
654,2024-05-15 22:16:41.876528,-0.5274382,1.9430008,2.9148672,-1.0836749,-1.6524669,1.3700944
655,2024-05-15 22:16:41.893171,-0.8024908,1.7794824,2.8211493,1.822211,-0.7868708,0.741514
656,2024-05-15 22:16:41.909444,-1.3940855,1.5869212,2.008408,3.291342,-0.99517584,0.9308823
657,2024-05-15 22:16:41.925794,-1.6118151,1.4424088,1.6022968,3.4049628,-1.9475148,1.6510924
658,2024-05-15 22:16:41.943073,-1.5276153,1.2217811,1.4482661,3.4147367,-2.4191027,1.979127
659,2024-05-15 22:16:41.959210,-1.4201996,1.0341011,1.4424088,3.5717292,-2.7049878,2.133676
660,2024-05-15 22:16:41.975889,-1.3482027,0.5916253,1.5727658,4.5802674,-2.467361,2.1452823
661,2024-05-15 22:16:41.992773,-1.3811505,0.15668476,1.4172709,5.612019,-1.9750037,2.1752148
662,2024-05-15 22:16:42.009651,-1.4409444,-0.24503349,1.3128144,6.1538563,-1.5907694,2.201482
663,2024-05-15 22:16:42.026087,-1.4731601,-0.3521746,1.2928017,6.289469,-1.4863116,2.2411883
664,2024-05-15 22:16:42.042833,-1.353816,-0.8976731,1.1429507,6.2906904,-0.849179,2.1935408
665,2024-05-15 22:16:42.059653,-1.3892044,-1.3440537,1.281087,5.9901447,-0.17661642,1.870393
666,2024-05-15 22:16:42.076107,-1.4331347,-1.8134062,1.4060442,5.9192843,0.33712125,1.340162
667,2024-05-15 22:16:42.092805,-1.5320083,-2.1392229,0.94965726,5.4599137,0.31268665,0.69264483
668,2024-05-15 22:16:42.109623,-1.7575173,-2.3942626,0.34949,3.7452147,-0.13935363,0.8862891
669,2024-05-15 22:16:42.126022,-1.7582495,-2.4913974,0.18011424,1.6872098,-0.97379553,1.6993507
670,2024-05-15 22:16:42.142914,-1.1690648,-2.7750225,-0.07004443,0.84849185,-1.3470342,1.9027689
671,2024-05-15 22:16:42.159352,-0.3968371,-2.8931463,-0.23819989,-0.4990769,-1.9688951,1.7024051
672,2024-05-15 22:16:42.177000,-0.3968371,-2.8931463,-0.23819989,-0.4990769,-1.9688951,1.7024051
673,2024-05-15 22:16:42.192686,-0.3968371,-2.8931463,-0.23819989,-0.4990769,-1.9688951,1.7024051
674,2024-05-15 22:16:42.209598,-0.3968371,-2.8931463,-0.23819989,-0.4990769,-1.9688951,1.7024051
675,2024-05-15 22:16:42.226255,-0.3968371,-2.8931463,-0.23819989,-0.4990769,-1.9688951,1.7024051
676,2024-05-15 22:16:42.242770,-0.3968371,-2.8931463,-0.23819989,-0.4990769,-1.9688951,1.7024051
677,2024-05-15 22:16:42.259333,-0.3968371,-2.8931463,-0.23819989,-0.4990769,-1.9688951,1.7024051
678,2024-05-15 22:16:42.276132,-0.3968371,-2.8931463,-0.23819989,-0.4990769,-1.9688951,1.7024051
679,2024-05-15 22:16:42.292666,-0.3968371,-2.8931463,-0.23819989,-0.4990769,-1.9688951,1.7024051
680,2024-05-15 22:16:42.309033,-2.5107083,-0.3746279,1.8788137,-5.5826974,2.6535223,-4.123417
681,2024-05-15 22:16:42.326854,-2.6271238,-0.18963248,2.2378218,-5.3377404,2.4665976,-3.9792526
682,2024-05-15 22:16:42.343101,-2.6647086,0.29726174,2.370589,-4.216192,0.70119697,-3.2755358
683,2024-05-15 22:16:42.359289,-2.3732738,0.5533083,1.9032195,-4.3120975,-0.46799913,-2.4258223
684,2024-05-15 22:16:42.376224,-2.1362941,0.72707707,1.9046837,-4.5949283,-0.5565746,-1.7599791
685,2024-05-15 22:16:42.392638,-1.803156,1.1737018,2.2907825,-4.4318275,-0.2279291,-1.1735485
686,2024-05-15 22:16:42.409384,-1.7504396,1.6979674,2.60345,-3.0250046,0.027412578,-0.78442734
687,2024-05-15 22:16:42.425940,-1.726522,1.8009595,2.5148573,-2.484389,-0.035506543,-0.59567
688,2024-05-15 22:16:42.444068,-1.6227976,1.9813178,1.8209721,-1.3878858,-0.7184539,0.1746311
689,2024-05-15 22:16:42.459238,-1.3438097,2.0908995,1.3269697,-1.4245378,-1.2645674,1.2247084
690,2024-05-15 22:16:42.475928,-1.1868808,2.131413,1.3608937,-1.4984524,-1.2260829,1.4995978
691,2024-05-15 22:16:42.492676,-0.78003746,1.9837583,2.281752,-0.32620203,-0.5241987,1.8447367
692,2024-05-15 22:16:42.509481,-1.0155526,1.7150513,2.564401,1.8521434,0.021303926,1.5203673
693,2024-05-15 22:16:42.526285,-1.1475877,1.6213332,2.4796827,2.457511,-0.017180584,1.4995978
694,2024-05-15 22:16:42.542943,-1.5310321,1.3435657,1.8983383,3.5778377,-0.65614563,1.8881081
695,2024-05-15 22:16:42.559484,-1.5527532,0.9655209,1.5185852,3.695124,-1.5590044,2.645581
696,2024-05-15 22:16:42.575879,-1.5190734,0.89718497,1.5112635,3.716504,-1.7416532,2.8380036
697,2024-05-15 22:16:42.592951,-1.3684595,0.52646196,1.6899134,4.241237,-1.810681,3.1043408
698,2024-05-15 22:16:42.608910,-1.3979905,0.10958171,1.790465,5.534439,-1.2938889,3.004159
699,2024-05-15 22:16:42.625592,-1.6352446,-0.2630937,1.6074221,6.3248987,-1.1167381,3.1519883
700,2024-05-15 22:16:42.642219,-1.7633747,-0.44271985,1.4824343,6.4550133,-1.103299,3.298596
701,2024-05-15 22:16:42.659338,-1.7665473,-0.8691184,1.4031156,6.335894,-0.8613964,3.8440986
702,2024-05-15 22:16:42.675374,-1.7843635,-1.2112865,1.6101067,5.8771343,0.11720977,3.742695
703,2024-05-15 22:16:42.692513,-1.6616027,-1.7296947,1.8976061,5.9217277,0.7885507,2.9662852
704,2024-05-15 22:16:42.709193,-1.7643509,-1.9295776,1.6750259,5.6285124,0.78732896,2.0011182
705,2024-05-15 22:16:42.726351,-1.9081006,-2.0743036,1.5303,5.439755,0.6847036,1.8893298
706,2024-05-15 22:16:42.742679,-1.8858913,-2.408662,0.93428165,4.0262127,-0.4618905,2.1489475
707,2024-05-15 22:16:42.758904,-1.4209318,-2.7010732,0.45223808,2.8002062,-1.4050664,2.3890176
708,2024-05-15 22:16:42.775852,-0.6977902,-2.964655,-0.2767609,1.3799446,-2.1429915,1.974851
709,2024-05-15 22:16:42.792506,0.26626647,-2.7450035,-0.70096296,0.33353242,-2.3684008,1.3914747
710,2024-05-15 22:16:42.809432,0.26626647,-2.7450035,-0.70096296,0.33353242,-2.3684008,1.3914747
711,2024-05-15 22:16:42.825911,0.26626647,-2.7450035,-0.70096296,0.33353242,-2.3684008,1.3914747
712,2024-05-15 22:16:42.842608,0.26626647,-2.7450035,-0.70096296,0.33353242,-2.3684008,1.3914747
713,2024-05-15 22:16:42.859254,0.26626647,-2.7450035,-0.70096296,0.33353242,-2.3684008,1.3914747
714,2024-05-15 22:16:42.875778,0.26626647,-2.7450035,-0.70096296,0.33353242,-2.3684008,1.3914747
715,2024-05-15 22:16:42.892473,0.26626647,-2.7450035,-0.70096296,0.33353242,-2.3684008,1.3914747
716,2024-05-15 22:16:42.909100,0.26626647,-2.7450035,-0.70096296,0.33353242,-2.3684008,1.3914747
717,2024-05-15 22:16:42.925466,-2.0130453,-0.6314066,0.63677585,-5.998086,2.6889524,-3.9291615
718,2024-05-15 22:16:42.942508,-2.1455681,-0.4527262,0.7617332,-6.3529987,2.690785,-3.7935495
719,2024-05-15 22:16:42.959333,-2.3290992,-0.20500809,1.1183008,-6.606508,2.4354434,-3.7495673
720,2024-05-15 22:16:42.975486,-2.5534184,0.005857374,1.9422686,-6.5441995,1.6535358,-3.3115768
721,2024-05-15 22:16:42.992129,-2.426234,0.25796852,2.4093943,-5.4507504,1.7457765,-2.7361417
722,2024-05-15 22:16:43.009157,-2.344231,0.8664337,2.8331082,-4.5564437,2.196595,-2.4074962
723,2024-05-15 22:16:43.026076,-2.3537493,1.076323,2.8787467,-4.223522,2.2979987,-2.2443953
724,2024-05-15 22:16:43.042397,-2.5192504,1.5107754,2.969292,-3.5234706,1.7622699,-1.6133715
725,2024-05-15 22:16:43.058734,-2.2710137,1.7160275,2.6742268,-2.9859092,-0.2401464,-0.34399348
726,2024-05-15 22:16:43.075743,-1.8890641,1.782167,2.476266,-2.7769935,-1.5186874,0.57047176
727,2024-05-15 22:16:43.092782,-1.0394703,1.8077931,2.5595198,-1.9871446,-2.0208185,1.1825588
728,2024-05-15 22:16:43.109428,-0.6392164,1.7736249,2.6171174,0.312763,-1.1002446,0.90705854
729,2024-05-15 22:16:43.125501,-0.7595367,1.7531241,2.3085985,1.2608259,-0.7380016,0.7018078
730,2024-05-15 22:16:43.142308,-1.1036574,1.7196884,1.9654541,2.1453588,-0.62254804,0.72990763
731,2024-05-15 22:16:43.158808,-1.4284977,1.6552573,1.5983919,2.2461514,-1.7990745,1.8074739
732,2024-05-15 22:16:43.175051,-1.18322,1.0402025,1.8346393,2.6468792,-2.7178159,2.454991
733,2024-05-15 22:16:43.192335,-1.0804719,0.86618966,1.8890641,3.3554828,-2.680553,2.5240188
734,2024-05-15 22:16:43.209016,-0.9850456,0.40293851,1.7199324,4.935791,-2.1582632,2.269899
735,2024-05-15 22:16:43.225709,-1.247163,0.09127741,1.4568082,5.756183,-1.7764724,2.1483366
736,2024-05-15 22:16:43.242474,-1.4375277,-0.08419975,1.4792615,5.9076777,-1.7037796,2.2356904
737,2024-05-15 22:16:43.259029,-1.6884491,-0.35315084,1.6086423,6.2528167,-1.4832572,2.8465557
738,2024-05-15 22:16:43.275626,-1.7106583,-0.87277925,1.6733174,6.188065,-1.1979831,3.3285284
739,2024-05-15 22:16:43.292316,-1.8336631,-1.4719398,1.9005347,5.95166,-0.7972555,3.1849751
740,2024-05-15 22:16:43.309314,-1.9547155,-2.147765,1.9932766,5.9101214,-0.5144249,2.5148559
741,2024-05-15 22:16:43.325516,-1.9212795,-2.2363577,1.8998026,5.8960714,-0.4796056,2.3798547
742,2024-05-15 22:16:43.342312,-1.7977866,-2.5226672,1.3647985,5.381112,-0.39591703,2.0438788
743,2024-05-15 22:16:43.358713,-1.4641299,-2.7796595,0.65459204,4.2778893,-1.5357916,1.847791
744,2024-05-15 22:16:43.375387,-1.2466749,-2.8313997,0.36291313,3.716504,-2.1655936,1.616273
745,2024-05-15 22:16:43.392368,-0.6633781,-2.799184,-0.78955567,1.7623463,-2.5828147,0.56375223
746,2024-05-15 22:16:43.409072,-0.23136626,-2.5226672,-0.9889505,-0.5564982,-2.2327888,-0.4356233
747,2024-05-15 22:16:43.425493,-0.03904916,-2.2414827,-0.8547189,-1.7073684,-1.8962021,-1.7190511
748,2024-05-15 22:16:43.442363,-0.03904916,-2.2414827,-0.8547189,-1.7073684,-1.8962021,-1.7190511
749,2024-05-15 22:16:43.459038,-0.03904916,-2.2414827,-0.8547189,-1.7073684,-1.8962021,-1.7190511
750,2024-05-15 22:16:43.475583,-0.03904916,-2.2414827,-0.8547189,-1.7073684,-1.8962021,-1.7190511
751,2024-05-15 22:16:43.492347,-0.03904916,-2.2414827,-0.8547189,-1.7073684,-1.8962021,-1.7190511
752,2024-05-15 22:16:43.508923,-0.03904916,-2.2414827,-0.8547189,-1.7073684,-1.8962021,-1.7190511
753,2024-05-15 22:16:43.525692,-0.03904916,-2.2414827,-0.8547189,-1.7073684,-1.8962021,-1.7190511
754,2024-05-15 22:16:43.542239,-0.03904916,-2.2414827,-0.8547189,-1.7073684,-1.8962021,-1.7190511
755,2024-05-15 22:16:43.558893,-0.03904916,-2.2414827,-0.8547189,-1.7073684,-1.8962021,-1.7190511
756,2024-05-15 22:16:43.575661,-0.03904916,-2.2414827,-0.8547189,-1.7073684,-1.8962021,-1.7190511
757,2024-05-15 22:16:43.591914,-3.0603254,0.5098661,2.6510413,-6.6975265,1.5197563,-2.8418214
758,2024-05-15 22:16:43.609309,-2.110668,0.67045575,2.8526325,-4.234518,1.294347,-0.9224829
759,2024-05-15 22:16:43.625545,-1.8856474,0.75685203,2.7796595,-3.7824776,1.2454779,-0.9194285
760,2024-05-15 22:16:43.642350,-1.7416537,1.4519271,2.2990801,-2.8252518,0.56986094,-0.69646275
761,2024-05-15 22:16:43.658224,-1.9644778,1.7628864,2.0259802,-3.1343496,-0.69279754,0.4348597
762,2024-05-15 22:16:43.675449,-1.6757581,1.7572733,2.1221387,-3.3053918,-1.4209489,1.322447
763,2024-05-15 22:16:43.692322,-1.1517366,1.6769783,2.4901772,-2.7672195,-1.5754979,1.7964783
764,2024-05-15 22:16:43.708969,-0.6538599,1.6557454,2.7284074,-1.1087204,-1.1039099,1.6449838
765,2024-05-15 22:16:43.725698,-0.6262814,1.6318277,2.786005,-0.40317106,-0.794812,1.4519503
766,2024-05-15 22:16:43.742396,-0.9818728,1.4668145,2.8909495,1.4306464,-0.17783815,1.0255663
767,2024-05-15 22:16:43.759142,-1.493905,1.1729697,2.7271872,2.9571986,-0.5492442,1.2650256
768,2024-05-15 22:16:43.775963,-1.4785293,0.8600882,2.238554,3.794695,-1.7807486,1.6345991
769,2024-05-15 22:16:43.791797,-1.4324025,0.59919107,2.080649,4.194201,-2.4227679,1.7213418
770,2024-05-15 22:16:43.808498,-1.3259935,0.20866893,1.9259167,5.126992,-2.772183,1.7396679
771,2024-05-15 22:16:43.824946,-1.340881,-0.12568948,1.683568,6.2497625,-2.4417048,1.784261
772,2024-05-15 22:16:43.841779,-1.3421013,-0.2020794,1.568861,6.5032716,-2.326862,1.8502345
773,2024-05-15 22:16:43.858449,-1.3281901,-0.5462307,1.1993278,6.825808,-2.1967478,2.0469332
774,2024-05-15 22:16:43.875875,-1.4277654,-0.9542943,1.1429507,6.8203106,-1.9658407,2.197206
775,2024-05-15 22:16:43.891802,-1.538842,-1.400431,1.2420379,6.914384,-1.3690253,2.351144
776,2024-05-15 22:16:43.908676,-1.5488483,-1.6965029,1.0902342,6.995629,-0.8601746,2.4207826
777,2024-05-15 22:16:43.925129,-1.7160275,-1.8976061,0.86863023,6.3316183,-0.2364812,2.8520534
778,2024-05-15 22:16:43.942067,-1.7470227,-1.9578882,0.7170707,5.6963186,0.029245174,3.126332
779,2024-05-15 22:16:43.958689,-1.4878035,-2.0259802,0.34753752,3.6865718,-0.20960313,3.5380552
780,2024-05-15 22:16:43.975431,-1.0226303,-2.2346492,0.10665302,1.5931365,-1.0177778,3.2149074
781,2024-05-15 22:16:43.992056,-0.78028154,-2.2697933,0.13911264,0.5448918,-1.6817883,2.8838184
782,2024-05-15 22:16:44.008977,0.05686534,-2.301765,-0.22892569,-0.61269784,-2.2065215,1.4660002
783,2024-05-15 22:16:44.025375,0.4385709,-2.2800438,-0.8488616,-1.3866642,-1.307328,-0.22487476
784,2024-05-15 22:16:44.042331,0.4983649,-2.2344053,-1.0426431,-2.6920831,-0.2596941,-1.915139
785,2024-05-15 22:16:44.058401,0.23356278,-2.1694858,-1.4797496,-3.599829,0.25098926,-2.7599654
786,2024-05-15 22:16:44.075381,0.23356278,-2.1694858,-1.4797496,-3.599829,0.25098926,-2.7599654
787,2024-05-15 22:16:44.092289,0.23356278,-2.1694858,-1.4797496,-3.599829,0.25098926,-2.7599654
788,2024-05-15 22:16:44.108820,0.23356278,-2.1694858,-1.4797496,-3.599829,0.25098926,-2.7599654
789,2024-05-15 22:16:44.125472,0.23356278,-2.1694858,-1.4797496,-3.599829,0.25098926,-2.7599654
790,2024-05-15 22:16:44.142025,0.23356278,-2.1694858,-1.4797496,-3.599829,0.25098926,-2.7599654
791,2024-05-15 22:16:44.158707,0.23356278,-2.1694858,-1.4797496,-3.599829,0.25098926,-2.7599654
792,2024-05-15 22:16:44.175461,0.23356278,-2.1694858,-1.4797496,-3.599829,0.25098926,-2.7599654
793,2024-05-15 22:16:44.192346,0.23356278,-2.1694858,-1.4797496,-3.599829,0.25098926,-2.7599654
794,2024-05-15 22:16:44.208234,-2.7908862,-0.39781332,1.6633111,-6.347501,2.7011697,-3.3964872
795,2024-05-15 22:16:44.225042,-2.4662595,-0.030751213,2.5936878,-6.4073653,1.9821813,-1.7838029
796,2024-05-15 22:16:44.242302,-2.216833,0.10860548,2.743783,-6.229604,1.7402787,-1.5913804
797,2024-05-15 22:16:44.258677,-2.2968838,0.71292174,3.4808362,-5.349347,1.3450489,-1.1381183
798,2024-05-15 22:16:44.275029,-2.3801074,1.0341011,3.7542107,-4.3395867,0.92599535,-0.5217553
799,2024-05-15 22:16:44.292288,-2.0364747,1.3154991,3.5460296,-2.764776,-0.19372064,0.26198483
800,2024-05-15 22:16:44.308673,-1.3491789,1.6254823,2.7542777,-1.4636332,-1.5449545,0.6498843
801,2024-05-15 22:16:44.325046,-1.0895021,1.9056599,2.463575,-0.52595496,-1.7581465,1.1330787
802,2024-05-15 22:16:44.342285,-0.9884624,1.9676505,2.4435623,-0.22479841,-1.6616298,1.1788936
803,2024-05-15 22:16:44.358760,-1.1844403,1.9254287,2.6478686,1.073901,-1.1796571,1.12697
804,2024-05-15 22:16:44.375567,-1.5847247,1.5910702,2.6017418,2.9162707,-1.1026881,1.4482851
805,2024-05-15 22:16:44.391795,-1.6359768,1.5180972,2.572699,3.2284229,-1.2156982,1.5655713
806,2024-05-15 22:16:44.408285,-1.7919292,0.9948079,2.2973719,4.4361033,-2.160096,2.233247
807,2024-05-15 22:16:44.425336,-1.7706963,0.84080774,2.1929154,4.692667,-2.4007769,2.3798547
808,2024-05-15 22:16:44.444190,-1.7411654,0.6819264,2.1143289,4.9522843,-2.5834255,2.4898105
809,2024-05-15 22:16:44.460486,-1.5947311,-0.00048811449,1.757029,6.3884287,-2.4447591,2.613816
810,2024-05-15 22:16:44.474890,-1.6933303,-0.5657552,1.417515,7.1330733,-1.9090302,2.7543151
811,2024-05-15 22:16:44.491572,-1.7204206,-0.8710708,1.255217,7.2558575,-1.9059759,2.9058096
812,2024-05-15 22:16:44.501950,-1.7204206,-0.8710708,1.255217,7.265631,-1.9322431,3.0328696
813,2024-05-15 22:16:44.513296,-1.7511717,-1.1715053,1.2010362,7.1984363,-1.942017,3.338913
814,2024-05-15 22:16:44.525342,-1.7511717,-1.1715053,1.2010362,7.1984363,-1.942017,3.338913
815,2024-05-15 22:16:44.542021,-1.7260338,-1.8487947,1.2444785,6.8783426,-0.88583094,3.302872
816,2024-05-15 22:16:44.553024,-1.7619102,-2.2258632,1.1414863,6.390872,-0.010461068,2.9064205
817,2024-05-15 22:16:44.569925,-1.4663264,-2.1597235,0.68241453,4.736038,-0.0061850105,2.7640889
818,2024-05-15 22:16:44.586530,-1.4907322,-2.4245257,0.81518173,2.8478537,-0.40080395,2.7213283
819,2024-05-15 22:16:44.598482,-1.4973217,-2.6139445,0.9093878,2.2730296,-0.78931427,2.7298803
820,2024-05-15 22:16:44.609933,-1.306713,-2.8311555,0.9020661,1.7599027,-1.6659058,2.7097218
821,2024-05-15 22:16:44.624848,-0.375116,-2.9060812,0.20110317,1.4672983,-2.2059107,1.693853
822,2024-05-15 22:16:44.641635,0.34241232,-2.5697703,-0.8710708,0.1160644,-1.8461112,-0.11552989
823,2024-05-15 22:16:44.658926,0.45931572,-2.3715653,-1.0794957,-1.4025466,-1.5144113,-1.2273046
824,2024-05-15 22:16:44.669282,0.26358184,-2.2658885,-0.9503894,-2.4733934,-0.96707606,-2.281658
825,2024-05-15 22:16:44.680460,0.019768637,-2.2017014,-0.7758885,-2.9541442,-0.509538,-2.8186085
826,2024-05-15 22:16:44.691931,-0.43124917,-2.1035905,-0.46419686,-3.4532213,0.35178202,-3.5589774
827,2024-05-15 22:16:44.708183,-0.9045067,-1.858557,-0.29189247,-3.929696,1.3462707,-4.5925612
828,2024-05-15 22:16:44.726250,-0.9045067,-1.858557,-0.29189247,-3.929696,1.3462707,-4.5925612
829,2024-05-15 22:16:44.741922,-0.9045067,-1.858557,-0.29189247,-3.929696,1.3462707,-4.5925612
830,2024-05-15 22:16:44.758527,-0.9045067,-1.858557,-0.29189247,-3.929696,1.3462707,-4.5925612
831,2024-05-15 22:16:44.775394,-0.9045067,-1.858557,-0.29189247,-3.929696,1.3462707,-4.5925612
832,2024-05-15 22:16:44.791166,-0.9045067,-1.858557,-0.29189247,-3.929696,1.3462707,-4.5925612
833,2024-05-15 22:16:44.808451,-0.9045067,-1.858557,-0.29189247,-3.929696,1.3462707,-4.5925612
834,2024-05-15 22:16:44.824995,-0.9045067,-1.858557,-0.29189247,-3.929696,1.3462707,-4.5925612
835,2024-05-15 22:16:44.841572,-0.9045067,-1.858557,-0.29189247,-3.929696,1.3462707,-4.5925612
836,2024-05-15 22:16:44.858638,-0.9045067,-1.858557,-0.29189247,-3.929696,1.3462707,-4.5925612
837,2024-05-15 22:16:44.874811,-1.6430544,1.4407004,1.8824744,-4.3237042,-1.479592,0.18440494
838,2024-05-15 22:16:44.891449,-1.4746244,1.5210258,2.0350103,-3.7006216,-1.1014664,0.50266576
839,2024-05-15 22:16:44.908098,-1.3291663,1.6435426,1.9110293,-2.7324002,-0.3403283,0.9076694
840,2024-05-15 22:16:44.925161,-1.3291663,1.6435426,1.9110293,-2.7324002,-0.3403283,0.9076694
841,2024-05-15 22:16:44.941410,-0.8603323,1.6769783,1.4314263,-2.4086416,-0.382478,2.1202369
842,2024-05-15 22:16:44.958710,-0.5930896,1.6791748,1.8771054,-2.112983,-0.9389762,2.4342217
843,2024-05-15 22:16:44.974769,-0.68753976,1.5620273,2.4928617,-0.52534413,-0.8803332,2.1978168
844,2024-05-15 22:16:44.991317,-0.85813576,1.4692552,2.5824614,0.58032197,-0.6427066,2.0719786
845,2024-05-15 22:16:45.008537,-1.2032328,1.2569253,2.4460027,1.9737056,-0.55290943,2.1031327
846,2024-05-15 22:16:45.024895,-1.4143422,0.91378087,1.8985823,2.9626966,-1.4667639,2.437887
847,2024-05-15 22:16:45.041777,-1.4367956,0.81664604,1.8258532,3.0579915,-1.8577175,2.5313492
848,2024-05-15 22:16:45.058315,-1.4001869,0.41758195,1.7558088,3.6658022,-2.9823205,2.6174812
849,2024-05-15 22:16:45.074815,-1.4543676,0.26358184,1.6874728,4.234518,-3.1735213,2.60954
850,2024-05-15 22:16:45.092336,-1.4851189,0.054424766,1.4272773,5.180748,-3.1368694,2.6559658
851,2024-05-15 22:16:45.109401,-1.5090669,0.0056133163,1.3630903,5.3371296,-3.047683,2.6449702
852,2024-05-15 22:16:45.122626,-1.8058406,-0.3900035,1.3811505,5.747631,-2.5296693,2.6804004
853,2024-05-15 22:16:45.134256,-1.8846711,-0.5703923,1.3650427,6.1233134,-2.3189209,2.663907
854,2024-05-15 22:16:45.150351,-2.2924907,-0.85545117,1.5095551,6.44585,-1.4557682,2.7378216
855,2024-05-15 22:16:45.164726,-2.3581421,-1.217632,1.3184278,6.3762116,-0.44478625,3.1703143
856,2024-05-15 22:16:45.176586,-2.3373973,-1.3738288,1.1881012,6.1752367,-0.27435485,3.2210162
857,2024-05-15 22:16:45.191528,-2.139955,-1.5669085,0.8752198,5.159368,-0.19005544,3.2570572
858,2024-05-15 22:16:45.208778,-1.8700277,-1.7750894,0.73049384,3.8588357,-0.29023734,3.0463085
859,2024-05-15 22:16:45.224686,-1.4016513,-2.0555112,0.7429407,2.4501805,-0.9188177,2.4586563
860,2024-05-15 22:16:45.241461,-1.1676003,-2.199261,0.586256,2.3316727,-1.1588877,2.142839
861,2024-05-15 22:16:45.258313,-0.8361706,-2.4970107,-0.123004854,1.9462167,-1.2700652,1.7134006
862,2024-05-15 22:16:45.275301,-0.08053889,-2.5717227,-1.1656479,0.8002335,-1.3012193,1.1972195
863,2024-05-15 22:16:45.291643,0.79126406,-2.5744073,-1.4814581,-1.681712,-0.20410535,-0.7917577
864,2024-05-15 22:16:45.309068,0.824944,-2.5102203,-1.1544212,-2.6529877,0.8270352,-2.4343743
865,2024-05-15 22:16:45.324533,-0.5955302,-2.225619,-0.5930896,-3.3567045,2.1202369,-5.4966416
866,2024-05-15 22:16:45.341820,-0.92549556,-2.130437,-0.590649,-3.535077,2.1147392,-5.76359
867,2024-05-15 22:16:45.358410,-1.4746244,-1.8895522,-0.5462307,-4.1502185,1.8813885,-5.941352
868,2024-05-15 22:16:45.374939,-1.4746244,-1.8895522,-0.5462307,-4.1502185,1.8813885,-5.941352
869,2024-05-15 22:16:45.391741,-1.4746244,-1.8895522,-0.5462307,-4.1502185,1.8813885,-5.941352
870,2024-05-15 22:16:45.408250,-1.4746244,-1.8895522,-0.5462307,-4.1502185,1.8813885,-5.941352
871,2024-05-15 22:16:45.425321,-1.4746244,-1.8895522,-0.5462307,-4.1502185,1.8813885,-5.941352
872,2024-05-15 22:16:45.441593,-3.3202462,-0.32386398,1.7611781,-4.9394565,2.4293346,-6.158209
873,2024-05-15 22:16:45.458276,-3.3202462,-0.32386398,1.7611781,-4.9394565,2.4293346,-6.158209
874,2024-05-15 22:16:45.475299,-3.3202462,-0.32386398,1.7611781,-4.9394565,2.4293346,-6.158209
875,2024-05-15 22:16:45.492186,-2.237578,0.9984687,2.3388615,-4.2106943,0.26992607,-1.2541827
876,2024-05-15 22:16:45.505110,-1.7846076,1.0890139,2.2949314,-3.9858956,0.14164437,-1.1087968
877,2024-05-15 22:16:45.516796,-1.4072646,1.3630903,2.092608,-3.4324517,-0.07154759,-0.89071786
878,2024-05-15 22:16:45.531093,-1.3996987,1.552021,1.9278692,-3.2143729,-0.29695687,-0.6885215
879,2024-05-15 22:16:45.541557,-1.442897,1.7133428,1.7741132,-3.1129694,-0.5425247,-0.30123293
880,2024-05-15 22:16:45.557885,-1.3696798,1.9678946,1.8827187,-2.9266553,-0.7337255,0.86124367
881,2024-05-15 22:16:45.575140,-1.0475242,2.071863,2.0005982,-2.4947736,-0.681802,1.5142586
882,2024-05-15 22:16:45.591607,-0.7153623,2.0196347,2.3425224,-1.5314392,-0.78931427,1.8050305
883,2024-05-15 22:16:45.607846,-0.78174585,1.8426933,2.759891,0.17165314,-0.8839984,1.7714329
884,2024-05-15 22:16:45.625841,-0.92183477,1.747511,2.7274313,0.8698721,-0.87544626,1.6956855
885,2024-05-15 22:16:45.641689,-1.6323159,1.3567448,2.4076858,2.556471,-1.565724,2.1318433
886,2024-05-15 22:16:45.658105,-1.6415901,1.1981075,2.174855,3.0353894,-2.4551437,2.5350144
887,2024-05-15 22:16:45.675178,-1.4241046,0.6731404,1.8060846,3.712228,-3.251712,2.6523006
888,2024-05-15 22:16:45.691601,-1.3377084,0.41123646,1.5617833,4.3267584,-3.270649,2.5655577
889,2024-05-15 22:16:45.708244,-1.3506433,0.15155955,1.3101298,5.1379876,-2.8699212,2.4592671
890,2024-05-15 22:16:45.724851,-1.3728526,-0.02831064,1.1002406,5.6236253,-2.5107324,2.4830909
891,2024-05-15 22:16:45.741715,-1.3523518,-0.26675457,0.76075697,5.998697,-1.9591212,2.533182
892,2024-05-15 22:16:45.758039,-1.3733406,-0.42978483,0.60334,5.8319306,-1.6646842,2.5008059
893,2024-05-15 22:16:45.774395,-1.4651061,-0.9045067,0.77393603,5.3652296,-1.2340242,2.4439955
894,2024-05-15 22:16:45.791491,-1.5144362,-1.2183642,0.8783925,5.1123314,-0.52908564,2.0744221
895,2024-05-15 22:16:45.808435,-1.7489753,-1.6118151,0.94868106,4.710993,0.22288945,1.3969724
896,2024-05-15 22:16:45.824745,-1.9181069,-1.7294507,0.91719764,4.3456955,0.42142066,1.2442561
897,2024-05-15 22:16:45.841452,-2.1043227,-1.9510547,0.8456889,3.2565227,0.71891207,1.3554336
898,2024-05-15 22:16:45.858083,-2.1968203,-2.1545985,0.80590755,2.7250698,0.6834819,1.4275157
899,2024-05-15 22:16:45.874885,-1.7365283,-2.4928617,0.81347334,0.95722586,-0.80030984,1.616884
900,2024-05-15 22:16:45.891403,-0.78931165,-2.5119286,0.31727442,0.39950588,-1.9658407,1.0157925
901,2024-05-15 22:16:45.908339,-0.09274176,-2.3849885,-0.39927766,0.12889257,-2.1484895,0.6168975
902,2024-05-15 22:16:45.924819,-0.025381953,-2.3420343,-0.51694375,-0.9211848,-2.1106157,-0.6109416
903,2024-05-15 22:16:45.941626,0.082003236,-2.0494096,-0.7102371,-1.999362,-1.4692073,-1.8522198
904,2024-05-15 22:16:45.958056,0.049543623,-1.9112732,-0.75294715,-2.7605,-0.67874765,-2.7813458
905,2024-05-15 22:16:45.974890,-0.37291947,-1.717492,-0.58259517,-3.8203511,0.35972327,-3.9102247
906,2024-05-15 22:16:45.991481,-1.0655844,-1.5151684,-0.0873725,-4.255287,0.7909941,-4.3091197
907,2024-05-15 22:16:46.008034,-1.0655844,-1.5151684,-0.0873725,-4.255287,0.7909941,-4.3091197
908,2024-05-15 22:16:46.024706,-1.0655844,-1.5151684,-0.0873725,-4.255287,0.7909941,-4.3091197
909,2024-05-15 22:16:46.041451,-1.0655844,-1.5151684,-0.0873725,-4.255287,0.7909941,-4.3091197
910,2024-05-15 22:16:46.058122,-1.0655844,-1.5151684,-0.0873725,-4.255287,0.7909941,-4.3091197
911,2024-05-15 22:16:46.074893,-1.0655844,-1.5151684,-0.0873725,-4.255287,0.7909941,-4.3091197
912,2024-05-15 22:16:46.091342,-1.0655844,-1.5151684,-0.0873725,-4.255287,0.7909941,-4.3091197
913,2024-05-15 22:16:46.108031,-1.0655844,-1.5151684,-0.0873725,-4.255287,0.7909941,-4.3091197
914,2024-05-15 22:16:46.124779,-1.0655844,-1.5151684,-0.0873725,-4.255287,0.7909941,-4.3091197
915,2024-05-15 22:16:46.141293,-1.0655844,-1.5151684,-0.0873725,-4.255287,0.7909941,-4.3091197
916,2024-05-15 22:16:46.157979,-1.0655844,-1.5151684,-0.0873725,-4.255287,0.7909941,-4.3091197
917,2024-05-15 22:16:46.174773,-1.0655844,-1.5151684,-0.0873725,-4.255287,0.7909941,-4.3091197
918,2024-05-15 22:16:46.191587,-1.046304,1.7345759,1.8368357,-2.1184807,-1.0416017,1.4134659
919,2024-05-15 22:16:46.203423,-0.70389163,1.6215774,2.0581958,-2.079996,-1.1582769,1.5215889
920,2024-05-15 22:16:46.214119,-0.70389163,1.6215774,2.0581958,-1.7464638,-1.2993867,1.5533539
921,2024-05-15 22:16:46.225498,-0.6560564,1.4975657,2.2558823,-1.0983357,-1.3311517,1.4336244
922,2024-05-15 22:16:46.241649,-0.6353115,1.2974389,2.505095,0.4831944,-1.1069642,1.0652727
923,2024-05-15 22:16:46.258068,-0.880345,1.0631438,2.3849885,2.6597073,-0.7184539,0.6156758
924,2024-05-15 22:16:46.275002,-1.0707097,0.9640566,2.14508,3.6682458,-0.7911469,0.5594762
925,2024-05-15 22:16:46.291419,-1.3316069,0.78028154,1.4353312,4.4703116,-1.529072,0.9913579
926,2024-05-15 22:16:46.308057,-1.3357558,0.7348869,1.2940221,4.4538183,-1.8351156,1.1752284
927,2024-05-15 22:16:46.324999,-1.3230649,0.5623384,1.1214736,4.234518,-2.4649177,1.6736944
928,2024-05-15 22:16:46.341370,-1.2862122,0.4595598,1.2100663,4.234518,-2.4649177,1.6736944
929,2024-05-15 22:16:46.357577,-1.3931093,0.0873725,1.534693,5.3194146,-1.5388459,2.0481548
930,2024-05-15 22:16:46.374802,-1.5444553,-0.021232981,1.5268831,5.667608,-1.3421474,2.2039254
931,2024-05-15 22:16:46.391074,-1.5444553,-0.021232981,1.5268831,5.667608,-1.3421474,2.2039254
932,2024-05-15 22:16:46.407742,-1.8004713,-0.4588276,1.5210258,5.439144,-1.4936419,2.9937742
933,2024-05-15 22:16:46.419664,-1.8004713,-0.4588276,1.5210258,5.439144,-1.4936419,2.9937742
934,2024-05-15 22:16:46.430506,-1.8004713,-0.4588276,1.5210258,5.439144,-1.4936419,2.9937742
935,2024-05-15 22:16:46.441622,-1.8004713,-0.4588276,1.5210258,5.439144,-1.4936419,2.9937742
936,2024-05-15 22:16:46.458284,-1.6869847,-0.98455745,1.671609,5.053077,-1.1784354,2.659631
937,2024-05-15 22:16:46.474564,-1.880034,-1.6921101,1.2627827,4.6425757,-0.8711702,1.8954386
938,2024-05-15 22:16:46.491239,-1.730915,-1.9534953,0.6255492,3.5772269,-0.96035653,2.170328
939,2024-05-15 22:16:46.507908,-1.3125703,-2.1838853,-0.05418071,1.9950858,-1.7385988,2.3700807
940,2024-05-15 22:16:46.524752,-0.93476975,-2.3398378,-0.34338856,1.010982,-2.1319962,2.30594
941,2024-05-15 22:16:46.541305,-0.04075756,-2.3639996,-0.6426332,-0.48441613,-2.25478,1.7274506
942,2024-05-15 22:16:46.557940,0.28383857,-2.2663767,-0.66093755,-1.3347405,-1.9945514,0.8588002
943,2024-05-15 22:16:46.574619,0.44345203,-1.9466617,-0.5059612,-1.9285016,-1.3684145,-0.54985505
944,2024-05-15 22:16:46.591492,0.153512,-1.8351275,-0.5196284,-2.1410828,-0.51503575,-1.8192331
945,2024-05-15 22:16:46.607534,-0.53280747,-1.4965895,-0.8146936,-3.5717292,1.330999,-3.088
946,2024-05-15 22:16:46.624096,-0.5930896,-1.4677907,-0.8032229,-3.8295143,1.4586699,-3.1668017
947,2024-05-15 22:16:46.641024,-0.5930896,-1.4677907,-0.8032229,-3.8295143,1.4586699,-3.1668017
948,2024-05-15 22:16:46.657826,-0.5930896,-1.4677907,-0.8032229,-3.8295143,1.4586699,-3.1668017
949,2024-05-15 22:16:46.674490,-0.5930896,-1.4677907,-0.8032229,-3.8295143,1.4586699,-3.1668017
950,2024-05-15 22:16:46.691132,-0.5930896,-1.4677907,-0.8032229,-3.8295143,1.4586699,-3.1668017
951,2024-05-15 22:16:46.707825,-0.5930896,-1.4677907,-0.8032229,-3.8295143,1.4586699,-3.1668017
952,2024-05-15 22:16:46.724559,-0.5930896,-1.4677907,-0.8032229,-3.8295143,1.4586699,-3.1668017
953,2024-05-15 22:16:46.741420,-0.5930896,-1.4677907,-0.8032229,-3.8295143,1.4586699,-3.1668017
954,2024-05-15 22:16:46.757885,-0.5930896,-1.4677907,-0.8032229,-3.8295143,1.4586699,-3.1668017
955,2024-05-15 22:16:46.774144,-2.6017418,1.118789,3.273143,-4.180762,1.217378,-2.7795131
956,2024-05-15 22:16:46.791199,-2.5524423,1.7040688,3.5411487,-2.542421,0.7225772,-1.5767195
957,2024-05-15 22:16:46.807418,-1.8954096,2.1345856,2.691799,-1.119716,-0.3739259,-0.53763777
958,2024-05-15 22:16:46.824278,-1.3150109,2.3639996,1.9879073,-0.8399397,-1.4093425,0.104992464
959,2024-05-15 22:16:46.841320,-1.2090901,2.4028046,1.9610609,-0.7324274,-1.52052,0.3187953
960,2024-05-15 22:16:46.857857,-0.9704022,2.2622275,1.9857109,0.72143185,-1.099023,0.8471937
961,2024-05-15 22:16:46.874560,-0.9984687,2.0003543,1.8492827,1.6468927,-0.8497899,1.0756574
962,2024-05-15 22:16:46.890882,-1.0692453,1.8058406,1.7296947,2.488054,-0.62560236,1.3590988
963,2024-05-15 22:16:46.907662,-1.1575941,1.4809699,1.5395741,3.2149837,-0.6885215,1.8514562
964,2024-05-15 22:16:46.924397,-1.1824878,1.3059808,1.4926846,3.4788775,-0.89010704,2.1281781
965,2024-05-15 22:16:46.941060,-1.2181202,0.9262278,1.5019894,3.8166862,-1.2474632,2.4275022
966,2024-05-15 22:16:46.958081,-1.2408175,0.7858948,1.4714516,4.174653,-1.4594334,2.6480246
967,2024-05-15 22:16:46.974536,-1.2588778,0.55696917,1.3755372,4.460538,-1.651856,2.8551078
968,2024-05-15 22:16:46.991027,-1.3794421,0.11568313,1.459737,4.8215594,-1.6720145,3.275383
969,2024-05-15 22:16:47.007723,-1.4289857,-0.22477673,1.7035805,5.2241197,-1.3250431,3.3279176
970,2024-05-15 22:16:47.024497,-1.4699873,-0.4036707,1.7719167,5.5057282,-1.1882093,3.3108132
971,2024-05-15 22:16:47.041038,-1.5969275,-0.752459,1.7753334,5.6511145,-0.9194285,3.1409926
972,2024-05-15 22:16:47.057384,-1.9720436,-1.3377084,1.7787503,5.4843483,-0.509538,2.8538861
973,2024-05-15 22:16:47.074438,-1.9891275,-1.3806623,1.756297,5.222287,-0.37575847,2.6846764
974,2024-05-15 22:16:47.091016,-2.0186586,-1.8917488,1.5320083,4.180762,-0.50281847,2.537458
975,2024-05-15 22:16:47.107533,-1.6662399,-2.3164084,1.0250709,3.1936035,-1.2193633,2.3945155
976,2024-05-15 22:16:47.124689,-1.5564141,-2.4284306,0.86472535,2.8405235,-1.4288901,2.2662337
977,2024-05-15 22:16:47.140979,-0.9010899,-2.7293837,0.059305906,1.3029755,-1.9096411,1.57168
978,2024-05-15 22:16:47.157425,-0.16205402,-2.4750454,-0.42197496,0.0036651916,-1.9951622,0.68164927
979,2024-05-15 22:16:47.174607,0.04002539,-2.3774226,-0.4527262,-0.6224717,-2.0446424,0.010919216
980,2024-05-15 22:16:47.191324,0.1147069,-2.0101166,-0.51425916,-1.5314392,-1.6976708,-1.9823341
981,2024-05-15 22:16:47.208074,-0.1466784,-1.649888,-0.8210391,-1.690875,-1.4685965,-2.395279
982,2024-05-15 22:16:47.224436,-0.1466784,-1.649888,-0.8210391,-2.3774874,-0.6121633,-3.2602642
983,2024-05-15 22:16:47.241013,-0.8181104,-1.3120823,-0.5098661,-4.0311,0.94187784,-3.863799
984,2024-05-15 22:16:47.257654,-1.1685766,-1.0992644,-0.122516744,-4.5393395,1.3303882,-3.8100429
985,2024-05-15 22:16:47.274316,-1.2220252,-0.9972484,0.05296042,-4.591874,1.326723,-3.8075995
986,2024-05-15 22:16:47.290971,-1.2220252,-0.9972484,0.05296042,-4.591874,1.326723,-3.8075995
987,2024-05-15 22:16:47.307891,-1.2220252,-0.9972484,0.05296042,-4.591874,1.326723,-3.8075995
988,2024-05-15 22:16:47.324255,-1.2220252,-0.9972484,0.05296042,-4.591874,1.326723,-3.8075995
989,2024-05-15 22:16:47.340937,-1.2220252,-0.9972484,0.05296042,-4.591874,1.326723,-3.8075995
990,2024-05-15 22:16:47.357846,-1.2220252,-0.9972484,0.05296042,-4.591874,1.326723,-3.8075995
991,2024-05-15 22:16:47.374708,-1.2220252,-0.9972484,0.05296042,-4.591874,1.326723,-3.8075995
992,2024-05-15 22:16:47.390932,-1.2220252,-0.9972484,0.05296042,-4.591874,1.326723,-3.8075995
993,2024-05-15 22:16:47.410964,-1.2220252,-0.9972484,0.05296042,-4.591874,1.326723,-3.8075995
994,2024-05-15 22:16:47.426991,-1.2220252,-0.9972484,0.05296042,-4.591874,1.326723,-3.8075995
995,2024-05-15 22:16:47.447421,-1.0114038,1.7887566,2.058928,-1.10139,-1.1613312,1.004797
996,2024-05-15 22:16:47.457016,-0.7578283,1.6720972,2.0647852,-0.57360244,-1.3421474,0.9333257
997,2024-05-15 22:16:47.473796,-0.74025613,1.6252382,2.114085,-0.31398472,-1.2688435,0.8630762
998,2024-05-15 22:16:47.490545,-0.85740364,1.4260571,2.190719,1.473407,-0.91087645,0.51976997
999,2024-05-15 22:16:47.507189,-1.0389823,1.246919,1.9249405,3.1600058,-0.5687919,0.578413
