id,timestamp,acc_x,acc_y,acc_z,gyro_x,gyro_y,gyro_z
0,2024-05-15 22:15:05.870188,-0.9157333,-0.43539813,0.7849186,-0.6743952,1.2369257,0.1605812
1,2024-05-15 22:15:05.885750,-0.9679615,-0.53280747,0.7600248,-0.89919364,1.2564734,0.09582949
2,2024-05-15 22:15:05.898025,-1.05509,-0.6526396,0.73195815,-1.1282681,1.3548228,0.07994699
3,2024-05-15 22:15:05.909782,-1.089258,-0.6860754,0.7278092,-1.2657127,1.4910457,0.09399689
4,2024-05-15 22:15:05.925204,-1.183464,-0.7851626,0.68973625,-1.6175711,1.9082667,0.33589953
5,2024-05-15 22:15:05.941876,-1.1195211,-0.8449567,0.6765572,-1.7476854,1.970575,0.43058363
6,2024-05-15 22:15:05.959044,-1.0472802,-0.88986325,0.68851596,-1.8985692,1.9846249,0.43241623
7,2024-05-15 22:15:05.972655,-1.0016415,-0.8947444,0.6916887,-1.9590448,1.9815705,0.36338845
8,2024-05-15 22:15:05.984421,-0.8693625,-0.73927987,0.67924184,-1.9303342,1.9913443,-0.178449
9,2024-05-15 22:15:05.997696,-0.73000574,-0.55745727,0.6494669,-1.8387043,2.0194442,-0.3244458
10,2024-05-15 22:15:06.008932,-0.6333591,-0.41587353,0.6343353,-1.8515326,2.038992,-0.39958224
11,2024-05-15 22:15:06.025142,-0.5957743,-0.0924977,0.6726523,-1.9895881,2.25646,-0.8320748
12,2024-05-15 22:15:06.042281,-0.6985224,0.09396204,0.7553877,-2.0525072,2.5783858,-0.9841803
13,2024-05-15 22:15:06.058344,-1.0402025,0.42636803,0.9669853,-2.062892,2.886262,-1.048932
14,2024-05-15 22:15:06.074859,-1.3486909,0.8115209,1.059483,-1.6145169,2.324266,-0.71601045
15,2024-05-15 22:15:06.092124,-1.3201362,1.4690111,1.1097587,-1.1899655,0.6914231,0.13981178
16,2024-05-15 22:15:06.108350,-1.204209,1.977901,1.1741899,-0.9401216,-0.062384613,0.8429177
17,2024-05-15 22:15:06.125216,-1.3342915,2.063321,1.2715688,-0.5149594,0.12148582,1.5564083
18,2024-05-15 22:15:06.141852,-1.4297179,2.2104874,1.2693722,0.7635816,0.25954136,2.6981153
19,2024-05-15 22:15:06.158490,-1.5237104,2.1733909,1.2391092,1.4807373,0.15263996,3.1293862
20,2024-05-15 22:15:06.175172,-1.5237104,2.1733909,1.2391092,1.4807373,0.15263996,3.1293862
21,2024-05-15 22:15:06.191814,-1.5237104,2.1733909,1.2391092,1.4807373,0.15263996,3.1293862
22,2024-05-15 22:15:06.208481,-1.5237104,2.1733909,1.2391092,1.4807373,0.15263996,3.1293862
23,2024-05-15 22:15:06.225384,-1.5237104,2.1733909,1.2391092,1.4807373,0.15263996,3.1293862
24,2024-05-15 22:15:06.241491,-1.5237104,2.1733909,1.2391092,1.4807373,0.15263996,3.1293862
25,2024-05-15 22:15:06.258456,-1.5237104,2.1733909,1.2391092,1.4807373,0.15263996,3.1293862
26,2024-05-15 22:15:06.275222,-1.5237104,2.1733909,1.2391092,1.4807373,0.15263996,3.1293862
27,2024-05-15 22:15:06.292226,-1.5237104,2.1733909,1.2391092,1.4807373,0.15263996,3.1293862
28,2024-05-15 22:15:06.308586,-2.0232954,1.2796227,1.3255055,3.3060026,-0.41546473,4.6602144
29,2024-05-15 22:15:06.325590,-2.012313,-2.4008522,1.0738825,-0.15027285,0.25160012,3.6089156
30,2024-05-15 22:15:06.337252,-2.012313,-2.4008522,1.0738825,-0.15027285,0.25160012,3.6089156
31,2024-05-15 22:15:06.348904,-1.2920696,-2.640547,1.5317643,-0.79168135,-1.0587058,2.4042892
32,2024-05-15 22:15:06.360154,-1.0109156,-2.6529937,1.4907322,-0.23701571,-1.5571718,1.7286723
33,2024-05-15 22:15:06.374780,-0.38268176,-2.3940187,0.59357774,1.2559389,-1.6585755,-0.14301883
34,2024-05-15 22:15:06.391855,-0.38268176,-2.3940187,0.59357774,1.2559389,-1.6585755,-0.14301883
35,2024-05-15 22:15:06.407951,-0.13593988,-1.9176189,-0.53524804,0.91629785,-0.7208974,-1.3916274
36,2024-05-15 22:15:06.424830,-0.033923957,-1.517853,-1.2059174,-2.189952,-0.20593795,-3.2920291
37,2024-05-15 22:15:06.441990,-0.07834238,-1.4272773,-1.1761423,-3.4752123,-0.14118622,-3.9169443
38,2024-05-15 22:15:06.458183,-0.6560564,-1.3128144,-0.6555683,-5.1428747,0.51732653,-4.794758
39,2024-05-15 22:15:06.475206,-1.281087,-0.99309945,-0.12593354,-5.436701,1.0811552,-4.883944
40,2024-05-15 22:15:06.491675,-1.4199556,-0.8356825,0.053936653,-5.514281,2.6706264,-4.95908
41,2024-05-15 22:15:06.508266,-1.7340878,-0.27895743,0.51011014,-5.454416,3.7616317,-5.273065
42,2024-05-15 22:15:06.525133,-2.3896255,0.7280533,0.586256,-6.390872,2.8123472,-5.6200366
43,2024-05-15 22:15:06.541529,-2.7762427,1.084621,1.0992644,-7.284568,1.5173129,-4.7910924
44,2024-05-15 22:15:06.558083,-2.6300523,1.3269697,1.8431814,-7.222871,1.299234,-4.0904303
45,2024-05-15 22:15:06.574704,-1.3743168,2.3044496,2.9771018,-1.0848967,2.4904213,-2.712929
46,2024-05-15 22:15:06.591406,-1.2879206,2.599301,2.28883,-1.0848967,2.4904213,-2.712929
47,2024-05-15 22:15:06.608250,-1.4023834,2.9456184,1.4072646,0.1001819,1.208826,-2.3439662
48,2024-05-15 22:15:06.629604,-1.8492827,3.228237,1.0387381,-1.7085901,-1.3959035,-0.032452215
49,2024-05-15 22:15:06.641659,-1.8492827,3.228237,1.0387381,-1.7085901,-1.3959035,-0.032452215
50,2024-05-15 22:15:06.658709,-1.6125473,3.0271337,1.4197116,-1.3133603,-2.1264982,2.291279
51,2024-05-15 22:15:06.674775,-1.2408175,2.3561897,1.8036441,0.5510005,-1.9487365,2.9870546
52,2024-05-15 22:15:06.691619,-1.5739862,1.9854666,1.5041858,2.3182335,-1.7416532,3.3334153
53,2024-05-15 22:15:06.708044,-2.1609437,1.6625789,1.084865,2.9034426,-2.0226512,3.9516108
54,2024-05-15 22:15:06.724534,-2.255394,1.2408175,0.8859584,2.8851166,-2.3958898,5.0047426
55,2024-05-15 22:15:06.741673,-2.1248233,1.047036,0.9469726,2.9022207,-2.331749,5.1495175
56,2024-05-15 22:15:06.757931,-2.1467886,0.6665509,1.1590583,3.336546,-2.095344,5.144631
57,2024-05-15 22:15:06.774819,-2.085042,0.4148973,1.1605227,3.8496728,-2.0043252,5.0597205
58,2024-05-15 22:15:06.791879,-1.9796093,0.17230442,1.0370297,4.287052,-2.0031035,4.921054
59,2024-05-15 22:15:06.808366,-1.9796093,0.17230442,1.0370297,4.287052,-2.0031035,4.921054
60,2024-05-15 22:15:06.824939,-1.9796093,0.17230442,1.0370297,4.287052,-2.0031035,4.921054
61,2024-05-15 22:15:06.841603,-1.9796093,0.17230442,1.0370297,4.287052,-2.0031035,4.921054
62,2024-05-15 22:15:06.858303,-1.9796093,0.17230442,1.0370297,4.287052,-2.0031035,4.921054
63,2024-05-15 22:15:06.875293,-1.9796093,0.17230442,1.0370297,4.287052,-2.0031035,4.921054
64,2024-05-15 22:15:06.891217,-1.9796093,0.17230442,1.0370297,4.287052,-2.0031035,4.921054
65,2024-05-15 22:15:06.908550,-1.9796093,0.17230442,1.0370297,4.287052,-2.0031035,4.921054
66,2024-05-15 22:15:06.924670,-1.7943699,-1.7863159,0.1901206,4.3029346,-0.5144249,2.4837017
67,2024-05-15 22:15:06.942267,-0.12910628,-2.4545448,0.16644704,-0.9944886,-1.8797088,-0.13446671
68,2024-05-15 22:15:06.953334,0.12837411,-2.371077,-0.03172744,-1.1496484,-1.7825811,-0.7422776
69,2024-05-15 22:15:06.964126,0.32166746,-2.114573,-0.5664874,-2.28036,-0.4453971,-2.5467737
70,2024-05-15 22:15:06.975989,0.17132819,-2.0354984,-0.66777116,-2.7947085,0.04024075,-3.0886111
71,2024-05-15 22:15:06.991269,-0.22697324,-1.9520309,-0.5879644,-3.9376373,0.96631247,-4.1417427
72,2024-05-15 22:15:07.008288,-1.1954229,-1.57301,0.08151512,-4.7067165,2.1049652,-5.35431
73,2024-05-15 22:15:07.024522,-1.8497709,-1.1549094,0.4024504,-4.923574,2.632142,-5.9602885
74,2024-05-15 22:15:07.041082,-2.6786199,-0.46785772,0.93891877,-5.2931476,2.6168704,-6.10262
75,2024-05-15 22:15:07.057918,-2.7318244,-0.22306833,1.0812042,-5.2326717,2.305329,-6.0384793
76,2024-05-15 22:15:07.074472,-2.7955232,0.54086137,1.0882818,-5.440366,2.0011182,-5.8698807
77,2024-05-15 22:15:07.091165,-2.8216374,0.9469726,1.5339608,-5.857587,2.1074088,-5.1618876
78,2024-05-15 22:15:07.107822,-2.4318473,1.1585703,2.0408678,-4.4929137,1.6859118,-4.293237
79,2024-05-15 22:15:07.124753,-2.0518503,1.5244426,1.8570925,-3.4306192,1.5643495,-3.678096
80,2024-05-15 22:15:07.141327,-1.637441,2.2200058,1.2425259,-3.2223141,1.3914747,-3.066009
81,2024-05-15 22:15:07.158371,-1.7113904,2.4694324,1.2205608,-3.554014,1.3090079,-2.7825675
82,2024-05-15 22:15:07.174668,-1.3857876,3.0342112,2.1131086,-3.2534683,-0.17295122,-0.55168766
83,2024-05-15 22:15:07.191713,-1.264003,3.0427532,2.2612514,-2.6224444,-0.32688928,-0.10025826
84,2024-05-15 22:15:07.207892,-1.2025006,2.8680084,2.1733909,-0.9560041,-0.80275327,0.98097324
85,2024-05-15 22:15:07.225268,-1.1690648,2.6944835,2.0237837,-0.07452556,-1.311604,1.5845081
86,2024-05-15 22:15:07.241776,-1.1846844,2.2710137,1.8043762,0.32803464,-1.5602262,1.8264108
87,2024-05-15 22:15:07.258510,-1.3687036,1.8846711,1.5622715,2.302351,-2.1216114,2.6724591
88,2024-05-15 22:15:07.274768,-1.5249307,1.7245696,1.472916,2.7678304,-2.0654118,2.926579
89,2024-05-15 22:15:07.291122,-1.7340878,1.5793555,1.4470459,3.0341678,-2.0110447,3.1868076
90,2024-05-15 22:15:07.307819,-1.9466617,1.4536355,1.4480221,3.1813862,-2.110005,3.520951
91,2024-05-15 22:15:07.324684,-2.1416633,0.8273846,1.7116345,3.6994,-3.0037007,4.169079
92,2024-05-15 22:15:07.341200,-2.302253,0.25211114,1.9923004,4.8942523,-3.0715067,4.3535604
93,2024-05-15 22:15:07.358827,-2.2893178,0.05832968,1.9652101,5.3151383,-3.0128636,4.389601
94,2024-05-15 22:15:07.374573,-2.0682023,-0.94111526,1.5105313,6.4989953,-2.413605,4.1208205
95,2024-05-15 22:15:07.391427,-2.037695,-1.2315434,1.3711442,6.542978,-2.281658,3.929009
96,2024-05-15 22:15:07.407817,-1.8732004,-1.7528801,1.0521613,6.3248987,-2.0574706,3.108006
97,2024-05-15 22:15:07.424467,-1.7130988,-1.9871751,0.42734426,5.3688946,-1.5064701,2.259514
98,2024-05-15 22:15:07.441420,-1.7130988,-1.9871751,0.42734426,5.3688946,-1.5064701,2.259514
99,2024-05-15 22:15:07.458219,-1.7130988,-1.9871751,0.42734426,5.3688946,-1.5064701,2.259514
100,2024-05-15 22:15:07.475120,-1.7130988,-1.9871751,0.42734426,5.3688946,-1.5064701,2.259514
101,2024-05-15 22:15:07.491618,-1.7130988,-1.9871751,0.42734426,5.3688946,-1.5064701,2.259514
102,2024-05-15 22:15:07.508135,-1.7130988,-1.9871751,0.42734426,5.3688946,-1.5064701,2.259514
103,2024-05-15 22:15:07.526872,-1.7130988,-1.9871751,0.42734426,5.3688946,-1.5064701,2.259514
104,2024-05-15 22:15:07.541937,-1.7130988,-1.9871751,0.42734426,5.3688946,-1.5064701,2.259514
105,2024-05-15 22:15:07.558106,-1.7130988,-1.9871751,0.42734426,5.3688946,-1.5064701,2.259514
106,2024-05-15 22:15:07.574624,-1.7130988,-1.9871751,0.42734426,5.3688946,-1.5064701,2.259514
107,2024-05-15 22:15:07.590969,-0.22502078,-2.0328138,0.015375607,-0.32803464,-1.4343879,0.65904725
108,2024-05-15 22:15:07.608185,-1.83708,-0.48006064,0.5567251,-5.756794,2.714609,-4.335387
109,2024-05-15 22:15:07.624929,-2.217077,-0.17718557,0.8242119,-5.842926,2.7787497,-4.0293436
110,2024-05-15 22:15:07.641579,-2.0723512,0.4588276,1.1458793,-6.381709,1.7750981,-3.45513
111,2024-05-15 22:15:07.658118,-2.0630767,0.51694375,1.2144594,-6.462343,1.6626989,-3.4227543
112,2024-05-15 22:15:07.674873,-2.0601482,1.2046971,2.3862088,-6.2998533,1.2534192,-3.157028
113,2024-05-15 22:15:07.691576,-1.9547155,1.6445189,2.8745978,-4.318817,0.932104,-2.1210005
114,2024-05-15 22:15:07.707992,-1.3482027,1.888332,2.5490253,-3.1850514,0.6462191,-1.6280322
115,2024-05-15 22:15:07.724647,-0.9076794,2.2963958,2.0826013,-2.3243423,0.12454015,-1.3134366
116,2024-05-15 22:15:07.741500,-1.0236065,2.636154,1.8849151,-2.1972823,-0.71539956,-0.545579
117,2024-05-15 22:15:07.757976,-0.9882183,2.6678813,1.8966299,-2.1777346,-1.0287734,-0.1735621
118,2024-05-15 22:15:07.774997,-0.616031,2.5714788,2.272478,-1.6175711,-1.6280322,0.64682996
119,2024-05-15 22:15:07.791658,-0.4127008,2.2153685,2.5146134,0.81122905,-1.7838029,0.8429177
120,2024-05-15 22:15:07.807922,-0.76319754,1.8148707,2.0786965,2.56991,-2.2199607,0.9290497
121,2024-05-15 22:15:07.825036,-0.93428165,1.5678847,1.7933937,3.2039883,-2.513176,1.1727849
122,2024-05-15 22:15:07.841690,-1.1234261,1.1414863,1.4338669,3.6713002,-2.8375454,1.5557975
123,2024-05-15 22:15:07.857836,-1.1705291,0.73879176,1.3486909,4.1331143,-2.8601475,1.8502345
124,2024-05-15 22:15:07.874994,-1.1095147,0.56819576,1.2730331,4.332867,-2.7966175,1.8496236
125,2024-05-15 22:15:07.891340,-1.0675368,0.18157859,1.2847478,4.76536,-2.5241716,1.5826755
126,2024-05-15 22:15:07.907903,-1.2183642,-0.18523945,1.272301,5.4440312,-1.9120846,1.4226288
127,2024-05-15 22:15:07.924565,-1.2996353,-0.4595598,1.131968,5.5771995,-1.3158801,1.4177419
128,2024-05-15 22:15:07.941242,-1.4638858,-0.8527665,1.0214101,5.2650476,-0.9884563,1.2998449
129,2024-05-15 22:15:07.957607,-1.7658151,-1.2486273,0.75465554,4.3078218,-1.1686616,1.0249555
130,2024-05-15 22:15:07.974556,-1.8077931,-1.3384404,0.51694375,3.6914587,-1.2975541,1.0371728
131,2024-05-15 22:15:07.991316,-1.8483065,-1.6913778,0.20451997,1.5118915,-0.54680073,1.607721
132,2024-05-15 22:15:08.007973,-1.2940221,-2.0320816,0.4837215,-0.6395759,-0.22548564,2.165441
133,2024-05-15 22:15:08.024518,-0.73732746,-2.1719263,0.69412935,-1.1893547,-0.38736492,1.8557322
134,2024-05-15 22:15:08.041296,-0.28432667,-2.106275,0.5955302,-1.087951,-0.51625746,0.49350277
135,2024-05-15 22:15:08.057862,-0.268463,-1.7597138,-0.025870068,-1.2095132,0.45868343,-0.60116774
136,2024-05-15 22:15:08.074665,-0.36559775,-1.6806393,-0.1901206,-1.6175711,1.0102948,-0.9560805
137,2024-05-15 22:15:08.091184,-0.36559775,-1.6806393,-0.1901206,-1.6175711,1.0102948,-0.9560805
138,2024-05-15 22:15:08.107846,-0.36559775,-1.6806393,-0.1901206,-1.6175711,1.0102948,-0.9560805
139,2024-05-15 22:15:08.124245,-0.36559775,-1.6806393,-0.1901206,-1.6175711,1.0102948,-0.9560805
140,2024-05-15 22:15:08.141159,-0.36559775,-1.6806393,-0.1901206,-1.6175711,1.0102948,-0.9560805
141,2024-05-15 22:15:08.158161,-0.36559775,-1.6806393,-0.1901206,-1.6175711,1.0102948,-0.9560805
142,2024-05-15 22:15:08.174583,-0.36559775,-1.6806393,-0.1901206,-1.6175711,1.0102948,-0.9560805
143,2024-05-15 22:15:08.191142,-0.36559775,-1.6806393,-0.1901206,-1.6175711,1.0102948,-0.9560805
144,2024-05-15 22:15:08.207489,-0.7429407,-1.3230649,-0.18133454,-4.298048,2.9186378,-1.9878318
145,2024-05-15 22:15:08.224457,-1.6254823,0.94257957,1.9881513,-5.520389,1.3444381,-1.1918745
146,2024-05-15 22:15:08.240981,-0.9296446,1.370656,2.4076858,-4.900972,0.90705854,-0.89132875
147,2024-05-15 22:15:08.257900,-0.624573,1.8419611,2.526328,-3.3304374,1.2686907,-0.9664652
148,2024-05-15 22:15:08.274246,-0.62872195,1.9210355,2.4882247,-2.9999592,1.322447,-0.96402174
149,2024-05-15 22:15:08.291122,-0.53305155,2.4528365,1.999866,-1.5699236,0.8423068,-0.554742
150,2024-05-15 22:15:08.307692,-0.5037647,2.3727856,1.9051719,-1.1337659,0.043295074,0.041462477
151,2024-05-15 22:15:08.324456,-0.40440285,2.2929788,2.058928,-0.7312057,-0.4014148,0.3010802
152,2024-05-15 22:15:08.341089,-0.2550398,2.131901,2.1799805,-0.19120082,-0.77892953,0.4525748
153,2024-05-15 22:15:08.357739,-0.47347105,1.9329944,2.1733909,2.175902,-1.3006085,0.32490396
154,2024-05-15 22:15:08.374616,-0.6255492,1.8512352,2.0733273,2.724459,-1.2853369,0.37560576
155,2024-05-15 22:15:08.391039,-1.0406905,1.6054696,1.7028486,3.6767979,-1.511357,0.8429177
156,2024-05-15 22:15:08.407587,-1.2622945,1.3423454,1.3496671,3.726889,-2.1985803,1.5570191
157,2024-05-15 22:15:08.424108,-1.3008556,1.0502088,1.4519271,3.6798522,-2.789287,1.9992856
158,2024-05-15 22:15:08.441769,-1.3433216,0.85130215,1.5654442,4.012774,-2.8351018,2.1636083
159,2024-05-15 22:15:08.458560,-1.378954,0.4463807,1.6479355,5.116607,-2.3311381,2.2589033
160,2024-05-15 22:15:08.474810,-1.5124837,0.21135357,1.5080907,5.331021,-2.1857522,2.2760077
161,2024-05-15 22:15:08.490679,-1.5835044,0.097134784,1.383347,5.644395,-2.105118,2.6174812
162,2024-05-15 22:15:08.507312,-1.5666645,-0.065407336,1.3247732,5.4702983,-2.3341925,2.8416688
163,2024-05-15 22:15:08.523964,-1.5246866,-0.7575842,1.4846307,5.163644,-1.9493474,2.441552
164,2024-05-15 22:15:08.540688,-1.6891813,-1.0377619,1.378954,5.0475793,-1.4264467,2.073811
165,2024-05-15 22:15:08.557244,-2.055023,-1.3301425,0.86057633,3.8631117,-0.79969895,1.756772
166,2024-05-15 22:15:08.573890,-2.285413,-1.5012572,0.68070614,1.0616838,-0.59444827,2.7280478
167,2024-05-15 22:15:08.591011,-2.084798,-2.046481,0.45809543,-0.23579398,-1.1356748,3.2515593
168,2024-05-15 22:15:08.607424,-0.8112768,-2.4289188,0.6663068,-1.9107865,-2.4893522,3.0023263
169,2024-05-15 22:15:08.624413,-0.11617125,-2.2561262,0.89962554,-1.717753,-2.3836725,1.9632446
170,2024-05-15 22:15:08.641230,-0.010494461,-1.9107853,0.48103684,-0.38973203,-0.8485682,-0.0538325
171,2024-05-15 22:15:08.657283,-0.010494461,-1.9107853,0.48103684,-0.38973203,-0.8485682,-0.0538325
172,2024-05-15 22:15:08.674084,-0.09859913,-1.7072414,0.12886222,-0.59864795,0.46173778,-1.135064
173,2024-05-15 22:15:08.690994,-0.4846977,-0.9818728,-0.63701993,-2.1019874,1.2699125,-1.4423292
174,2024-05-15 22:15:08.707749,-0.6048044,-0.65019906,-0.460536,-4.0469823,1.9241492,-1.6090955
175,2024-05-15 22:15:08.724324,-0.6048044,-0.65019906,-0.460536,-4.0469823,1.9241492,-1.6090955
176,2024-05-15 22:15:08.741192,-0.6048044,-0.65019906,-0.460536,-4.0469823,1.9241492,-1.6090955
177,2024-05-15 22:15:08.757726,-0.6048044,-0.65019906,-0.460536,-4.0469823,1.9241492,-1.6090955
178,2024-05-15 22:15:08.774288,-0.6048044,-0.65019906,-0.460536,-4.0469823,1.9241492,-1.6090955
179,2024-05-15 22:15:08.791038,-0.6048044,-0.65019906,-0.460536,-4.0469823,1.9241492,-1.6090955
180,2024-05-15 22:15:08.807999,-0.6048044,-0.65019906,-0.460536,-4.0469823,1.9241492,-1.6090955
181,2024-05-15 22:15:08.823901,-0.6048044,-0.65019906,-0.460536,-4.0469823,1.9241492,-1.6090955
182,2024-05-15 22:15:08.841273,-1.1270869,0.34778157,1.6086423,-4.2546763,1.1685089,-0.500375
183,2024-05-15 22:15:08.852634,-1.1270869,0.34778157,1.6086423,-4.2546763,1.1685089,-0.500375
184,2024-05-15 22:15:08.867309,-1.1270869,0.34778157,1.6086423,-4.2546763,1.1685089,-0.500375
185,2024-05-15 22:15:08.881599,-0.70315945,1.7296947,2.806994,-1.9908098,0.5625305,0.18379408
186,2024-05-15 22:15:08.892334,-0.52670604,1.8744206,2.6525056,-1.700038,0.36033413,0.31085405
187,2024-05-15 22:15:08.907800,-0.23844394,2.1265318,2.5878305,-1.3713925,0.22777638,0.46173778
188,2024-05-15 22:15:08.923826,-0.07516963,2.092608,2.430627,-1.1129965,-0.24808764,0.40431643
189,2024-05-15 22:15:08.940889,0.13154685,1.7235934,2.8792348,0.6151413,-0.49060115,-0.29023734
190,2024-05-15 22:15:08.957344,-0.18450728,1.4814581,2.430139,2.392759,-1.0935252,-0.6970736
191,2024-05-15 22:15:08.974457,-0.2723679,1.391645,2.2517333,2.842356,-1.2725086,-0.6934084
192,2024-05-15 22:15:08.990689,-0.49421594,1.0743705,1.3506433,3.6749654,-1.6280322,-0.51686835
193,2024-05-15 22:15:09.007713,-0.37169918,0.8347063,0.8608204,3.500258,-2.2205715,-0.3244458
194,2024-05-15 22:15:09.023933,-0.464685,0.4275883,0.9511216,3.5063665,-2.0073795,-0.10636691
195,2024-05-15 22:15:09.041228,-0.38683072,0.24186075,0.98406935,3.7751472,-1.8393916,-0.014737124
196,2024-05-15 22:15:09.057502,-0.29042813,0.013667206,0.87497574,3.889379,-1.6933948,-0.20960313
197,2024-05-15 22:15:09.073848,-0.34168017,-0.11348662,0.93525785,3.616933,-1.3757449,-0.5950591
198,2024-05-15 22:15:09.090959,-0.53231937,-0.23380683,0.95234185,3.4935384,-1.4777594,-0.6665303
199,2024-05-15 22:15:09.107540,-0.6994986,-0.4127008,1.0409347,3.4092388,-1.7123317,-0.57490057
200,2024-05-15 22:15:09.123861,-0.83739096,-0.5638028,1.0694894,3.2705724,-1.5382351,-0.4704426
201,2024-05-15 22:15:09.140930,-0.85911196,-0.5967505,1.1107349,3.07815,-0.97746074,-0.2596941
202,2024-05-15 22:15:09.157585,-1.068025,-0.6314066,1.1056099,2.1820107,-0.2260965,0.08788824
203,2024-05-15 22:15:09.173955,-1.2735213,-0.6748488,1.1497842,1.2473868,-0.436845,0.687147
204,2024-05-15 22:15:09.191194,-1.3030521,-0.77222764,1.1353848,0.77579886,-0.73006034,0.9938014
205,2024-05-15 22:15:09.207733,-1.046548,-0.841784,1.1761423,0.2180789,-1.1136837,1.3633748
206,2024-05-15 22:15:09.223780,-1.0199457,-0.94111526,1.0023736,0.036651913,-1.0067823,1.3908638
207,2024-05-15 22:15:09.241251,-1.0106715,-0.92403126,0.6401926,-0.2724459,-0.62804586,1.4916565
208,2024-05-15 22:15:09.257440,-0.99187917,-1.0650963,0.23429495,-1.210735,-0.51381403,1.7702111
209,2024-05-15 22:15:09.273977,-0.7361072,-1.1851726,0.15790504,-1.9889772,-0.07399105,1.8141934
210,2024-05-15 22:15:09.290475,-0.62140024,-1.1861488,0.2208718,-2.0971005,0.4030947,1.6639205
211,2024-05-15 22:15:09.305775,-0.44320798,-1.127575,0.2936009,-1.7989981,1.9284252,0.88751084
212,2024-05-15 22:15:09.322742,-0.616031,-0.9618601,0.030751213,-1.5693128,2.6309202,0.4440227
213,2024-05-15 22:15:09.340742,-0.77271575,-0.8879108,-0.2997023,-1.9895881,2.894814,0.0603993
214,2024-05-15 22:15:09.357391,-0.82079506,-0.79394877,-0.38805103,-2.850908,2.6950612,0.09277516
215,2024-05-15 22:15:09.374057,-0.82079506,-0.79394877,-0.38805103,-2.850908,2.6950612,0.09277516
216,2024-05-15 22:15:09.390735,-0.82079506,-0.79394877,-0.38805103,-2.850908,2.6950612,0.09277516
217,2024-05-15 22:15:09.407386,-0.82079506,-0.79394877,-0.38805103,-2.850908,2.6950612,0.09277516
218,2024-05-15 22:15:09.424165,-0.82079506,-0.79394877,-0.38805103,-2.850908,2.6950612,0.09277516
219,2024-05-15 22:15:09.440710,-0.82079506,-0.79394877,-0.38805103,-2.850908,2.6950612,0.09277516
220,2024-05-15 22:15:09.457360,-0.82079506,-0.79394877,-0.38805103,-2.850908,2.6950612,0.09277516
221,2024-05-15 22:15:09.474264,-0.82079506,-0.79394877,-0.38805103,-2.850908,2.6950612,0.09277516
222,2024-05-15 22:15:09.490373,-0.94087124,0.9865099,2.8135836,-3.8716638,4.7787223,-1.4331663
223,2024-05-15 22:15:09.507636,0.1867038,2.0477014,2.7064424,-1.473407,-0.047112983,-0.7221191
224,2024-05-15 22:15:09.523759,0.23795582,2.0108488,2.5246196,-0.23090707,-0.36109772,-0.89316136
225,2024-05-15 22:15:09.540675,0.15058333,1.9290894,2.4052453,0.37690386,-1.1509465,-1.0025063
226,2024-05-15 22:15:09.558629,0.024161667,1.7182239,2.0769882,1.5613716,-2.3189209,-1.1698833
227,2024-05-15 22:15:09.574107,-0.1637624,1.4289857,1.7914412,2.7281241,-2.6750553,-1.234635
228,2024-05-15 22:15:09.590876,-0.27944556,1.2666876,1.5800875,3.2217033,-2.603584,-1.180268
229,2024-05-15 22:15:09.607413,-0.5481831,1.0572865,1.0729063,3.6138787,-2.7691286,-0.83512914
230,2024-05-15 22:15:09.624379,-0.5794224,0.9042626,1.0309283,3.6425896,-2.929786,-0.48021644
231,2024-05-15 22:15:09.640750,-0.5738091,0.74416107,1.0960916,3.739717,-2.9933162,-0.34277177
232,2024-05-15 22:15:09.657360,-0.7175588,0.37291947,1.459981,4.615087,-2.477135,-0.32322407
233,2024-05-15 22:15:09.674138,-0.7878473,0.26162934,1.5085789,4.8838677,-2.3464098,-0.28473955
234,2024-05-15 22:15:09.690634,-0.9433118,0.05906185,1.4787734,5.2516084,-2.0067687,-0.060552016
235,2024-05-15 22:15:09.707614,-0.9469726,-0.2403964,1.5547056,4.9516735,-1.2297481,0.39759693
236,2024-05-15 22:15:09.725131,-0.92403126,-0.4795725,2.0359864,4.4263296,-0.14057536,-0.20044015
237,2024-05-15 22:15:09.740572,-1.1407541,-0.55037963,2.1184778,4.301713,-0.04589125,-0.4405102
238,2024-05-15 22:15:09.757268,-2.2705257,-0.9884624,1.9512986,3.5729508,-0.94447404,-0.0129045285
239,2024-05-15 22:15:09.773651,-2.1956,-1.0436193,1.637441,3.1697798,-1.443551,0.7024187
240,2024-05-15 22:15:09.790829,-1.3809065,-1.2051852,0.93379354,1.8148806,-2.0629683,1.6810248
241,2024-05-15 22:15:09.807686,-0.57624966,-1.5076026,0.80371106,0.6389651,-1.751427,1.4898239
242,2024-05-15 22:15:09.823846,-0.34753752,-1.5578785,0.8537427,0.70188415,-1.0947468,0.98219496
243,2024-05-15 22:15:09.840685,-0.36559775,-1.5510448,0.45809543,0.95539325,0.098883815,-0.019624045
244,2024-05-15 22:15:09.857356,-0.5723447,-1.3074452,-0.16644704,0.22113322,0.5228243,-0.40385827
245,2024-05-15 22:15:09.873942,-0.6484906,-1.098044,-0.40293851,-1.2076806,0.47639853,-0.37759107
246,2024-05-15 22:15:09.890604,-0.6589851,-1.0533816,-0.37072295,-1.7550159,0.51732653,-0.296346
247,2024-05-15 22:15:09.907357,-0.51791996,-1.0140883,-0.12373702,-2.4153612,1.0897073,-0.19433151
248,2024-05-15 22:15:09.923747,-0.40098605,-0.9884624,0.05759751,-2.3634377,1.7518852,-0.33299792
249,2024-05-15 22:15:09.940914,-0.42417148,-0.846177,0.05222825,-2.1068742,2.922303,-0.7447211
250,2024-05-15 22:15:09.957418,-0.6336031,-0.675581,-0.13838045,-2.8008173,3.1910837,-0.96218914
251,2024-05-15 22:15:09.973593,-0.96625316,-0.41123646,0.3121492,-3.2302554,3.3291392,-0.95974565
252,2024-05-15 22:15:09.991856,-0.9965162,-0.32923323,0.55745727,-4.1557164,3.7066538,-0.71173435
253,2024-05-15 22:15:10.007099,-0.9965162,-0.32923323,0.55745727,-4.1557164,3.7066538,-0.71173435
254,2024-05-15 22:15:10.023849,-0.9965162,-0.32923323,0.55745727,-4.1557164,3.7066538,-0.71173435
255,2024-05-15 22:15:10.040541,-0.9965162,-0.32923323,0.55745727,-4.1557164,3.7066538,-0.71173435
256,2024-05-15 22:15:10.057171,-0.9965162,-0.32923323,0.55745727,-4.1557164,3.7066538,-0.71173435
257,2024-05-15 22:15:10.073963,-0.9965162,-0.32923323,0.55745727,-4.1557164,3.7066538,-0.71173435
258,2024-05-15 22:15:10.090533,-0.9965162,-0.32923323,0.55745727,-4.1557164,3.7066538,-0.71173435
259,2024-05-15 22:15:10.107297,-1.0209221,2.025736,2.8272507,-2.1673498,1.3371077,-0.70990175
260,2024-05-15 22:15:10.123826,-1.0209221,2.025736,2.8272507,-2.1673498,1.3371077,-0.70990175
261,2024-05-15 22:15:10.140486,-1.0209221,2.025736,2.8272507,-2.1673498,1.3371077,-0.70990175
262,2024-05-15 22:15:10.158252,-0.1044565,1.9390959,2.5107083,2.307849,-1.8021288,-0.05505423
263,2024-05-15 22:15:10.176773,-0.41758195,1.534693,1.756785,3.93947,-2.1649828,-0.26946792
264,2024-05-15 22:15:10.190636,-0.57649374,1.3933533,1.5039418,4.2369614,-2.2486713,-0.21693352
265,2024-05-15 22:15:10.207296,-0.9211026,1.1060979,1.1244023,4.466036,-2.2718842,0.34445164
266,2024-05-15 22:15:10.223698,-0.92037046,0.9035305,1.1629633,4.496579,-2.2981515,0.6480517
267,2024-05-15 22:15:10.240444,-0.91109616,0.5372005,1.4311821,4.9968777,-2.213852,0.7176903
268,2024-05-15 22:15:10.257200,-0.9560028,0.19280522,1.3901806,5.963877,-1.8051832,0.7024187
269,2024-05-15 22:15:10.273494,-1.0475242,-0.010982576,1.3852994,6.224106,-1.1533899,0.7793877
270,2024-05-15 22:15:10.294600,-1.0965797,-0.3109289,1.4892678,6.1269784,-0.6512587,1.0542771
271,2024-05-15 22:15:10.306934,-1.1068301,-0.5132829,1.5512888,5.9773164,-0.5254205,1.0811552
272,2024-05-15 22:15:10.323992,-1.0790076,-0.833486,1.5198054,5.715866,-0.5077054,0.85635674
273,2024-05-15 22:15:10.340401,-1.2239777,-1.1124434,1.3015878,4.7787986,-0.3543782,0.11415544
274,2024-05-15 22:15:10.357129,-1.9334825,-1.3133025,1.0082309,2.9089403,0.15325081,0.48556152
275,2024-05-15 22:15:10.373506,-1.8592892,-1.9183509,0.8522784,0.66889745,-0.14973834,2.206369
276,2024-05-15 22:15:10.390493,-1.3484468,-2.1211624,0.82030696,-0.09101892,-0.6304893,2.600377
277,2024-05-15 22:15:10.407028,-0.09127741,-2.3342245,0.49201941,-1.1276573,-1.6769015,1.7274506
278,2024-05-15 22:15:10.423478,0.29140437,-2.021099,0.28627914,-1.4239268,-1.4997505,0.6987535
279,2024-05-15 22:15:10.440374,0.17498904,-1.6298753,-0.18231077,-2.0347922,-0.20899227,-0.650037
280,2024-05-15 22:15:10.457034,-0.33899552,-1.2254419,-0.3392396,-3.091589,1.3542119,-1.2492958
281,2024-05-15 22:15:10.473746,-0.5823511,-0.9157333,-0.22965786,-4.145942,2.255238,-1.4826463
282,2024-05-15 22:15:10.490353,-0.7092609,-0.8105446,-0.064919226,-4.624861,2.5838835,-1.5687783
283,2024-05-15 22:15:10.506690,-0.9030423,-0.5916253,0.40342662,-5.0402493,3.0829606,-1.6304756
284,2024-05-15 22:15:10.524076,-1.2347162,-0.22331238,1.0958476,-5.1294355,3.6755,-1.5419003
285,2024-05-15 22:15:10.540134,-1.3154991,-0.07224095,1.2815751,-4.964502,3.6131916,-1.4349989
286,2024-05-15 22:15:10.556996,-1.3298985,0.3824377,1.5527532,-4.6218066,3.2888222,-1.3250431
287,2024-05-15 22:15:10.573758,-1.310862,0.7363512,1.5383539,-4.346917,2.7353783,-1.0556515
288,2024-05-15 22:15:10.590328,-1.1841964,0.9725986,1.4194674,-4.3004913,2.3468678,-0.84245956
289,2024-05-15 22:15:10.607313,-0.8617967,1.3567448,1.2737653,-4.501466,1.7158442,-0.4899903
290,2024-05-15 22:15:10.623747,-0.56941605,1.7572733,1.6938182,-4.451375,1.9571359,-0.36415204
291,2024-05-15 22:15:10.640459,-0.5035206,2.081381,2.3046937,-3.980398,2.318768,-0.337274
292,2024-05-15 22:15:10.657011,-0.5035206,2.081381,2.3046937,-3.980398,2.318768,-0.337274
293,2024-05-15 22:15:10.673645,-0.5035206,2.081381,2.3046937,-3.980398,2.318768,-0.337274
294,2024-05-15 22:15:10.690305,-0.5035206,2.081381,2.3046937,-3.980398,2.318768,-0.337274
295,2024-05-15 22:15:10.706624,-0.5035206,2.081381,2.3046937,-3.980398,2.318768,-0.337274
296,2024-05-15 22:15:10.723724,-0.2362474,2.0169501,1.935191,-0.03970624,-1.0684797,0.7421249
297,2024-05-15 22:15:10.740293,-0.2362474,2.0169501,1.935191,-0.03970624,-1.0684797,0.7421249
298,2024-05-15 22:15:10.757064,-0.2362474,2.0169501,1.935191,-0.03970624,-1.0684797,0.7421249
299,2024-05-15 22:15:10.773729,-1.1854166,1.2532645,1.7428739,3.844786,-2.3213644,0.43363798
300,2024-05-15 22:15:10.790263,-1.2139713,1.1710172,1.6188927,4.3224826,-2.7917306,0.94676477
301,2024-05-15 22:15:10.807074,-1.1280631,0.7754004,1.1505164,4.379904,-2.8448758,1.1556807
302,2024-05-15 22:15:10.823806,-1.0153086,0.4417436,1.1524688,4.7152686,-2.5498278,1.1562916
303,2024-05-15 22:15:10.840243,-1.050697,0.22477673,1.1712612,5.222898,-2.1741457,1.1300243
304,2024-05-15 22:15:10.857052,-1.1143959,0.061014313,1.1183008,5.56315,-1.882763,1.1605676
305,2024-05-15 22:15:10.873563,-1.2154356,-0.17376876,0.9643007,5.8007765,-1.3952925,1.4043028
306,2024-05-15 22:15:10.890336,-1.2720569,-0.44418418,0.98577774,5.603467,-1.0605384,1.5765668
307,2024-05-15 22:15:10.906894,-1.3010997,-1.01238,1.0323926,5.2473326,-0.63843054,1.5008196
308,2024-05-15 22:15:10.923463,-1.4873154,-1.5373777,0.53451586,4.348139,-0.48876855,0.8759044
309,2024-05-15 22:15:10.940217,-1.6215774,-1.6206012,0.38194957,2.230269,0.18196149,1.0335076
310,2024-05-15 22:15:10.956369,-1.6425663,-1.7631307,0.35925224,-0.26206118,0.5936847,1.7708219
311,2024-05-15 22:15:10.974264,-0.46297657,-2.096269,0.4729829,-1.2620476,0.13492486,1.8838321
312,2024-05-15 22:15:10.990206,-0.46297657,-2.096269,0.4729829,-2.094657,-1.0073931,1.3597096
313,2024-05-15 22:15:11.006692,0.2762728,-1.5180972,0.20818083,-2.2956316,-1.3818536,0.90705854
314,2024-05-15 22:15:11.023912,0.18084641,-1.3032962,0.014643434,-2.7061331,-0.12224941,-1.4960853
315,2024-05-15 22:15:11.040190,-0.36144876,-0.9047507,-0.017328065,-3.2662964,1.688966,-2.3189209
316,2024-05-15 22:15:11.056837,-0.5252417,-0.79248434,0.028798755,-3.5240817,2.301053,-2.5076783
317,2024-05-15 22:15:11.073357,-1.0997524,-0.4515059,0.37658033,-4.347528,3.0658562,-2.6732228
318,2024-05-15 22:15:11.090162,-1.4294739,-0.018060237,0.9494132,-4.90647,2.8196776,-2.4734697
319,2024-05-15 22:15:11.106570,-1.4841427,0.24552159,1.2764499,-5.126381,2.3951263,-2.3769531
320,2024-05-15 22:15:11.123555,-1.6066898,0.5926015,1.7096821,-4.894863,2.1190152,-2.0440314
321,2024-05-15 22:15:11.140680,-1.5137041,0.92451936,1.7062652,-4.2314634,2.0011182,-1.3641385
322,2024-05-15 22:15:11.156908,-1.408729,0.9794322,1.6047374,-4.0323215,1.7488308,-1.0556515
323,2024-05-15 22:15:11.173919,-0.94209146,1.0614355,1.2366686,-3.8643336,1.0310642,-0.58589613
324,2024-05-15 22:15:11.190485,-0.6091974,1.1724815,1.1436827,-3.9107592,0.91194546,-0.42768204
325,2024-05-15 22:15:11.207063,-0.530611,1.3269697,1.3076892,-3.7501018,1.1483504,-0.32505667
326,2024-05-15 22:15:11.223579,-0.46810177,1.6218214,1.6379292,-3.1068606,1.3780357,0.013362677
327,2024-05-15 22:15:11.240108,-0.2962855,1.8492827,1.8526996,-2.3671029,0.89423037,0.21555908
328,2024-05-15 22:15:11.256999,-0.28432667,1.8341513,1.9146901,-2.0836613,0.60223675,0.27603474
329,2024-05-15 22:15:11.273465,-0.28432667,1.8341513,1.9146901,-2.0836613,0.60223675,0.27603474
330,2024-05-15 22:15:11.290096,-0.28432667,1.8341513,1.9146901,-2.0836613,0.60223675,0.27603474
331,2024-05-15 22:15:11.307096,-0.28432667,1.8341513,1.9146901,-2.0836613,0.60223675,0.27603474
332,2024-05-15 22:15:11.323451,-0.28432667,1.8341513,1.9146901,-2.0836613,0.60223675,0.27603474
333,2024-05-15 22:15:11.340471,-0.28432667,1.8341513,1.9146901,-2.0836613,0.60223675,0.27603474
334,2024-05-15 22:15:11.356726,-0.28432667,1.8341513,1.9146901,-2.0836613,0.60223675,0.27603474
335,2024-05-15 22:15:11.373816,-0.28432667,1.8341513,1.9146901,-2.0836613,0.60223675,0.27603474
336,2024-05-15 22:15:11.390237,-0.28432667,1.8341513,1.9146901,-2.0836613,0.60223675,0.27603474
337,2024-05-15 22:15:11.416779,-0.28432667,1.8341513,1.9146901,-2.0836613,0.60223675,0.27603474
338,2024-05-15 22:15:11.426786,-1.0929189,0.13398743,1.0743705,5.0610185,-2.662838,0.58329993
339,2024-05-15 22:15:11.439692,-1.0929189,0.13398743,1.0743705,5.0610185,-2.662838,0.58329993
340,2024-05-15 22:15:11.456379,-1.0968238,0.04807928,1.0907223,5.357899,-2.3213644,0.55703276
341,2024-05-15 22:15:11.473766,-1.1314799,-0.10543273,1.101705,5.681658,-1.7691422,0.564974
342,2024-05-15 22:15:11.489518,-1.1741899,-0.14863087,1.1097587,5.750685,-1.447827,0.5912412
343,2024-05-15 22:15:11.506306,-1.1741899,-0.14863087,1.1097587,5.7280836,-0.8980483,0.67798406
344,2024-05-15 22:15:11.523256,-1.5195614,-0.74172044,0.72170776,4.9138002,-0.2596941,0.53565246
345,2024-05-15 22:15:11.539687,-1.6767343,-0.83104545,0.40220633,2.9309313,0.23571762,1.3395511
346,2024-05-15 22:15:11.557207,-1.6288991,-0.98773015,0.40684342,1.8362609,0.25160012,1.892995
347,2024-05-15 22:15:11.573346,-1.1265987,-1.4492424,0.68778384,-0.26939157,-0.24808764,2.6461918
348,2024-05-15 22:15:11.585911,-0.33045352,-1.768988,0.87131494,-0.8790351,-0.96707606,2.0255527
349,2024-05-15 22:15:11.596499,0.0134231495,-1.7333556,0.7678346,-0.7263188,-0.9939541,1.2851841
350,2024-05-15 22:15:11.609104,0.0134231495,-1.7333556,0.7678346,-0.7263188,-0.9939541,1.2851841
351,2024-05-15 22:15:11.623268,0.3499781,-1.3501551,0.19744232,-0.8350528,-0.09903653,-0.14118622
352,2024-05-15 22:15:11.639923,0.17523311,-1.0528934,-0.17303659,-1.8527542,0.77144647,-1.2999976
353,2024-05-15 22:15:11.656641,0.043198135,-0.9530741,-0.24649782,-2.3414464,0.9559277,-1.6817883
354,2024-05-15 22:15:11.673326,-0.35559142,-0.8195747,-0.17938207,-3.3487632,1.2295954,-2.2535582
355,2024-05-15 22:15:11.690084,-0.7273211,-0.58601195,0.13862452,-3.938859,1.8942168,-2.291432
356,2024-05-15 22:15:11.706573,-0.81371737,-0.509378,0.24454537,-4.067752,2.1532235,-2.2511148
357,2024-05-15 22:15:11.723306,-1.1632073,-0.082491346,0.9818728,-4.3395867,3.1599295,-1.9310215
358,2024-05-15 22:15:11.740353,-1.2564372,0.24064046,1.3662629,-4.044539,3.1110604,-1.8222874
359,2024-05-15 22:15:11.756588,-1.2654673,0.33191785,1.3779777,-3.9382482,2.7182739,-1.7813594
360,2024-05-15 22:15:11.773186,-1.1629633,0.52768224,1.2654673,-4.1135664,1.5570191,-1.5406785
361,2024-05-15 22:15:11.789783,-0.81444955,0.74586946,1.3093976,-4.238794,1.0316751,-1.4392749
362,2024-05-15 22:15:11.806704,-0.60968554,1.1988398,1.5483602,-3.844175,1.4452308,-1.6084845
363,2024-05-15 22:15:11.823265,-0.66313404,1.538842,1.769232,-3.2333097,1.911321,-1.6494125
364,2024-05-15 22:15:11.840097,-0.83055735,2.0757678,1.9117615,-2.3835962,1.8832211,-1.4307227
365,2024-05-15 22:15:11.856339,-1.0316606,2.3176286,1.8836949,-1.9651535,0.6370561,-0.47777298
366,2024-05-15 22:15:11.873656,-0.97430706,2.3771787,1.926893,-1.9321668,0.18440494,-0.17539468
367,2024-05-15 22:15:11.889957,-0.56551117,2.3976796,2.310063,-1.3891076,-0.63781965,0.55397844
368,2024-05-15 22:15:11.906353,-0.28457075,2.2607634,2.6505532,0.2883284,-0.6653086,0.6297257
369,2024-05-15 22:15:11.923231,-0.28457075,2.2607634,2.6505532,0.2883284,-0.6653086,0.6297257
370,2024-05-15 22:15:11.939866,-0.28457075,2.2607634,2.6505532,0.2883284,-0.6653086,0.6297257
371,2024-05-15 22:15:11.956548,-0.28457075,2.2607634,2.6505532,0.2883284,-0.6653086,0.6297257
372,2024-05-15 22:15:11.972978,-0.28457075,2.2607634,2.6505532,0.2883284,-0.6653086,0.6297257
373,2024-05-15 22:15:11.988014,-0.28457075,2.2607634,2.6505532,0.2883284,-0.6653086,0.6297257
374,2024-05-15 22:15:12.003491,-0.28457075,2.2607634,2.6505532,0.2883284,-0.6653086,0.6297257
375,2024-05-15 22:15:12.023276,-0.28457075,2.2607634,2.6505532,0.2883284,-0.6653086,0.6297257
376,2024-05-15 22:15:12.039934,-0.28457075,2.2607634,2.6505532,0.2883284,-0.6653086,0.6297257
377,2024-05-15 22:15:12.056322,-0.89864933,-0.6057806,1.1463674,5.773898,-2.5052347,0.9333257
378,2024-05-15 22:15:12.072588,-0.884738,-0.7234162,1.1095147,5.7403007,-2.4417048,0.8484155
379,2024-05-15 22:15:12.089657,-0.88156533,-1.2566813,1.0199457,5.390886,-1.8571067,0.40553817
380,2024-05-15 22:15:12.105819,-0.880345,-1.4214199,0.98724204,5.182581,-1.456379,0.13003793
381,2024-05-15 22:15:12.122980,-1.1107349,-1.6633111,0.39976576,3.8820486,-0.6622543,-0.3843106
382,2024-05-15 22:15:12.139675,-1.4494865,-1.824633,0.12373702,1.1588113,-0.047112983,0.24793494
383,2024-05-15 22:15:12.156066,-1.4162947,-1.9073684,0.25333142,-1.033584,-0.36598465,0.7231881
384,2024-05-15 22:15:12.173008,-0.88522613,-2.059416,0.4886026,-1.4850134,-0.7942012,0.53626335
385,2024-05-15 22:15:12.189643,-0.464685,-1.8053524,0.31995904,-1.7788396,-1.0758101,-0.44295365
386,2024-05-15 22:15:12.206179,-0.43979117,-1.477065,-0.16913168,-1.9168952,-0.6176611,-0.8937722
387,2024-05-15 22:15:12.222931,-0.5962624,-1.2732772,-0.2796896,-2.905275,1.3700944,-1.5944346
388,2024-05-15 22:15:12.239416,-0.9294005,-1.0118918,-0.102992155,-3.7421606,2.958344,-1.8461112
389,2024-05-15 22:15:12.256739,-1.1937145,-0.88107723,0.1244692,-4.0414844,3.3230305,-1.9206367
390,2024-05-15 22:15:12.272684,-1.4614452,-0.8012705,0.4412555,-5.2155676,3.960774,-2.1894174
391,2024-05-15 22:15:12.289615,-1.8702717,-0.35290676,1.4982979,-5.5454345,4.3859363,-2.018986
392,2024-05-15 22:15:12.305731,-1.9366553,-0.06833603,1.9603289,-4.6285257,4.580802,-1.7367662
393,2024-05-15 22:15:12.322932,-1.649644,0.5974827,2.4008522,-3.98895,4.136703,-1.8033506
394,2024-05-15 22:15:12.339963,-1.4036037,0.95990765,1.9654541,-3.4025195,2.5673902,-1.8748218
395,2024-05-15 22:15:12.355748,-1.1502724,1.2547288,1.4494865,-3.4465017,2.1403954,-1.8051832
396,2024-05-15 22:15:12.372650,-1.042399,1.3601615,1.4453375,-4.0506473,1.5765668,-1.3678037
397,2024-05-15 22:15:12.389576,-0.76148915,1.726522,1.803156,-3.9962804,1.5869515,-0.9371436
398,2024-05-15 22:15:12.405724,-0.56843984,2.1816885,2.1175015,-3.042109,1.458059,-0.6292676
399,2024-05-15 22:15:12.422843,-0.58820844,2.247096,2.148741,-2.6847527,1.3413837,-0.47655123
400,2024-05-15 22:15:12.439538,-0.58820844,2.247096,2.148741,-2.6847527,1.3413837,-0.47655123
401,2024-05-15 22:15:12.456214,-0.58820844,2.247096,2.148741,-2.6847527,1.3413837,-0.47655123
402,2024-05-15 22:15:12.473155,-0.14057697,2.0747917,1.8199959,-0.015882496,-1.2340242,1.0060188
403,2024-05-15 22:15:12.489544,-0.16010156,1.8114538,1.8214604,0.9468411,-1.5315155,0.96509075
404,2024-05-15 22:15:12.506227,-0.35315084,1.5659323,1.8932132,1.9975294,-1.5370133,0.8264243
405,2024-05-15 22:15:12.522871,-0.5867441,1.3821267,1.8595332,2.6621506,-1.6738471,0.74823356
406,2024-05-15 22:15:12.539548,-1.0589949,1.1900537,1.6437867,3.318831,-2.109394,1.0512227
407,2024-05-15 22:15:12.556178,-1.1043895,1.1431947,1.5642239,3.4367278,-2.323197,1.2686907
408,2024-05-15 22:15:12.572834,-1.1043895,1.1431947,1.5642239,3.4367278,-2.323197,1.2686907
409,2024-05-15 22:15:12.589333,-1.1043895,1.1431947,1.5642239,3.4367278,-2.323197,1.2686907
410,2024-05-15 22:15:12.606150,-1.1043895,1.1431947,1.5642239,3.4367278,-2.323197,1.2686907
411,2024-05-15 22:15:12.622576,-1.1043895,1.1431947,1.5642239,3.4367278,-2.323197,1.2686907
412,2024-05-15 22:15:12.639479,-1.1043895,1.1431947,1.5642239,3.4367278,-2.323197,1.2686907
413,2024-05-15 22:15:12.656140,-1.1043895,1.1431947,1.5642239,3.4367278,-2.323197,1.2686907
414,2024-05-15 22:15:12.672790,-1.1043895,1.1431947,1.5642239,3.4367278,-2.323197,1.2686907
415,2024-05-15 22:15:12.689661,-1.1043895,1.1431947,1.5642239,3.4367278,-2.323197,1.2686907
416,2024-05-15 22:15:12.705581,-1.1043895,1.1431947,1.5642239,3.4367278,-2.323197,1.2686907
417,2024-05-15 22:15:12.722214,-1.489756,-1.2178762,0.8710708,4.2357397,-1.2144765,0.20517437
418,2024-05-15 22:15:12.737404,-1.5820401,-1.5080907,-0.04344219,1.7708983,-1.3500886,0.63583434
419,2024-05-15 22:15:12.755205,-1.0819362,-1.6986994,-0.12129646,-0.48991394,-1.5351807,0.9675342
420,2024-05-15 22:15:12.772423,-0.820551,-1.7631307,0.04637088,-1.0677924,-1.5357916,0.91072375
421,2024-05-15 22:15:12.789092,-0.18182266,-1.8321989,0.2672427,-1.6652187,-0.9432523,-0.0031306844
422,2024-05-15 22:15:12.805732,0.01513155,-1.4865832,-0.1295944,-1.8967366,0.23021984,-1.2260829
423,2024-05-15 22:15:12.822975,-0.19500175,-1.323797,-0.3738957,-2.7122416,0.97914064,-1.7691422
424,2024-05-15 22:15:12.839394,-0.59919107,-1.1346527,-0.14692247,-3.9260309,1.7897588,-2.0452533
425,2024-05-15 22:15:12.856064,-0.8251881,-0.99358755,0.28432667,-4.7445903,2.6620743,-2.2040782
426,2024-05-15 22:15:12.872774,-0.9049948,-0.9257397,0.47444725,-4.9394565,2.9772809,-2.2718842
427,2024-05-15 22:15:12.889437,-1.2422819,-0.598947,1.217388,-5.281541,3.8721983,-2.5009587
428,2024-05-15 22:15:12.906728,-1.473404,-0.36413342,1.6396377,-5.1385984,3.9430587,-2.4917958
429,2024-05-15 22:15:12.922486,-1.5547056,0.14374973,1.8402526,-4.6688433,3.0157654,-2.2602777
430,2024-05-15 22:15:12.939405,-1.4304501,0.52572984,1.6811273,-5.0145926,1.5637387,-1.8241199
431,2024-05-15 22:15:12.956020,-1.1451471,0.709749,1.7494634,-5.295591,0.9033933,-1.3922383
432,2024-05-15 22:15:12.973901,-1.0175052,0.7788172,1.7538564,-5.331021,0.56986094,-1.2462415
433,2024-05-15 22:15:12.989380,-0.7151182,1.0514292,1.9239643,-5.1642547,0.5289329,-1.2486849
434,2024-05-15 22:15:13.006314,-0.6599613,1.3416132,2.233429,-4.753753,0.58696514,-1.3140475
435,2024-05-15 22:15:13.022396,-0.8288489,1.5107754,2.4128108,-3.6890152,0.78732896,-1.0238866
436,2024-05-15 22:15:13.039330,-0.8220153,1.9276252,2.3825479,-2.7281241,0.7787768,-0.43928847
437,2024-05-15 22:15:13.056018,-0.6504431,2.0342782,2.224887,-2.008525,0.3114649,0.032910366
438,2024-05-15 22:15:13.072730,-0.37609223,1.9137139,2.1580153,-1.0384709,-1.1313988,0.54970235
439,2024-05-15 22:15:13.089397,-0.21989559,1.7577612,2.2107315,0.065973446,-1.6182584,0.6052911
440,2024-05-15 22:15:13.105780,-0.16083373,1.5664204,2.2278156,1.3054191,-1.5192982,0.3395647
441,2024-05-15 22:15:13.122713,-0.22062775,1.4385039,2.2090232,1.9095647,-1.4411075,0.10560333
442,2024-05-15 22:15:13.139200,-0.47347105,1.1839522,1.9732639,3.0311134,-1.6194801,-0.25114197
443,2024-05-15 22:15:13.155827,-0.6994986,0.9711343,1.6144997,3.386637,-2.3005948,-0.2786309
444,2024-05-15 22:15:13.172115,-0.7497744,0.9135367,1.555682,3.4281757,-2.5687647,-0.21754439
445,2024-05-15 22:15:13.188787,-0.8129852,0.7375715,1.5044299,3.7042868,-2.9218447,0.018860465
446,2024-05-15 22:15:13.205972,-0.8129852,0.7375715,1.5044299,3.7042868,-2.9218447,0.018860465
447,2024-05-15 22:15:13.222620,-0.8129852,0.7375715,1.5044299,3.7042868,-2.9218447,0.018860465
448,2024-05-15 22:15:13.239283,-0.8129852,0.7375715,1.5044299,3.7042868,-2.9218447,0.018860465
449,2024-05-15 22:15:13.255936,-0.8129852,0.7375715,1.5044299,3.7042868,-2.9218447,0.018860465
450,2024-05-15 22:15:13.272606,-0.8129852,0.7375715,1.5044299,3.7042868,-2.9218447,0.018860465
451,2024-05-15 22:15:13.289263,-0.8129852,0.7375715,1.5044299,3.7042868,-2.9218447,0.018860465
452,2024-05-15 22:15:13.305940,-0.8129852,0.7375715,1.5044299,3.7042868,-2.9218447,0.018860465
453,2024-05-15 22:15:13.322590,-0.8129852,0.7375715,1.5044299,3.7042868,-2.9218447,0.018860465
454,2024-05-15 22:15:13.339259,-0.8129852,0.7375715,1.5044299,3.7042868,-2.9218447,0.018860465
455,2024-05-15 22:15:13.356148,-0.79126406,0.32679266,1.3174515,4.874705,-1.9530126,0.62422794
456,2024-05-15 22:15:13.372326,-1.2869444,-1.8956536,0.5240214,0.97310835,-0.07276932,1.394529
457,2024-05-15 22:15:13.388919,-0.61798346,-1.9749724,0.4046469,0.14049901,-0.78198385,1.3340533
458,2024-05-15 22:15:13.405393,-0.24137263,-1.7985189,0.24698594,-0.59620446,-1.207757,0.4525748
459,2024-05-15 22:15:13.422607,-0.042221904,-1.2786465,-0.22428861,-1.1746938,-0.2120466,-0.68058026
460,2024-05-15 22:15:13.439092,-0.15839316,-1.1224499,-0.26406994,-2.1197023,1.2430344,-1.5186874
461,2024-05-15 22:15:13.455295,-0.60089946,-0.8923038,-0.15790504,-2.9571986,2.0145571,-1.8320612
462,2024-05-15 22:15:13.472179,-0.69486153,-0.77954936,-0.1244692,-3.2669072,2.1776583,-1.8253417
463,2024-05-15 22:15:13.489229,-0.8864465,-0.5115745,0.1466784,-4.0787473,2.8263972,-1.7813594
464,2024-05-15 22:15:13.505877,-1.0914545,-0.22599702,0.7685668,-4.615698,3.6895497,-1.8345047
465,2024-05-15 22:15:13.523423,-1.2415497,-0.099575356,1.076323,-4.592485,3.9430587,-1.7996854
466,2024-05-15 22:15:13.540038,-1.5000368,0.08786061,1.3174515,-4.538118,3.6345718,-1.6707928
467,2024-05-15 22:15:13.555288,-1.5215139,0.1969542,1.3040284,-4.595539,3.0230958,-1.4484378
468,2024-05-15 22:15:13.572385,-1.3599174,0.47884035,1.3726085,-5.1239376,2.351144,-0.9524153
469,2024-05-15 22:15:13.589162,-1.1800473,0.5645349,1.6664839,-5.2925363,2.2155318,-0.81374884
470,2024-05-15 22:15:13.605741,-0.7741801,0.9906589,2.3393497,-4.225966,2.4171174,-1.1155163
471,2024-05-15 22:15:13.622497,-0.84764135,1.289385,2.297616,-2.683531,2.7848582,-1.5907694
472,2024-05-15 22:15:13.638823,-1.0116477,1.6340244,1.8976061,-1.8741345,2.1727712,-1.5302938
473,2024-05-15 22:15:13.655214,-0.8542308,1.990348,1.6057136,-2.085494,0.9357692,-1.0831405
474,2024-05-15 22:15:13.672377,-0.7060881,2.0093844,1.7558088,-2.2522602,0.4012621,-0.7221191
475,2024-05-15 22:15:13.688745,-0.4275883,2.080405,2.2661326,-1.5760323,-0.18028161,-0.29206994
476,2024-05-15 22:15:13.705814,-0.25845662,2.050386,2.4892008,-0.5186246,-0.28535044,-0.15096007
477,2024-05-15 22:15:13.722187,-0.24942651,1.854408,2.5595198,1.1319333,-0.26152667,-0.26274842
478,2024-05-15 22:15:13.738571,-0.5235333,1.5915583,2.3266587,2.3817637,-0.67874765,-0.31100675
479,2024-05-15 22:15:13.756263,-0.78394234,1.4411886,2.1279962,2.9431489,-1.2169199,-0.13568844
480,2024-05-15 22:15:13.772452,-0.9562468,1.153201,1.7072414,3.4568865,-2.2309563,0.44829872
481,2024-05-15 22:15:13.789117,-0.92378724,0.829337,1.5202936,3.7299433,-2.690327,0.8447503
482,2024-05-15 22:15:13.805480,-0.90011364,0.58259517,1.442897,4.006665,-2.7324767,0.9742537
483,2024-05-15 22:15:13.822412,-0.8901073,0.30897647,1.4416767,4.5265117,-2.3873377,0.94004524
484,2024-05-15 22:15:13.839076,-0.9042626,0.19402552,1.4419208,4.7586403,-2.2663865,0.868574
485,2024-05-15 22:15:13.855758,-0.9042626,0.19402552,1.4419208,4.7586403,-2.2663865,0.868574
486,2024-05-15 22:15:13.872431,-0.9042626,0.19402552,1.4419208,4.7586403,-2.2663865,0.868574
487,2024-05-15 22:15:13.889051,-0.9042626,0.19402552,1.4419208,4.7586403,-2.2663865,0.868574
488,2024-05-15 22:15:13.905742,-0.9042626,0.19402552,1.4419208,4.7586403,-2.2663865,0.868574
489,2024-05-15 22:15:13.922395,-0.9042626,0.19402552,1.4419208,4.7586403,-2.2663865,0.868574
490,2024-05-15 22:15:13.939058,-0.9042626,0.19402552,1.4419208,4.7586403,-2.2663865,0.868574
491,2024-05-15 22:15:13.955704,-1.3682154,-1.7121226,0.92329913,3.4929276,-0.55229855,0.25404358
492,2024-05-15 22:15:13.972381,-1.3682154,-1.7121226,0.92329913,3.4929276,-0.55229855,0.25404358
493,2024-05-15 22:15:13.989350,-0.6155429,-1.7179799,0.15277983,-0.49602258,-2.2431736,0.83864164
494,2024-05-15 22:15:14.005212,-0.32581642,-1.569349,0.051496077,-0.9737192,-2.4966826,0.25526533
495,2024-05-15 22:15:14.022343,-0.15229172,-1.3296543,-0.11665936,-1.2815952,-1.7361554,-0.62315893
496,2024-05-15 22:15:14.039070,-0.2277054,-1.093407,-0.31581008,-1.5699236,-0.4881577,-1.1466705
497,2024-05-15 22:15:14.056276,-0.7351309,-0.8659456,-0.5274382,-2.6340508,1.403692,-1.5083027
498,2024-05-15 22:15:14.071862,-0.88058907,-0.81884265,-0.5652671,-2.6340508,1.403692,-1.5083027
499,2024-05-15 22:15:14.088980,-1.0145764,-0.8251881,-0.42929673,-4.5216246,1.902158,-1.1570551
500,2024-05-15 22:15:14.105155,-1.0863293,-0.7766207,0.18011424,-5.31636,2.3926828,-1.1790463
501,2024-05-15 22:15:14.122335,-1.2122629,-0.6392164,0.62652546,-5.3664513,3.1697035,-1.2376894
502,2024-05-15 22:15:14.138569,-1.5437231,-0.27871338,1.2491155,-5.0799556,4.3309584,-1.1240684
503,2024-05-15 22:15:14.172441,-1.3860316,0.447601,1.9371434,-5.032919,2.2369123,-1.0367147
504,2024-05-15 22:15:14.189106,-1.2461867,0.8757079,2.250757,-4.8588223,2.097024,-0.91209817
505,2024-05-15 22:15:14.204732,-1.2017684,1.0099394,2.395971,-4.732373,2.124513,-0.8296314
506,2024-05-15 22:15:14.221778,-1.1002406,1.2610743,2.7323124,-4.2736135,2.1031327,-0.65919995
507,2024-05-15 22:15:14.239386,-1.0275115,1.3950617,2.862639,-3.7116172,1.9681314,-0.49732068
508,2024-05-15 22:15:14.255018,-0.8381231,1.6540369,2.7791712,-2.3945918,1.0719922,-0.14912748
509,2024-05-15 22:15:14.271927,-0.6055366,1.8661228,2.425258,-1.6438384,-0.14790575,0.3151301
510,2024-05-15 22:15:14.288612,-0.45980385,1.8636822,2.2736983,-1.2748758,-0.94630665,0.6297257
511,2024-05-15 22:15:14.305091,-0.27724904,1.7113904,2.2236667,-0.5332854,-1.5180765,0.9131672
512,2024-05-15 22:15:14.322242,-0.12495731,1.5212698,2.2624717,0.6914995,-1.5724435,0.7745008
513,2024-05-15 22:15:14.338939,-0.22575295,1.2989032,2.216101,1.9193386,-1.5480089,0.37560576
514,2024-05-15 22:15:14.356116,-0.66264594,1.0367857,1.8414729,3.2192597,-1.8198439,0.24182628
515,2024-05-15 22:15:14.371428,-0.7617332,0.96722937,1.7233493,3.3964107,-1.9921079,0.34017557
516,2024-05-15 22:15:14.387385,-0.8659456,0.7507506,1.4509509,3.62182,-2.6176338,0.73235106
517,2024-05-15 22:15:14.405080,-0.8371468,0.5023003,1.4914644,3.7152824,-2.9132926,0.86979574
518,2024-05-15 22:15:14.422193,-0.8500819,0.27480847,1.5459197,4.183205,-3.083724,0.87223923
519,2024-05-15 22:15:14.439368,-0.8793688,-0.010738519,1.6328039,4.96328,-2.9804878,0.71524686
520,2024-05-15 22:15:14.455356,-0.90060174,-0.14423785,1.6227976,5.3316317,-2.871754,0.62361705
521,2024-05-15 22:15:14.472178,-1.0301962,-0.50034785,1.4760888,6.114761,-2.4374287,0.47456592
522,2024-05-15 22:15:14.488834,-1.0301962,-0.50034785,1.4760888,6.114761,-2.4374287,0.47456592
523,2024-05-15 22:15:14.505505,-1.0301962,-0.50034785,1.4760888,6.114761,-2.4374287,0.47456592
524,2024-05-15 22:15:14.522152,-1.0301962,-0.50034785,1.4760888,6.114761,-2.4374287,0.47456592
525,2024-05-15 22:15:14.538822,-1.0301962,-0.50034785,1.4760888,6.114761,-2.4374287,0.47456592
526,2024-05-15 22:15:14.556509,-1.0301962,-0.50034785,1.4760888,6.114761,-2.4374287,0.47456592
527,2024-05-15 22:15:14.572145,-1.0301962,-0.50034785,1.4760888,6.114761,-2.4374287,0.47456592
528,2024-05-15 22:15:14.588811,-1.0301962,-0.50034785,1.4760888,6.114761,-2.4374287,0.47456592
529,2024-05-15 22:15:14.605979,-1.1841964,-1.5080907,1.1209855,4.814229,-1.243798,-0.8962157
530,2024-05-15 22:15:14.622259,-0.23771177,-1.3167193,-0.4002539,-1.0464121,-1.2358568,-0.51747924
531,2024-05-15 22:15:14.639462,-0.18694785,-1.0548459,-0.45516676,-2.5216517,0.12331842,-1.0525972
532,2024-05-15 22:15:14.656249,-0.4275883,-0.9262278,-0.20061506,-3.2766812,1.1593459,-1.5993216
533,2024-05-15 22:15:14.671905,-0.5830833,-0.8552071,-0.11592719,-3.4746015,1.5417476,-1.7874681
534,2024-05-15 22:15:14.688407,-0.9704022,-0.69559366,-0.012935034,-3.7818668,2.0127246,-1.7758616
535,2024-05-15 22:15:14.704921,-1.08096,-0.5454985,0.056133166,-4.065919,2.3181572,-1.5687783
536,2024-05-15 22:15:14.721849,-1.2862122,-0.27895743,0.41245672,-4.9168544,3.0011046,-1.2102004
537,2024-05-15 22:15:14.738557,-1.3611377,-0.1969542,0.6309185,-5.1031685,3.1116712,-1.098412
538,2024-05-15 22:15:14.754899,-1.4519271,0.08664032,1.3550363,-5.140431,3.0267608,-0.7758752
539,2024-05-15 22:15:14.771586,-1.2974389,0.39854547,1.7096821,-4.747645,2.0988567,-0.6903541
540,2024-05-15 22:15:14.788287,-1.3081774,0.50059193,1.7977866,-4.6108108,1.8862755,-0.7031823
541,2024-05-15 22:15:14.805034,-0.9545384,1.102437,2.029885,-3.87594,1.2424235,-0.40324742
542,2024-05-15 22:15:14.822087,-0.78247803,1.2762059,2.0408678,-3.150843,0.7262424,-0.40508002
543,2024-05-15 22:15:14.839098,-0.594554,1.5285915,1.9522749,-2.4770586,0.37560576,-0.3207806
544,2024-05-15 22:15:14.856452,-0.5828392,1.7428739,1.9290894,-2.284636,0.27542385,-0.19555324
545,2024-05-15 22:15:14.872028,-0.57746994,1.7787503,1.94837,-1.8325957,-0.018402316,0.437914
546,2024-05-15 22:15:14.888486,-0.37365165,1.7951021,1.999378,-1.4318681,-0.49732068,1.0671052
547,2024-05-15 22:15:14.904887,-0.2660224,1.6645315,2.1804683,-1.0793989,-0.8106945,1.2693017
548,2024-05-15 22:15:14.922103,-0.07150877,1.3650427,2.494082,0.09468412,-1.2242503,1.0561097
549,2024-05-15 22:15:14.939774,-0.047347106,1.268396,2.4828553,1.9071213,-1.5822173,0.35972327
550,2024-05-15 22:15:14.954844,-0.1581491,1.0326368,2.1641166,2.330451,-1.5895478,0.18196149
551,2024-05-15 22:15:14.972044,-0.46663743,0.8542308,1.7972987,3.4379497,-1.5351807,-0.07948884
552,2024-05-15 22:15:14.989610,-0.5813749,0.7712514,1.6035172,3.645033,-1.6170367,-0.04344779
553,2024-05-15 22:15:15.004887,-0.7851626,0.55940974,1.2671757,3.811799,-2.4740806,0.2888629
554,2024-05-15 22:15:15.022014,-0.83836716,0.3414361,1.434355,4.042706,-2.8467083,0.33223432
555,2024-05-15 22:15:15.038649,-0.8566714,0.27529657,1.4824343,4.235129,-2.8155544,0.31818444
556,2024-05-15 22:15:15.055326,-0.8952325,0.11006982,1.5925345,5.0787334,-2.2517257,0.19662225
557,2024-05-15 22:15:15.071986,-1.0836447,-0.38780698,1.4277654,5.9107323,-1.6775123,-0.061773747
558,2024-05-15 22:15:15.088675,-1.2283707,-0.5281704,1.2715688,6.0115247,-1.3140475,-0.098425664
559,2024-05-15 22:15:15.105336,-1.4690111,-0.79590124,1.1114672,5.7274723,-0.9432523,0.018860465
560,2024-05-15 22:15:15.121981,-1.5342048,-0.863261,1.0372738,5.5509324,-0.8461247,0.067118816
561,2024-05-15 22:15:15.138633,-1.5342048,-0.863261,1.0372738,5.5509324,-0.8461247,0.067118816
562,2024-05-15 22:15:15.155297,-1.5342048,-0.863261,1.0372738,5.5509324,-0.8461247,0.067118816
563,2024-05-15 22:15:15.171955,-1.5342048,-0.863261,1.0372738,5.5509324,-0.8461247,0.067118816
564,2024-05-15 22:15:15.188608,-1.5342048,-0.863261,1.0372738,5.5509324,-0.8461247,0.067118816
565,2024-05-15 22:15:15.205269,-1.5342048,-0.863261,1.0372738,5.5509324,-0.8461247,0.067118816
566,2024-05-15 22:15:15.221635,-0.26626647,-1.4101933,-0.022453265,0.42088616,-1.284726,0.55886537
567,2024-05-15 22:15:15.239223,-0.26626647,-1.4101933,-0.022453265,0.42088616,-1.284726,0.55886537
568,2024-05-15 22:15:15.256324,-0.26626647,-1.4101933,-0.022453265,0.42088616,-1.284726,0.55886537
569,2024-05-15 22:15:15.271508,-0.41977844,-1.0275115,-0.16864355,-4.075082,1.2051607,-1.0690905
570,2024-05-15 22:15:15.288588,-0.7434289,-0.89303595,0.15912533,-4.376239,2.1092412,-1.425225
571,2024-05-15 22:15:15.305249,-0.9730868,-0.71316576,0.41929033,-4.48314,2.9015336,-1.3830752
572,2024-05-15 22:15:15.321900,-1.234228,-0.38341394,0.8735114,-4.528955,3.860592,-1.1057425
573,2024-05-15 22:15:15.338508,-1.3045164,-0.090789296,1.3567448,-4.6138654,3.9998693,-1.0373255
574,2024-05-15 22:15:15.354947,-1.3101298,-0.04881145,1.4690111,-4.6523495,3.6950476,-1.1155163
575,2024-05-15 22:15:15.370091,-1.3489349,0.16180995,1.7338436,-4.477031,2.3749678,-1.3152692
576,2024-05-15 22:15:15.388865,-1.0792516,0.62921005,1.705289,-3.9675698,1.8997146,-1.0055605
577,2024-05-15 22:15:15.405205,-0.94599634,0.7558758,1.6557454,-3.7000108,1.9394208,-0.90354604
578,2024-05-15 22:15:15.421883,-0.72878546,1.0541137,1.6606265,-3.3487632,1.9443077,-0.9664652
579,2024-05-15 22:15:15.438292,-0.6741166,1.4568082,1.7450703,-2.7452285,1.7750981,-0.8461247
580,2024-05-15 22:15:15.455204,-0.68534327,1.586433,1.7602019,-2.6193902,1.7103463,-0.70868003
581,2024-05-15 22:15:15.471843,-0.63604367,2.0128012,1.9032195,-2.40742,1.158735,-0.044058654
582,2024-05-15 22:15:15.488428,-0.40708748,2.1887665,2.2324526,-1.8460348,0.051847186,0.7934376
583,2024-05-15 22:15:15.506110,-0.3585201,2.1636286,2.29786,-1.5564847,-0.26335928,0.9516517
584,2024-05-15 22:15:15.521810,-0.20256752,1.9747281,2.6122363,-0.022602014,-0.80275327,1.0280099
585,2024-05-15 22:15:15.538489,-0.2936009,1.6701448,2.3796191,1.672549,-1.2132547,0.85208064
586,2024-05-15 22:15:15.555182,-0.3526627,1.5781351,2.2463639,2.0598376,-1.3959035,0.8258135
587,2024-05-15 22:15:15.571818,-0.58381546,1.2788905,1.8173112,2.9614747,-1.9640081,0.92721707
588,2024-05-15 22:15:15.588962,-0.6848551,0.94916916,1.4624215,3.3701437,-2.567543,1.2564734
589,2024-05-15 22:15:15.605153,-0.63604367,0.7195113,1.3733406,3.5662313,-2.8784733,1.3737596
590,2024-05-15 22:15:15.621862,-0.6113939,0.44564855,1.4438732,3.9547415,-2.8405998,1.2436453
591,2024-05-15 22:15:15.638498,-0.6494669,0.13496366,1.6198689,4.7616944,-2.490574,0.92599535
592,2024-05-15 22:15:15.655140,-0.6994986,0.016351834,1.641346,5.1184397,-2.3256404,0.77999854
593,2024-05-15 22:15:15.671786,-0.88254154,-0.28408262,1.5771589,5.8502564,-1.8949803,0.49533537
594,2024-05-15 22:15:15.688438,-1.0143324,-0.6409248,1.4663264,5.970597,-1.6194801,0.34628424
595,2024-05-15 22:15:15.705109,-1.1036574,-0.9799203,1.3831029,5.7176986,-1.4038447,-0.022067508
596,2024-05-15 22:15:15.721789,-1.3159872,-1.2625387,1.2059174,5.0426927,-1.0470994,-0.7563275
597,2024-05-15 22:15:15.738445,-1.7375045,-1.2720569,1.1053658,3.6279287,-0.34949127,-0.54008126
598,2024-05-15 22:15:15.755081,-1.7611781,-1.3250173,1.0284877,2.919936,-0.38125628,-0.036728274
599,2024-05-15 22:15:15.771768,-1.7611781,-1.3250173,1.0284877,2.919936,-0.38125628,-0.036728274
600,2024-05-15 22:15:15.788417,-1.7611781,-1.3250173,1.0284877,2.919936,-0.38125628,-0.036728274
601,2024-05-15 22:15:15.805073,-1.7611781,-1.3250173,1.0284877,2.919936,-0.38125628,-0.036728274
602,2024-05-15 22:15:15.821737,-1.7611781,-1.3250173,1.0284877,2.919936,-0.38125628,-0.036728274
603,2024-05-15 22:15:15.838379,-1.7611781,-1.3250173,1.0284877,2.919936,-0.38125628,-0.036728274
604,2024-05-15 22:15:15.854690,-0.27822527,-1.029708,-0.19500175,-1.6285667,0.35117117,-1.2474632
605,2024-05-15 22:15:15.871703,-0.27822527,-1.029708,-0.19500175,-1.6285667,0.35117117,-1.2474632
606,2024-05-15 22:15:15.888165,-0.74489325,-0.7173148,-0.04759116,-3.7299433,0.9485974,-2.0483074
607,2024-05-15 22:15:15.905988,-0.91719764,-0.5235333,0.041977845,-4.233296,2.0768654,-1.6231453
608,2024-05-15 22:15:15.922735,-1.0902342,-0.3773125,0.26211748,-4.7671924,2.6810112,-1.3488668
609,2024-05-15 22:15:15.938865,-1.2466749,-0.14814276,0.84739727,-5.1520376,3.1587079,-0.9713521
610,2024-05-15 22:15:15.954487,-1.204453,0.19475769,1.3372202,-5.070792,2.7390435,-0.921872
611,2024-05-15 22:15:15.970954,-1.2039648,0.2928687,1.4243486,-5.039638,2.5344036,-0.9518044
612,2024-05-15 22:15:15.988372,-1.1883452,0.6577648,1.6181606,-4.788573,1.8881081,-0.80153155
613,2024-05-15 22:15:16.005500,-0.92281103,1.148808,1.7758216,-4.4361033,1.679803,-0.6194937
614,2024-05-15 22:15:16.021689,-0.8283608,1.4411886,1.9761926,-4.1318927,1.5264759,-0.5822309
615,2024-05-15 22:15:16.038342,-0.7570961,1.7584935,2.0989532,-3.441004,0.9498191,-0.37759107
616,2024-05-15 22:15:16.055643,-0.6919328,1.8829627,2.0826013,-3.0842586,0.546648,-0.18272507
617,2024-05-15 22:15:16.071662,-0.37584817,2.0413558,1.9883955,-2.424524,-0.18516853,0.3554472
618,2024-05-15 22:15:16.087831,-0.3099527,2.046237,2.1292164,-2.166739,-0.45211664,0.5405394
619,2024-05-15 22:15:16.104665,-0.28969595,2.0018184,2.251245,-1.5693128,-0.80214244,0.8252026
620,2024-05-15 22:15:16.121655,-0.1901206,1.6943065,2.5885627,0.103847094,-1.1045207,0.7580074
621,2024-05-15 22:15:16.138295,-0.28408262,1.4001869,2.4669917,1.8924606,-1.5675566,0.33773214
622,2024-05-15 22:15:16.155701,-0.57673776,1.1327002,1.8641703,3.1874948,-2.091068,0.087277375
623,2024-05-15 22:15:16.171379,-0.6743607,1.0621676,1.7201765,3.3945782,-2.213241,0.14347698
624,2024-05-15 22:15:16.188271,-0.8112768,0.8039551,1.3611377,3.7476583,-2.6145797,0.49228102
625,2024-05-15 22:15:16.204678,-0.77954936,0.62701356,1.3218446,3.9174788,-2.7526352,0.619341
626,2024-05-15 22:15:16.221629,-0.77198356,0.3533949,1.3560126,4.3041563,-2.7422504,0.6144541
627,2024-05-15 22:15:16.238278,-0.7763766,0.071264714,1.4014072,4.8539352,-2.4710262,0.45990518
628,2024-05-15 22:15:16.255157,-0.85691553,-0.34753752,1.4402124,5.482516,-1.7068338,0.16241379
629,2024-05-15 22:15:16.271766,-0.99383163,-0.6079771,1.4331347,5.752518,-1.0733666,-0.046502117
630,2024-05-15 22:15:16.288394,-1.1026812,-0.77100736,1.3923771,5.7781744,-0.794812,-0.1698969
631,2024-05-15 22:15:16.304019,-1.2867004,-0.97601545,1.2693722,5.6333995,-0.5052619,-0.33055446
632,2024-05-15 22:15:16.322943,-1.6132795,-1.2518002,1.0238507,4.3988404,-0.11552989,-0.13691017
633,2024-05-15 22:15:16.337726,-1.6245061,-1.5383539,0.87204707,2.8405235,-0.110032104,0.7366271
634,2024-05-15 22:15:16.354551,-1.6245061,-1.5383539,0.87204707,2.8405235,-0.110032104,0.7366271
635,2024-05-15 22:15:16.370254,-1.106342,-1.709194,0.7815018,1.455081,-0.83451825,1.154459
636,2024-05-15 22:15:16.389029,-1.106342,-1.709194,0.7815018,1.455081,-0.83451825,1.154459
637,2024-05-15 22:15:16.404508,-1.106342,-1.709194,0.7815018,1.455081,-0.83451825,1.154459
638,2024-05-15 22:15:16.421177,-1.106342,-1.709194,0.7815018,1.455081,-0.83451825,1.154459
639,2024-05-15 22:15:16.438195,-1.106342,-1.709194,0.7815018,1.455081,-0.83451825,1.154459
640,2024-05-15 22:15:16.454833,-1.106342,-1.709194,0.7815018,1.455081,-0.83451825,1.154459
641,2024-05-15 22:15:16.471476,-1.106342,-1.709194,0.7815018,1.455081,-0.83451825,1.154459
642,2024-05-15 22:15:16.488194,-1.106342,-1.709194,0.7815018,1.455081,-0.83451825,1.154459
643,2024-05-15 22:15:16.504776,-1.106342,-1.709194,0.7815018,1.455081,-0.83451825,1.154459
644,2024-05-15 22:15:16.521501,-1.106342,-1.709194,0.7815018,1.455081,-0.83451825,1.154459
645,2024-05-15 22:15:16.538151,-1.106342,-1.709194,0.7815018,1.455081,-0.83451825,1.154459
646,2024-05-15 22:15:16.555437,-1.106342,-1.709194,0.7815018,1.455081,-0.83451825,1.154459
647,2024-05-15 22:15:16.565641,-1.1170805,-0.58772033,0.4183141,-4.721988,2.8899271,-1.914528
648,2024-05-15 22:15:16.587920,-1.1344086,1.0477682,1.517853,-4.470923,0.39576432,-0.31894803
649,2024-05-15 22:15:16.604395,-0.80688375,1.2740093,1.7401892,-4.075693,0.80504405,0.12515102
650,2024-05-15 22:15:16.622513,-0.6296982,1.4424088,1.8663669,-3.499647,1.1404091,0.21616994
651,2024-05-15 22:15:16.638726,-0.6296982,1.4424088,1.8663669,-3.499647,1.1404091,0.21616994
652,2024-05-15 22:15:16.654846,-0.76637024,1.7804586,1.922988,-2.176513,1.4464525,0.32734743
653,2024-05-15 22:15:16.671456,-0.79126406,1.7453144,1.8558723,-1.4813483,0.33162346,1.4519503
654,2024-05-15 22:15:16.688484,-0.5127948,1.6391494,1.7968104,-1.3891076,-0.48754683,1.8813885
655,2024-05-15 22:15:16.704780,-0.3104408,1.5244426,1.8980943,-1.2846496,-0.9151525,1.9754618
656,2024-05-15 22:15:16.721713,0.029774986,1.2752296,2.3759582,-0.36896262,-1.1161271,1.6138296
657,2024-05-15 22:15:16.737687,0.019280521,1.1407541,2.4779742,-0.36896262,-1.1161271,1.6138296
658,2024-05-15 22:15:16.754264,-0.17157225,0.999689,2.3098187,2.8093693,-1.2468523,0.1782963
659,2024-05-15 22:15:16.771427,-0.5225571,0.8522784,2.003039,2.9126055,-1.3397038,0.15630515
660,2024-05-15 22:15:16.788100,-0.7934606,0.6990105,1.6059577,3.4373388,-2.5284476,0.3047454
661,2024-05-15 22:15:16.805739,-0.7707633,0.57673776,1.4992741,3.6010506,-3.129539,0.40187296
662,2024-05-15 22:15:16.821434,-0.7431848,0.34168017,1.5420147,3.803247,-3.2083406,0.31940615
663,2024-05-15 22:15:16.838089,-0.7922403,-0.004881145,1.6132795,4.7470336,-2.8161652,-0.11614075
664,2024-05-15 22:15:16.854429,-1.0587507,-0.37218732,1.5442113,5.009706,-2.5699863,-0.26763535
665,2024-05-15 22:15:16.871372,-1.131968,-0.43320164,1.5149243,5.6059103,-2.0037143,-0.6127742
666,2024-05-15 22:15:16.887936,-1.5417707,-0.74660164,1.1915181,5.9449406,-1.6280322,-0.7221191
667,2024-05-15 22:15:16.904342,-1.7079737,-0.9623482,0.78296614,5.6865444,-1.5718327,-0.509538
668,2024-05-15 22:15:16.921380,-1.7057772,-1.1034133,0.5823511,4.607146,-1.470429,0.05795584
669,2024-05-15 22:15:16.938012,-1.5317643,-1.336244,0.41684976,3.0573804,-1.2975541,0.7592291
670,2024-05-15 22:15:16.955013,-1.1285512,-1.5510448,0.45052966,1.7403551,-1.2328024,1.2821298
671,2024-05-15 22:15:16.971340,-0.83226573,-1.6308515,0.3607166,1.2412782,-1.3671927,1.308397
672,2024-05-15 22:15:16.988041,-0.547695,-1.6686803,0.11373068,0.47342056,-1.6591864,1.0292315
673,2024-05-15 22:15:17.004155,-0.19280522,-1.4997928,-0.36364532,-0.68416905,-1.5229634,0.45990518
674,2024-05-15 22:15:17.021215,-0.065407336,-1.4236165,-0.4846977,-1.3109168,-1.1955396,0.12759447
675,2024-05-15 22:15:17.037987,0.039781332,-1.306713,-0.55818945,-2.143526,-0.5217553,-0.37881282
676,2024-05-15 22:15:17.054625,0.039781332,-1.306713,-0.55818945,-2.143526,-0.5217553,-0.37881282
677,2024-05-15 22:15:17.071303,0.039781332,-1.306713,-0.55818945,-2.143526,-0.5217553,-0.37881282
678,2024-05-15 22:15:17.087955,0.039781332,-1.306713,-0.55818945,-2.143526,-0.5217553,-0.37881282
679,2024-05-15 22:15:17.104638,0.039781332,-1.306713,-0.55818945,-2.143526,-0.5217553,-0.37881282
680,2024-05-15 22:15:17.121296,0.039781332,-1.306713,-0.55818945,-2.143526,-0.5217553,-0.37881282
681,2024-05-15 22:15:17.137975,0.039781332,-1.306713,-0.55818945,-2.143526,-0.5217553,-0.37881282
682,2024-05-15 22:15:17.154619,0.039781332,-1.306713,-0.55818945,-2.143526,-0.5217553,-0.37881282
683,2024-05-15 22:15:17.171857,-1.4365515,0.62750167,1.6945505,-3.9150352,1.7170658,-1.4227815
684,2024-05-15 22:15:17.187437,-1.2942661,0.7680787,1.8265854,-3.866777,1.1355221,-0.7599927
685,2024-05-15 22:15:17.204254,-0.87229115,0.9562468,1.7521479,-3.50881,0.8966738,-0.20288362
686,2024-05-15 22:15:17.221278,-0.72024345,1.0494766,1.7828993,-3.3933563,0.88689995,-0.114308156
687,2024-05-15 22:15:17.238541,-0.6348234,1.2825513,1.9608169,-2.764776,0.79771364,0.13920091
688,2024-05-15 22:15:17.254607,-0.6555683,1.3096417,1.9798535,-2.557082,0.75373137,0.23816109
689,2024-05-15 22:15:17.271270,-0.7265889,1.3999429,1.9754603,-2.0555615,0.4537965,0.55703276
690,2024-05-15 22:15:17.288054,-0.5391529,1.5263951,1.6877168,-1.6035212,-0.57184625,1.3328316
691,2024-05-15 22:15:17.304468,-0.25821257,1.4460697,1.8258532,-1.3616186,-1.2059244,1.5423584
692,2024-05-15 22:15:17.321244,-0.14423785,1.4065324,2.0830896,-0.6945538,-1.2664,1.4232397
693,2024-05-15 22:15:17.337720,-0.20134723,1.323797,2.1589913,0.67011917,-1.239522,1.0231229
694,2024-05-15 22:15:17.354038,-0.5042528,1.2112865,1.858801,1.8032742,-1.4850898,0.88934344
695,2024-05-15 22:15:17.371234,-0.5911371,1.1654038,1.7333556,2.039679,-1.7056121,0.9510408
696,2024-05-15 22:15:17.387691,-0.6675271,0.9638126,1.5427469,2.3780985,-2.3714552,1.1123092
697,2024-05-15 22:15:17.404407,-0.6633781,0.83128947,1.5168768,2.629164,-2.7208703,1.0371728
698,2024-05-15 22:15:17.421229,-0.6750929,0.6028519,1.6035172,3.1532865,-2.9792662,0.78183115
699,2024-05-15 22:15:17.438895,-0.8010264,0.23185438,1.7343318,4.517959,-2.5119543,0.29130638
700,2024-05-15 22:15:17.454883,-1.0074989,-0.09689073,1.5159005,4.8942523,-2.3622923,0.1642464
701,2024-05-15 22:15:17.471157,-1.1290393,-0.25259924,1.3921331,5.713423,-1.9120846,-0.106977776
702,2024-05-15 22:15:17.487846,-1.2742534,-0.50034785,1.1995718,5.88813,-1.5718327,-0.22670737
703,2024-05-15 22:15:17.505063,-1.4612013,-0.8896192,0.9679615,5.416542,-1.1405618,-0.1417971
704,2024-05-15 22:15:17.521182,-1.4817021,-0.9730868,0.9081675,5.312084,-1.0880274,-0.114308156
705,2024-05-15 22:15:17.538316,-1.5180972,-1.2762059,0.6082212,4.35608,-0.70868003,0.22472206
706,2024-05-15 22:15:17.554081,-1.4299619,-1.362358,0.4915313,2.7782152,-0.20777054,0.87162834
707,2024-05-15 22:15:17.570312,-1.1607667,-1.4333787,0.4271002,2.4037547,-0.11797335,1.0115165
708,2024-05-15 22:15:17.587574,-0.8242119,-1.6049815,0.43539813,0.9957104,-0.04344779,1.3004557
709,2024-05-15 22:15:17.604394,-0.41294485,-1.5966836,0.23917611,-0.12461651,-0.53091824,0.98219496
710,2024-05-15 22:15:17.621149,-0.20061506,-1.468279,0.051740136,-0.77457714,-0.8161923,0.5857434
711,2024-05-15 22:15:17.638796,0.06443111,-1.1754103,-0.26504618,-2.085494,-0.37575847,-0.30734158
712,2024-05-15 22:15:17.654327,0.06028214,-1.1129316,-0.30287504,-2.375044,-0.1399645,-0.5211444
713,2024-05-15 22:15:17.671111,-0.102259986,-1.0428871,-0.27895743,-3.169169,0.7861072,-1.0892491
714,2024-05-15 22:15:17.687782,-0.102259986,-1.0428871,-0.27895743,-3.169169,0.7861072,-1.0892491
715,2024-05-15 22:15:17.704432,-0.102259986,-1.0428871,-0.27895743,-3.169169,0.7861072,-1.0892491
716,2024-05-15 22:15:17.721081,-0.102259986,-1.0428871,-0.27895743,-3.169169,0.7861072,-1.0892491
717,2024-05-15 22:15:17.737738,-0.102259986,-1.0428871,-0.27895743,-3.169169,0.7861072,-1.0892491
718,2024-05-15 22:15:17.754419,-0.102259986,-1.0428871,-0.27895743,-3.169169,0.7861072,-1.0892491
719,2024-05-15 22:15:17.771079,-0.102259986,-1.0428871,-0.27895743,-3.169169,0.7861072,-1.0892491
720,2024-05-15 22:15:17.787731,-0.102259986,-1.0428871,-0.27895743,-3.169169,0.7861072,-1.0892491
721,2024-05-15 22:15:17.804447,-0.102259986,-1.0428871,-0.27895743,-3.169169,0.7861072,-1.0892491
722,2024-05-15 22:15:17.821084,-0.102259986,-1.0428871,-0.27895743,-3.169169,0.7861072,-1.0892491
723,2024-05-15 22:15:17.837617,-1.7514158,1.425813,2.4391692,-3.753767,1.8465693,-1.9206367
724,2024-05-15 22:15:17.853915,-1.6596503,1.6528167,2.6507971,-3.1917708,1.8007544,-1.6176475
725,2024-05-15 22:15:17.870495,-1.3679714,1.9954731,2.6627562,-2.235767,0.9394344,-1.0678688
726,2024-05-15 22:15:17.887686,-1.2378888,2.0347662,2.5788004,-1.7684549,0.045738537,-0.6659195
727,2024-05-15 22:15:17.904407,-1.0441074,2.0782084,2.311283,-1.0543534,-1.1698833,0.20761782
728,2024-05-15 22:15:17.921055,-0.8098125,2.029397,2.1143289,-0.7263188,-1.5889368,0.5600871
729,2024-05-15 22:15:17.938119,-0.6445857,1.9625254,1.990592,-0.35185838,-1.9218584,0.81848305
730,2024-05-15 22:15:17.954120,-0.6445857,1.9625254,1.990592,-0.35185838,-1.9218584,0.81848305
731,2024-05-15 22:15:17.971534,-0.47810817,1.3750491,1.726278,2.329229,-1.9304105,0.7048621
732,2024-05-15 22:15:17.987642,-0.84715325,1.1007288,1.3626021,3.2711835,-2.2217932,0.95959294
733,2024-05-15 22:15:18.004741,-0.95331806,0.9477048,1.323797,3.4917057,-2.3659575,1.1801153
734,2024-05-15 22:15:18.020514,-1.0672928,0.8349504,1.340393,3.6816847,-2.4966826,1.3016775
735,2024-05-15 22:15:18.037917,-1.1651597,0.65922916,1.4802377,4.117232,-2.6610053,1.4317918
736,2024-05-15 22:15:18.053857,-1.2393532,0.31068486,1.5600749,4.836831,-2.5999188,1.5881733
737,2024-05-15 22:15:18.071462,-1.2393532,0.31068486,1.5600749,4.836831,-2.5999188,1.5881733
738,2024-05-15 22:15:18.088283,-1.3242851,-0.12910628,1.6435426,5.6547794,-2.0892355,1.6242143
739,2024-05-15 22:15:18.104270,-1.3596735,-0.36974674,1.577647,5.970597,-1.8503872,1.6468164
740,2024-05-15 22:15:18.120768,-1.3799303,-0.81347334,1.3743168,5.8685822,-1.5645022,1.539915
741,2024-05-15 22:15:18.137565,-1.3804183,-0.914513,1.3228208,5.3401837,-1.2584587,1.2747995
742,2024-05-15 22:15:18.153861,-1.7213968,-1.306713,0.9091437,3.5741725,-0.6708064,1.5197563
743,2024-05-15 22:15:18.170973,-1.7213968,-1.306713,0.9091437,3.5741725,-0.6708064,1.5197563
744,2024-05-15 22:15:18.188019,-1.3767574,-1.7738692,0.71560633,1.2095132,-1.017167,2.6339746
745,2024-05-15 22:15:18.204252,-0.8437364,-2.186082,0.6860754,0.100792766,-1.8882608,2.4391086
746,2024-05-15 22:15:18.221288,-0.17718557,-2.1423955,0.43320164,-0.10567969,-2.1967478,1.0994811
747,2024-05-15 22:15:18.237071,-0.012446919,-1.9534953,-0.27139166,-0.35185838,-1.4142294,0.051236324
748,2024-05-15 22:15:18.254295,-0.061014313,-1.7333556,-0.67167604,-0.9663888,-0.67630416,-0.43379068
749,2024-05-15 22:15:18.270920,-0.29482117,-1.4348431,-0.8710708,-2.8680124,0.8270352,-0.9689086
750,2024-05-15 22:15:18.286987,-0.50742555,-1.2827954,-0.422219,-4.2106943,1.829465,-1.2773956
751,2024-05-15 22:15:18.302604,-0.7195113,-1.0563103,0.16644704,-4.7036624,2.7085001,-1.483868
752,2024-05-15 22:15:18.320306,-0.7195113,-1.0563103,0.16644704,-4.8166723,3.158097,-1.5602262
753,2024-05-15 22:15:18.337221,-0.7195113,-1.0563103,0.16644704,-4.8166723,3.158097,-1.5602262
754,2024-05-15 22:15:18.353867,-0.7195113,-1.0563103,0.16644704,-4.8166723,3.158097,-1.5602262
755,2024-05-15 22:15:18.370531,-0.7195113,-1.0563103,0.16644704,-4.8166723,3.158097,-1.5602262
756,2024-05-15 22:15:18.387205,-0.7195113,-1.0563103,0.16644704,-4.8166723,3.158097,-1.5602262
757,2024-05-15 22:15:18.403872,-0.7195113,-1.0563103,0.16644704,-4.8166723,3.158097,-1.5602262
758,2024-05-15 22:15:18.420866,-0.7195113,-1.0563103,0.16644704,-4.8166723,3.158097,-1.5602262
759,2024-05-15 22:15:18.437537,-0.7195113,-1.0563103,0.16644704,-4.8166723,3.158097,-1.5602262
760,2024-05-15 22:15:18.453849,-0.61114985,1.7519039,2.1079836,-3.3414328,-0.07032586,0.08055785
761,2024-05-15 22:15:18.470060,-0.4566311,2.0198789,2.0184143,-2.4654522,-0.3403283,0.5606979
762,2024-05-15 22:15:18.483621,-0.32557237,2.0223193,1.8351275,-1.9315559,-0.5620724,0.85513496
763,2024-05-15 22:15:18.503920,-0.15888128,1.9552035,1.7218848,-1.3176364,-0.91026556,1.1514046
764,2024-05-15 22:15:18.520866,0.030751213,1.7999833,1.8260972,-0.47647488,-1.0959686,1.1758392
765,2024-05-15 22:15:18.537460,0.06613952,1.7240813,1.8788137,-0.13255776,-1.1087968,1.076879
766,2024-05-15 22:15:18.554617,0.05906185,1.4331347,2.037451,1.2791518,-1.02633,0.45135304
767,2024-05-15 22:15:18.570317,-0.27554062,1.1295274,1.7421416,2.987742,-1.0556515,-0.1521818
768,2024-05-15 22:15:18.586956,-0.55696917,1.0751027,1.5312762,3.3163874,-1.2260829,-0.13019066
769,2024-05-15 22:15:18.604727,-0.7995621,0.9113403,1.1771187,3.414126,-1.7795268,0.14592044
770,2024-05-15 22:15:18.620827,-0.7612451,0.7151182,1.2366686,3.676187,-1.9988275,0.3395647
771,2024-05-15 22:15:18.636963,-0.735375,0.6262814,1.2476511,4.274835,-1.6042085,0.29497156
772,2024-05-15 22:15:18.654125,-0.7087728,0.34460884,1.3186718,4.5485024,-1.4185054,0.24304801
773,2024-05-15 22:15:18.670921,-0.7851626,0.041977845,1.1973754,5.186246,-0.9340893,0.1782963
774,2024-05-15 22:15:18.687415,-0.8278727,-0.07297312,1.1439269,5.254663,-0.80336416,0.20883955
775,2024-05-15 22:15:18.704086,-0.9538062,-0.57698184,0.94916916,5.0353622,-0.3843106,0.46051604
776,2024-05-15 22:15:18.720756,-0.8349504,-1.2103103,0.9157333,4.2479568,0.035353824,0.39271
777,2024-05-15 22:15:18.738517,-0.80761594,-1.3460063,0.9193942,3.971235,0.17524196,0.21739167
778,2024-05-15 22:15:18.753802,-0.98016447,-1.7328674,0.84812945,2.7733283,0.7861072,0.10743593
779,2024-05-15 22:15:18.770731,-0.9894386,-2.1489851,0.8039551,1.0207558,1.0414488,1.0017426
780,2024-05-15 22:15:18.787400,-0.45370242,-2.3810835,0.76588213,-0.3744604,0.24182628,1.1972195
781,2024-05-15 22:15:18.804330,0.20159128,-2.2378218,0.6577648,-1.4184291,-0.83146393,0.1483639
782,2024-05-15 22:15:18.820721,0.15692882,-1.7919292,0.4834774,-2.198504,-0.5437464,-1.3458124
783,2024-05-15 22:15:18.837446,-0.011714748,-1.6733174,0.46590528,-2.4379632,-0.1399645,-1.7624226
784,2024-05-15 22:15:18.854058,-0.65117526,-1.2522882,0.42587993,-2.9889636,0.80321145,-2.2126303
785,2024-05-15 22:15:18.870759,-1.0260471,-0.8222594,0.41465324,-4.0054436,1.1141418,-2.095344
786,2024-05-15 22:15:18.888273,-1.0912105,-0.74172044,0.4742032,-4.2168026,1.1434634,-2.0367012
787,2024-05-15 22:15:18.904802,-1.319404,-0.0993313,1.306957,-4.880813,1.933923,-1.5687783
788,2024-05-15 22:15:18.920675,-1.4392362,0.153512,1.5854568,-4.6718974,2.255238,-1.461266
789,2024-05-15 22:15:18.936870,-1.5393301,0.45345837,1.7472668,-4.237572,2.1483366,-1.3128258
790,2024-05-15 22:15:18.954001,-1.5835044,0.76368564,1.5317643,-3.8093557,1.4934891,-0.8888853
791,2024-05-15 22:15:18.970664,-1.5835044,0.76368564,1.5317643,-3.8093557,1.4934891,-0.8888853
792,2024-05-15 22:15:18.987328,-1.5835044,0.76368564,1.5317643,-3.8093557,1.4934891,-0.8888853
793,2024-05-15 22:15:19.003990,-1.5835044,0.76368564,1.5317643,-3.8093557,1.4934891,-0.8888853
794,2024-05-15 22:15:19.020882,-1.5835044,0.76368564,1.5317643,-3.8093557,1.4934891,-0.8888853
795,2024-05-15 22:15:19.037489,-1.5835044,0.76368564,1.5317643,-3.8093557,1.4934891,-0.8888853
796,2024-05-15 22:15:19.054116,-1.5835044,0.76368564,1.5317643,-3.8093557,1.4934891,-0.8888853
797,2024-05-15 22:15:19.069741,-1.5835044,0.76368564,1.5317643,-3.8093557,1.4934891,-0.8888853
798,2024-05-15 22:15:19.086488,-0.2672427,1.7553208,2.1633844,-0.68477994,0.57108265,0.95043
799,2024-05-15 22:15:19.104672,-0.2672427,1.7553208,2.1633844,-0.68477994,0.57108265,0.95043
800,2024-05-15 22:15:19.120284,-0.19304928,1.3037844,2.1392229,1.6224581,-1.0739775,0.32734743
801,2024-05-15 22:15:19.136937,-0.383658,1.1234261,2.0169501,2.4911084,-0.98112595,-0.019624045
802,2024-05-15 22:15:19.153608,-0.5359802,1.0438634,1.9286014,2.7690523,-1.0764209,-0.06849326
803,2024-05-15 22:15:19.170637,-0.8117649,0.9318411,1.7648389,3.169169,-1.670182,0.10560333
804,2024-05-15 22:15:19.187017,-0.8981612,0.8432483,1.6781986,3.2265902,-1.8681023,0.188681
805,2024-05-15 22:15:19.203917,-0.8669218,0.74367297,1.6308515,3.3396003,-2.249893,0.35850155
806,2024-05-15 22:15:19.220597,-0.7741801,0.51669973,1.7326233,3.9553525,-2.5999188,0.53015465
807,2024-05-15 22:15:19.237061,-0.79102004,0.2762728,1.7704523,4.9021935,-2.2297344,0.2167808
808,2024-05-15 22:15:19.253974,-0.8532546,0.19768637,1.735308,5.208848,-2.1020637,0.1782963
809,2024-05-15 22:15:19.270570,-0.9821169,-0.122272685,1.3843232,5.8325415,-1.8772652,0.25343272
810,2024-05-15 22:15:19.287537,-0.99700433,-0.19060871,1.3306307,5.837428,-1.8345047,0.30841058
811,2024-05-15 22:15:19.303902,-1.0074989,-0.658497,1.2869444,5.6022453,-1.4875332,0.31390837
812,2024-05-15 22:15:19.320558,-1.1419744,-1.1541772,1.3150109,5.304754,-0.51870096,0.010308351
813,2024-05-15 22:15:19.337870,-1.3525957,-1.4014072,1.1556416,4.5900416,-0.045280386,0.018860465
814,2024-05-15 22:15:19.353896,-1.4040918,-1.4641299,1.089258,4.2497897,-0.039171733,0.24976753
815,2024-05-15 22:15:19.370580,-1.2332518,-1.8024237,0.66362214,2.588847,-0.6146068,1.1123092
816,2024-05-15 22:15:19.387926,-0.5467188,-2.0774763,0.38146147,0.5516113,-1.7147751,1.2149346
817,2024-05-15 22:15:19.403586,-0.27480847,-2.0364747,0.2762728,-0.19364429,-1.9438496,0.7964919
818,2024-05-15 22:15:19.421407,0.05832968,-1.7436061,-0.12398108,-1.1588113,-1.316491,-0.094149604
819,2024-05-15 22:15:19.437013,0.07541369,-1.4067765,-0.417826,-2.0561724,-0.0092393365,-0.7832056
820,2024-05-15 22:15:19.453820,0.0019524579,-1.2725451,-0.46590528,-2.723848,0.9394344,-1.2725086
821,2024-05-15 22:15:19.470479,-0.22062775,-1.1312358,-0.39708114,-3.481932,1.8123609,-1.8717675
822,2024-05-15 22:15:19.486823,-0.7102371,-0.9489251,-0.12544543,-4.5802674,2.5661685,-2.5009587
823,2024-05-15 22:15:19.503827,-1.1758983,-0.7754004,0.3380193,-5.1526484,3.1373274,-2.5333345
824,2024-05-15 22:15:19.520453,-1.564712,-0.3939084,1.1502724,-5.4880133,3.6822193,-2.1069505
825,2024-05-15 22:15:19.537108,-1.619625,-0.11519502,1.4921966,-5.4922895,2.9375746,-1.7385988
826,2024-05-15 22:15:19.553809,-1.5876534,-0.0053692595,1.5239545,-5.4812937,2.5350144,-1.6384169
827,2024-05-15 22:15:19.570468,-1.3020759,0.45589894,1.7140751,-5.440366,1.7561612,-1.3366495
828,2024-05-15 22:15:19.587566,-1.2161677,0.7553877,2.1343417,-4.788573,1.8398497,-1.2132547
829,2024-05-15 22:15:19.603750,-1.2161677,0.7553877,2.1343417,-4.788573,1.8398497,-1.2132547
830,2024-05-15 22:15:19.620543,-1.2161677,0.7553877,2.1343417,-4.788573,1.8398497,-1.2132547
831,2024-05-15 22:15:19.637090,-1.2161677,0.7553877,2.1343417,-4.788573,1.8398497,-1.2132547
832,2024-05-15 22:15:19.653773,-1.2161677,0.7553877,2.1343417,-4.788573,1.8398497,-1.2132547
833,2024-05-15 22:15:19.670447,-1.2161677,0.7553877,2.1343417,-4.788573,1.8398497,-1.2132547
834,2024-05-15 22:15:19.687082,-1.2161677,0.7553877,2.1343417,-4.788573,1.8398497,-1.2132547
835,2024-05-15 22:15:19.703741,-1.2161677,0.7553877,2.1343417,-4.788573,1.8398497,-1.2132547
836,2024-05-15 22:15:19.720475,-1.2161677,0.7553877,2.1343417,-4.788573,1.8398497,-1.2132547
837,2024-05-15 22:15:19.737717,-0.54964745,1.3281901,2.1409314,1.3884968,-1.4038447,0.27175868
838,2024-05-15 22:15:19.753267,-0.51621157,1.2608302,2.105543,1.6823229,-1.479592,0.22594379
839,2024-05-15 22:15:19.770398,-0.5206046,1.0711977,1.9700912,2.5949554,-1.4722615,-0.07338019
840,2024-05-15 22:15:19.786456,-0.8093243,0.93110895,1.8055965,3.3609805,-1.593213,-0.16500998
841,2024-05-15 22:15:19.803721,-0.8910835,0.8808331,1.7438501,3.532023,-1.7098882,-0.088040955
842,2024-05-15 22:15:19.820400,-1.0155526,0.6231087,1.4463137,3.8386772,-2.5705974,0.38171443
843,2024-05-15 22:15:19.836827,-0.9198823,0.34460884,1.5227342,4.1850376,-2.8870256,0.4733442
844,2024-05-15 22:15:19.853238,-0.87277925,0.24259292,1.5803317,4.428162,-2.8314369,0.39820778
845,2024-05-15 22:15:19.870378,-0.9220788,-0.13179092,1.6801511,5.6596665,-2.0990093,0.041462477
846,2024-05-15 22:15:19.887059,-1.0399585,-0.32923323,1.6152319,6.6425486,-1.3012193,-0.064828075
847,2024-05-15 22:15:19.903943,-1.4707196,-0.90694726,1.1356289,6.8239756,-0.9866237,0.11415544
848,2024-05-15 22:15:19.919882,-1.6672161,-1.2928017,0.8696065,6.182567,-0.6482044,0.5435937
849,2024-05-15 22:15:19.936779,-1.6528167,-1.637197,0.5459866,4.5619416,-0.6268241,0.8966738
850,2024-05-15 22:15:19.953669,-1.603029,-1.6977232,0.49201941,3.9174788,-0.6286567,1.0848203
851,2024-05-15 22:15:19.970308,-1.0987762,-2.1585033,0.6453179,1.5198327,-0.40996695,1.6089427
852,2024-05-15 22:15:19.986702,-0.61237013,-2.2917585,0.58650005,0.65118235,-0.81374884,1.2864058
853,2024-05-15 22:15:20.003157,-0.48445365,-2.2929788,0.4795725,0.40622538,-1.0843621,0.9931905
854,2024-05-15 22:15:20.021403,0.08517598,-1.9476379,-0.26480213,-0.82344633,-1.0446559,-0.41668645
855,2024-05-15 22:15:20.036957,0.20647243,-1.6457391,-0.58503574,-2.4049764,0.2674826,-1.7526487
856,2024-05-15 22:15:20.053173,-0.3568117,-1.4660825,-0.30238694,-3.1257975,1.0396163,-2.4123833
857,2024-05-15 22:15:20.070296,-0.5611181,-1.3823708,-0.19890666,-3.8240163,1.9162079,-3.0464613
858,2024-05-15 22:15:20.086834,-1.2217811,-1.1929823,0.12398108,-4.3982296,2.3957372,-3.3354006
859,2024-05-15 22:15:20.103652,-1.4582726,-1.0218983,0.24845028,-4.592485,2.4531584,-3.2639294
860,2024-05-15 22:15:20.120407,-1.8658786,-0.4949481,0.6233527,-4.6718974,2.8019626,-3.0415745
861,2024-05-15 22:15:20.136945,-2.0872386,-0.070532545,0.9467286,-4.77941,3.9283981,-2.3238077
862,2024-05-15 22:15:20.153618,-2.0782084,0.045638707,1.0309283,-4.8624873,4.018806,-2.190639
863,2024-05-15 22:15:20.170280,-1.8702717,0.27407628,1.6047374,-5.7720656,2.8477774,-1.5400677
864,2024-05-15 22:15:20.187215,-1.5549498,0.42270714,2.1060312,-5.6401186,1.7097355,-1.3085498
865,2024-05-15 22:15:20.203064,-1.2923136,0.4834774,2.269061,-5.0756793,1.2955688,-1.2523501
866,2024-05-15 22:15:20.220234,-1.1932263,0.59919107,2.3988998,-3.74888,1.3920856,-1.0764209
867,2024-05-15 22:15:20.234436,-1.1932263,0.59919107,2.3988998,-3.74888,1.3920856,-1.0764209
868,2024-05-15 22:15:20.253377,-1.1932263,0.59919107,2.3988998,-3.74888,1.3920856,-1.0764209
869,2024-05-15 22:15:20.270234,-1.1932263,0.59919107,2.3988998,-3.74888,1.3920856,-1.0764209
870,2024-05-15 22:15:20.286873,-1.1932263,0.59919107,2.3988998,-3.74888,1.3920856,-1.0764209
871,2024-05-15 22:15:20.303526,-1.1932263,0.59919107,2.3988998,-3.74888,1.3920856,-1.0764209
872,2024-05-15 22:15:20.320214,-1.1932263,0.59919107,2.3988998,-3.74888,1.3920856,-1.0764209
873,2024-05-15 22:15:20.336883,-1.1932263,0.59919107,2.3988998,-3.74888,1.3920856,-1.0764209
874,2024-05-15 22:15:20.353526,-1.1932263,0.59919107,2.3988998,-3.74888,1.3920856,-1.0764209
875,2024-05-15 22:15:20.370182,-1.1932263,0.59919107,2.3988998,-3.74888,1.3920856,-1.0764209
876,2024-05-15 22:15:20.386312,-0.4566311,0.7836983,1.3779777,-2.4984388,0.44219008,-0.41668645
877,2024-05-15 22:15:20.403548,-1.0502088,1.0558221,2.0098724,2.3414464,-1.8064048,-0.38675407
878,2024-05-15 22:15:20.420207,-1.2691282,0.91036403,1.7235934,3.3011158,-2.1087832,-0.35132387
879,2024-05-15 22:15:20.437362,-1.2691282,0.91036403,1.7235934,3.4715471,-1.9884428,-0.34399348
880,2024-05-15 22:15:20.453514,-1.6828357,0.75514364,2.5248637,4.2998805,-0.85528773,-0.29206994
881,2024-05-15 22:15:20.470133,-2.1641166,0.54964745,2.8787467,5.7036486,-0.48510337,0.27175868
882,2024-05-15 22:15:20.486544,-2.4757776,-0.20866893,1.8419611,7.0823717,-2.9090166,1.5631278
883,2024-05-15 22:15:20.502991,-2.263448,-0.41294485,1.2928017,6.903388,-3.9835286,1.9412534
884,2024-05-15 22:15:20.520199,-1.7448263,-1.0282438,0.7165826,6.1440825,-4.648761,2.219197
885,2024-05-15 22:15:20.536805,-1.5586106,-1.2920696,0.79077595,5.955325,-3.8723512,2.224084
886,2024-05-15 22:15:20.554010,-1.2845038,-1.607178,0.97235465,6.192341,-2.2786038,1.9583576
887,2024-05-15 22:15:20.570153,-1.4001869,-2.0467253,0.54305786,6.051842,-0.71356696,1.475774
888,2024-05-15 22:15:20.586291,-1.4497305,-2.1175015,0.31068486,5.3542337,-0.46555567,1.5087608
889,2024-05-15 22:15:20.603143,-1.4441173,-2.1970644,-0.009274175,3.6480873,-0.3000112,1.8086957
890,2024-05-15 22:15:20.620137,-1.029464,-2.3940187,-0.21477039,0.1777618,-0.5968917,2.554562
891,2024-05-15 22:15:20.636290,-0.25211114,-2.526572,-0.06467517,-0.9334021,-0.8864418,2.527684
892,2024-05-15 22:15:20.653449,0.05051985,-2.4830995,-0.08615221,-2.1105394,-1.1362857,1.3658184
893,2024-05-15 22:15:20.671140,0.30165476,-2.2744305,-0.44882128,-2.6175575,-0.27130052,0.026801713
894,2024-05-15 22:15:20.686671,0.028066583,-2.1799805,-0.67069983,-3.385415,1.0548879,-0.9915106
895,2024-05-15 22:15:20.703428,-0.735375,-1.8990705,-0.50693744,-4.6835036,3.3969452,-1.6139823
896,2024-05-15 22:15:20.720095,-1.3975023,-1.7702082,0.06858008,-5.71892,4.698088,-1.8094592
897,2024-05-15 22:15:20.736773,-1.5583665,-1.6662399,0.55745727,-6.396981,4.5252132,-2.1161137
898,2024-05-15 22:15:20.753163,-1.5654442,-1.5695932,0.7763766,-6.603453,4.2417717,-2.4606416
899,2024-05-15 22:15:20.770098,-2.1421516,-1.2710807,1.4482661,-6.427524,4.512996,-2.5284476
900,2024-05-15 22:15:20.786720,-2.1755872,-0.6890041,1.9149342,-6.17768,5.86423,-2.0134883
901,2024-05-15 22:15:20.803403,-2.135562,-0.5664874,2.446979,-6.413474,4.712749,-1.8497763
902,2024-05-15 22:15:20.820082,-1.8849151,-0.39146784,2.6939955,-6.170961,2.9021444,-1.9126954
903,2024-05-15 22:15:20.836739,-1.6723412,0.009518232,3.0908325,-5.529552,2.3768003,-1.7587574
904,2024-05-15 22:15:20.852859,-1.7077297,0.15619664,3.2663097,-5.0439143,2.495919,-1.5590044
905,2024-05-15 22:15:20.870036,-1.5119957,0.5108423,3.051295,-3.8734965,1.7140115,-0.87055933
906,2024-05-15 22:15:20.886682,-1.5119957,0.5108423,3.051295,-3.8734965,1.7140115,-0.87055933
907,2024-05-15 22:15:20.903365,-1.5119957,0.5108423,3.051295,-3.8734965,1.7140115,-0.87055933
908,2024-05-15 22:15:20.919994,-1.5119957,0.5108423,3.051295,-3.8734965,1.7140115,-0.87055933
909,2024-05-15 22:15:20.936676,-1.5119957,0.5108423,3.051295,-3.8734965,1.7140115,-0.87055933
910,2024-05-15 22:15:20.953342,-0.5398851,1.538842,1.9261607,-1.8142698,-0.43806675,0.85269153
911,2024-05-15 22:15:20.970014,-0.5398851,1.538842,1.9261607,-1.8142698,-0.43806675,0.85269153
912,2024-05-15 22:15:20.986698,-0.5398851,1.538842,1.9261607,-1.8142698,-0.43806675,0.85269153
913,2024-05-15 22:15:21.003335,-0.5398851,1.538842,1.9261607,-1.8142698,-0.43806675,0.85269153
914,2024-05-15 22:15:21.019427,-0.7988299,1.2615625,1.9896158,2.652377,-1.7685312,0.63949955
915,2024-05-15 22:15:21.036580,-1.0255591,1.0045701,1.7453144,3.354872,-2.43132,0.7738899
916,2024-05-15 22:15:21.053331,-1.0675368,0.9345257,1.7638626,3.4538321,-2.6249642,0.8264243
917,2024-05-15 22:15:21.070014,-1.1636955,0.5235333,2.1995049,4.474588,-2.838767,0.8832348
918,2024-05-15 22:15:21.086121,-1.2090901,0.353883,2.306646,5.084842,-2.835713,0.80687666
919,2024-05-15 22:15:21.102773,-1.3892044,0.019036464,2.2614956,6.209445,-2.6164122,0.68042755
920,2024-05-15 22:15:21.119928,-1.7877804,-0.3397277,2.2900503,6.753115,-2.3897812,0.83741987
921,2024-05-15 22:15:21.136438,-2.064053,-0.9984687,2.2754068,7.0658784,-2.8515954,1.4201853
922,2024-05-15 22:15:21.152765,-2.1260436,-1.6659958,2.054535,7.1013083,-3.0263028,1.3896421
923,2024-05-15 22:15:21.169930,-2.1721706,-1.9830261,1.8734444,7.076263,-2.9639945,1.2974014
924,2024-05-15 22:15:21.186141,-2.0581958,-2.3508205,1.5022334,6.934542,-2.5479953,1.2521974
925,2024-05-15 22:15:21.203924,-1.7899768,-2.60345,1.0004212,5.7629027,-1.8290069,1.4293483
926,2024-05-15 22:15:21.219731,-1.391889,-2.7401223,0.23819989,4.8123965,-2.0220404,1.4696654
927,2024-05-15 22:15:21.236058,-1.2410617,-2.764284,-0.024405725,2.9633074,-2.5186737,1.3096187
928,2024-05-15 22:15:21.252734,-0.9035305,-2.7613552,-0.46102414,2.4740043,-2.5712082,1.1953869
929,2024-05-15 22:15:21.269525,-0.33411437,-2.5507338,-1.2200727,-0.4642576,-2.042199,0.3016911
930,2024-05-15 22:15:21.286539,-0.18621568,-2.4115906,-1.3010997,-1.4300356,-1.4588226,-0.17050776
931,2024-05-15 22:15:21.302713,-0.14204131,-2.3071342,-1.2930459,-1.9333885,-1.0507646,-0.46555567
932,2024-05-15 22:15:21.320791,-0.6548361,-1.850259,-0.74538136,-4.0805798,1.6254361,-1.9285779
933,2024-05-15 22:15:21.336082,-1.2332518,-1.5310321,-0.18279888,-5.1850243,2.890538,-2.4869087
934,2024-05-15 22:15:21.353202,-1.3772455,-1.4731601,-0.051252022,-5.416542,3.0408108,-2.5418866
935,2024-05-15 22:15:21.369611,-1.7340878,-1.3042724,0.4583395,-5.925393,3.275383,-2.508289
936,2024-05-15 22:15:21.386152,-1.837324,-0.94868106,1.0492326,-5.784283,3.7543015,-2.3824508
937,2024-05-15 22:15:21.402906,-1.9078566,-0.6113939,1.4411886,-5.8123827,3.988263,-2.344577
938,2024-05-15 22:15:21.419329,-1.9295776,-0.4229512,1.790221,-5.885687,3.8758636,-2.3036492
939,2024-05-15 22:15:21.435996,-1.7819229,0.27017137,2.589783,-5.032919,1.7641025,-1.6145931
940,2024-05-15 22:15:21.452623,-1.6005884,0.42734426,2.5373106,-4.6706758,1.3878095,-1.3678037
941,2024-05-15 22:15:21.469529,-1.302564,0.53524804,2.5931997,-4.097684,1.2143238,-1.1045207
942,2024-05-15 22:15:21.486248,-1.046304,0.86204064,2.6002774,-3.0653217,1.1905,-0.8803332
943,2024-05-15 22:15:21.503153,-1.046304,0.86204064,2.6002774,-3.0653217,1.1905,-0.8803332
944,2024-05-15 22:15:21.519828,-1.046304,0.86204064,2.6002774,-2.4911084,1.0102948,-0.69524103
945,2024-05-15 22:15:21.536504,-1.046304,0.86204064,2.6002774,-2.4911084,1.0102948,-0.69524103
946,2024-05-15 22:15:21.552796,-1.046304,0.86204064,2.6002774,-2.4911084,1.0102948,-0.69524103
947,2024-05-15 22:15:21.569789,-1.046304,0.86204064,2.6002774,-2.4911084,1.0102948,-0.69524103
948,2024-05-15 22:15:21.586444,-1.046304,0.86204064,2.6002774,-2.4911084,1.0102948,-0.69524103
949,2024-05-15 22:15:21.603105,-1.046304,0.86204064,2.6002774,-2.4911084,1.0102948,-0.69524103
950,2024-05-15 22:15:21.619792,-1.046304,0.86204064,2.6002774,-2.4911084,1.0102948,-0.69524103
951,2024-05-15 22:15:21.636427,-1.046304,0.86204064,2.6002774,-2.4911084,1.0102948,-0.69524103
952,2024-05-15 22:15:21.653101,-1.046304,0.86204064,2.6002774,-2.4911084,1.0102948,-0.69524103
953,2024-05-15 22:15:21.669753,-1.046304,0.86204064,2.6002774,-2.4911084,1.0102948,-0.69524103
954,2024-05-15 22:15:21.686410,-1.046304,0.86204064,2.6002774,-2.4911084,1.0102948,-0.69524103
955,2024-05-15 22:15:21.702474,-0.33631086,1.619625,1.8793018,-0.9224065,-0.81985754,1.3010666
956,2024-05-15 22:15:21.736541,-1.3245293,0.060770255,2.0071878,5.7262506,-1.3134366,1.2271519
957,2024-05-15 22:15:21.752481,-1.3928652,-0.13032657,2.0396473,6.0713897,-1.0965794,1.358488
958,2024-05-15 22:15:21.768856,-1.5957073,-0.47176263,2.0796728,6.3077946,-0.7184539,1.4721088
959,2024-05-15 22:15:21.785540,-2.0428202,-0.9581992,1.999866,6.246708,-0.49426633,1.6138296
960,2024-05-15 22:15:21.803733,-2.254662,-1.5954633,1.5537294,5.2509975,-0.6885215,2.1678843
961,2024-05-15 22:15:21.819363,-1.8988264,-2.0442846,1.1949348,3.6102135,-1.1368966,2.6064856
962,2024-05-15 22:15:21.836016,-1.5063823,-2.2868774,1.0455717,2.7415633,-1.4740942,2.6028204
963,2024-05-15 22:15:21.852685,-1.0787636,-2.4633307,0.87961286,1.7977765,-1.8228983,2.0371592
964,2024-05-15 22:15:21.869621,-0.66899145,-2.4194005,0.2506468,1.073901,-1.6365844,1.0041862
965,2024-05-15 22:15:21.886287,-0.37145513,-2.1499612,-0.17328064,-0.07513642,-0.82046837,-0.04466952
966,2024-05-15 22:15:21.902968,-0.13276714,-1.6977232,-0.49250755,-1.0830641,-0.43806675,-0.9200394
967,2024-05-15 22:15:21.919625,-0.14350566,-1.5300559,-0.54086137,-1.6328428,-0.22487476,-1.5266286
968,2024-05-15 22:15:21.935958,-0.5445222,-1.1385576,-0.63848424,-2.5619688,0.99991006,-2.6921594
969,2024-05-15 22:15:21.952506,-0.80639565,-1.1060979,-0.6787537,-3.1306844,1.530752,-2.9279535
970,2024-05-15 22:15:21.969162,-1.255949,-0.8945003,-0.48103684,-4.183816,2.196595,-2.5034022
971,2024-05-15 22:15:21.987222,-1.2352042,-0.7343987,-0.13398743,-5.2381697,2.5093582,-1.9059759
972,2024-05-15 22:15:22.002853,-1.1473436,-0.67728937,0.25211114,-5.6101866,2.632753,-1.8326721
973,2024-05-15 22:15:22.020620,-1.2046971,-0.5926015,0.7878473,-5.799555,2.84961,-1.9126954
974,2024-05-15 22:15:22.036096,-1.5266391,-0.49812084,1.5246866,-5.687766,3.0383673,-2.031814
975,2024-05-15 22:15:22.052971,-1.6930863,-0.24552159,1.9278692,-4.7519207,2.2118666,-1.5889368
976,2024-05-15 22:15:22.070384,-1.4524152,-0.10006347,1.7436061,-4.3456955,2.0689242,-1.3555863
977,2024-05-15 22:15:22.086279,-1.4817021,-0.04490653,1.615964,-4.5252895,2.3792439,-1.2786173
978,2024-05-15 22:15:22.102954,-1.5307881,0.123004854,2.13605,-4.4269404,2.1880429,-1.0116692
979,2024-05-15 22:15:22.119619,-1.4792615,0.22404456,2.1958442,-4.2400155,1.9809597,-0.96096736
980,2024-05-15 22:15:22.136325,-1.5888737,0.8317776,2.6302965,-3.87594,1.5643495,-0.64148486
981,2024-05-15 22:15:22.152949,-1.3633343,1.2747415,2.6905787,-2.973081,0.8135961,-0.00496328
982,2024-05-15 22:15:22.169605,-1.3633343,1.2747415,2.6905787,-2.973081,0.8135961,-0.00496328
983,2024-05-15 22:15:22.186269,-1.3633343,1.2747415,2.6905787,-2.973081,0.8135961,-0.00496328
984,2024-05-15 22:15:22.202934,-1.3633343,1.2747415,2.6905787,-2.973081,0.8135961,-0.00496328
985,2024-05-15 22:15:22.219585,-1.3633343,1.2747415,2.6905787,-2.973081,0.8135961,-0.00496328
986,2024-05-15 22:15:22.236233,-1.3633343,1.2747415,2.6905787,-2.973081,0.8135961,-0.00496328
987,2024-05-15 22:15:22.252917,-1.3633343,1.2747415,2.6905787,-2.973081,0.8135961,-0.00496328
988,2024-05-15 22:15:22.269576,-1.3633343,1.2747415,2.6905787,-2.973081,0.8135961,-0.00496328
989,2024-05-15 22:15:22.285679,-0.26406994,1.1007288,1.5576344,3.5472944,-1.8772652,0.51121783
990,2024-05-15 22:15:22.302907,-0.55940974,0.6999867,1.692598,4.736038,-1.7056121,0.48311806
991,2024-05-15 22:15:22.320147,-0.55940974,0.6999867,1.692598,4.736038,-1.7056121,0.48311806
992,2024-05-15 22:15:22.336196,-0.93843067,0.26211748,1.739457,5.742133,-1.9078085,0.8038223
993,2024-05-15 22:15:22.352871,-1.2522882,-0.06638357,1.9132258,6.0665026,-1.9927188,1.1984413
994,2024-05-15 22:15:22.369882,-1.7409214,-0.73317844,2.1772957,6.2570925,-1.7734182,1.5900059
995,2024-05-15 22:15:22.386202,-1.9705791,-1.0655844,2.1855936,6.2992425,-1.6585755,1.820913
996,2024-05-15 22:15:22.403390,-2.1365383,-1.662823,1.6357325,5.743355,-1.9988275,2.282727
997,2024-05-15 22:15:22.419539,-2.1631403,-2.1882782,1.1119553,4.3267584,-2.0727422,2.568001
998,2024-05-15 22:15:22.436202,-2.1138408,-2.3110392,0.9362341,3.7403278,-2.1998022,2.6712375
999,2024-05-15 22:15:22.452871,-1.1236701,-2.7025373,0.4720067,1.7171422,-2.643901,2.7543151
