id,timestamp,acc_x,acc_y,acc_z,gyro_x,gyro_y,gyro_z
0,2024-05-15 22:08:54.338699,-0.19109683,0.504985,1.0333688,-0.024969118,-0.091095276,0.035124753
1,2024-05-15 22:08:54.350314,-0.20940112,0.5381767,1.0272675,0.22548564,0.34628424,0.20189096
2,2024-05-15 22:08:54.371939,-0.22355644,0.64385355,1.0231185,0.210214,0.283976,0.28985557
3,2024-05-15 22:08:54.385263,-0.22355644,0.64385355,1.0231185,0.210214,0.283976,0.28985557
4,2024-05-15 22:08:54.401487,-0.22355644,0.64385355,1.0231185,0.210214,0.283976,0.28985557
5,2024-05-15 22:08:54.421893,-0.22355644,0.64385355,1.0231185,0.210214,0.283976,0.28985557
6,2024-05-15 22:08:54.435281,-0.22355644,0.64385355,1.0231185,0.210214,0.283976,0.28985557
7,2024-05-15 22:08:54.451247,-0.22355644,0.64385355,1.0231185,0.210214,0.283976,0.28985557
8,2024-05-15 22:08:54.472854,-0.22355644,0.64385355,1.0231185,0.210214,0.283976,0.28985557
9,2024-05-15 22:08:54.492556,-0.22355644,0.64385355,1.0231185,0.210214,0.283976,0.28985557
10,2024-05-15 22:08:54.504326,-0.8010264,1.3638223,1.4448494,1.5180765,1.2302063,3.583641
11,2024-05-15 22:08:54.519800,-0.73000574,1.3059808,1.5383539,1.7257707,1.362764,3.6752708
12,2024-05-15 22:08:54.533774,-0.7102371,1.2705926,1.5778911,1.9835558,1.5460236,3.7125335
13,2024-05-15 22:08:54.550770,-0.79126406,1.1390457,1.5512888,2.5119543,1.969964,3.8127155
14,2024-05-15 22:08:54.566841,-0.7785731,1.0746145,1.628655,2.6884942,2.4036784,3.9739838
15,2024-05-15 22:08:54.583510,-0.70340353,0.9721105,1.9244524,3.2352188,4.188016,4.2659774
16,2024-05-15 22:08:54.599329,-0.7336666,0.6924209,1.722617,4.071493,4.6284494,4.630664
17,2024-05-15 22:08:54.616457,-0.46444094,0.6667949,1.522246,3.9254963,4.0670643,4.83958
18,2024-05-15 22:08:54.633446,-0.41587353,0.6048044,1.5137041,3.5320992,3.5899787,4.7772717
19,2024-05-15 22:08:54.650136,-0.37804466,0.4937278,1.9827821,3.0910544,2.9925525,4.621501
20,2024-05-15 22:08:54.666761,-0.7153623,0.1181237,2.9873524,4.593172,4.585689,4.6086726
21,2024-05-15 22:08:54.683490,-0.7153623,0.1181237,2.9873524,4.593172,4.585689,4.6086726
22,2024-05-15 22:08:54.700099,-1.3901806,0.17523311,2.310551,5.835672,5.249089,4.730235
23,2024-05-15 22:08:54.716026,-1.8553842,0.15497635,1.9222558,5.124014,4.4567966,4.932431
24,2024-05-15 22:08:54.731210,-1.9700912,-0.037828874,1.8631941,3.7336848,1.7182876,5.7406063
25,2024-05-15 22:08:54.749911,-1.892969,-0.43954712,1.9459295,3.555923,-0.23770294,6.6312475
26,2024-05-15 22:08:54.766718,-1.4760888,-0.77906126,1.555682,4.6261587,-1.425225,7.1321573
27,2024-05-15 22:08:54.784315,-1.2774261,-0.91670954,1.2029886,4.9083786,-1.8632153,7.0496902
28,2024-05-15 22:08:54.798264,-1.0646082,-0.9777239,0.86423725,4.9541936,-2.3537402,6.4516535
29,2024-05-15 22:08:54.816762,-1.003838,-0.939895,0.061014313,4.434958,-2.4710262,6.168823
30,2024-05-15 22:08:54.833372,-0.9994449,-0.9855337,-0.1300825,4.0568323,-2.6500099,6.18104
31,2024-05-15 22:08:54.850852,-0.69510555,-1.1563737,-0.24771811,3.6939785,-2.9273427,6.139501
32,2024-05-15 22:08:54.866687,-0.5454985,-1.3089095,-0.35315084,3.8167624,-2.7825675,6.075971
33,2024-05-15 22:08:54.882078,-0.5428138,-1.4014072,-0.5030325,4.1838923,-2.337247,5.999002
34,2024-05-15 22:08:54.899765,-0.42099872,-1.5320083,-0.8430042,4.7770424,-1.1491139,6.2146378
35,2024-05-15 22:08:54.917546,-0.037828874,-1.7257898,-1.6525726,4.0293436,0.19967657,6.207918
36,2024-05-15 22:08:54.933338,0.08615221,-1.7519039,-1.8275617,3.2132275,0.6156758,6.0949078
37,2024-05-15 22:08:54.950835,0.28701133,-1.9386077,-1.7218848,1.7172185,0.5778022,5.912259
38,2024-05-15 22:08:54.966646,0.6414129,-2.0694225,-1.3682154,1.1020772,0.48128545,5.612324
39,2024-05-15 22:08:54.982365,0.6743607,-2.079917,-1.3384404,1.0874165,0.49167016,5.575062
40,2024-05-15 22:08:54.999718,1.0426431,-2.3046937,-1.0345892,1.6274214,1.1905,4.3514986
41,2024-05-15 22:08:55.016619,1.2740093,-2.5492694,-1.3240411,1.6274214,1.1905,4.3514986
42,2024-05-15 22:08:55.033327,1.2740093,-2.5492694,-1.3240411,1.6274214,1.1905,4.3514986
43,2024-05-15 22:08:55.049057,1.2740093,-2.5492694,-1.3240411,1.6274214,1.1905,4.3514986
44,2024-05-15 22:08:55.066466,1.2740093,-2.5492694,-1.3240411,1.6274214,1.1905,4.3514986
45,2024-05-15 22:08:55.083324,1.2740093,-2.5492694,-1.3240411,1.6274214,1.1905,4.3514986
46,2024-05-15 22:08:55.098170,1.2740093,-2.5492694,-1.3240411,1.6274214,1.1905,4.3514986
47,2024-05-15 22:08:55.116343,1.2740093,-2.5492694,-1.3240411,1.6274214,1.1905,4.3514986
48,2024-05-15 22:08:55.133245,1.2740093,-2.5492694,-1.3240411,1.6274214,1.1905,4.3514986
49,2024-05-15 22:08:55.149980,1.2740093,-2.5492694,-1.3240411,1.6274214,1.1905,4.3514986
50,2024-05-15 22:08:55.166594,1.2740093,-2.5492694,-1.3240411,1.6274214,1.1905,4.3514986
51,2024-05-15 22:08:55.183335,-0.006345488,-1.6940625,-0.7756444,2.0403662,1.6034449,-5.931196
52,2024-05-15 22:08:55.199898,-0.09518232,-1.5622715,-0.78125775,1.765477,1.5643495,-5.9330287
53,2024-05-15 22:08:55.216561,-0.24674188,-1.3989667,-0.692909,1.2401328,1.2937362,-5.950133
54,2024-05-15 22:08:55.233207,-0.3355787,-1.2720569,-0.7248805,0.7001279,1.4269048,-6.1737094
55,2024-05-15 22:08:55.249865,-0.52597386,-1.1500282,-0.6933971,-0.04024075,1.4959326,-6.341087
56,2024-05-15 22:08:55.266569,-0.6816824,-1.1370933,-0.422219,-0.79588103,1.2680799,-6.4266076
57,2024-05-15 22:08:55.283213,-0.6816824,-1.1370933,-0.422219,-0.79588103,1.2680799,-6.4266076
58,2024-05-15 22:08:55.299846,-0.67777747,-1.182976,-0.043930303,-0.864298,1.3126731,-6.7919054
59,2024-05-15 22:08:55.316546,-0.739768,-1.1963992,-0.022209208,-0.8074875,1.3413837,-6.9794407
60,2024-05-15 22:08:55.334233,-0.9164654,-1.1729697,0.08127106,-0.67676234,1.1984413,-7.0942836
61,2024-05-15 22:08:55.347993,-0.87863666,-1.0985322,0.07370529,-0.60773456,1.1019245,-6.9708886
62,2024-05-15 22:08:55.366242,-0.7756444,-1.0865734,0.11226633,-0.6847036,1.0402272,-7.21157
63,2024-05-15 22:08:55.383184,-0.6467822,-1.0575305,0.20451997,-0.6914231,1.0353402,-7.4840155
64,2024-05-15 22:08:55.399892,-0.78955567,-1.2147034,0.260165,-0.8080984,0.8807913,-7.8780236
65,2024-05-15 22:08:55.416579,-0.9992009,-1.2586337,0.43417785,-0.6168975,0.7543422,-8.438187
66,2024-05-15 22:08:55.433187,-1.4616894,-1.3247732,0.20769271,0.29695687,0.94493216,-8.950703
67,2024-05-15 22:08:55.449846,-1.8932132,-1.1715053,-0.19890666,0.4527275,0.9027825,-9.3722
68,2024-05-15 22:08:55.465450,-2.2441673,-1.1329442,-0.25357547,0.42279512,0.9675342,-9.447336
69,2024-05-15 22:08:55.482814,-2.8011365,-1.068025,-0.22794947,0.97807163,2.2937226,-8.736289
70,2024-05-15 22:08:55.499844,-2.7799037,-1.0157968,-0.38121742,1.1882093,3.1006756,-8.27814
71,2024-05-15 22:08:55.516464,-3.1030354,-1.0414228,-1.1497842,-1.3688726,1.6309339,-8.9317665
72,2024-05-15 22:08:55.533124,-3.277048,-0.98992676,-0.85911196,-1.3688726,1.6309339,-8.9317665
73,2024-05-15 22:08:55.548716,-3.3390386,-0.9030423,-0.23990828,-3.751858,0.35117117,-8.643437
74,2024-05-15 22:08:55.566274,-3.5721438,-0.75221497,0.6890041,-3.3065372,1.535028,-7.612908
75,2024-05-15 22:08:55.583179,-3.463264,-0.3014107,0.65971726,-2.269288,2.3627503,-6.4314947
76,2024-05-15 22:08:55.599763,-3.3243954,-0.007565775,0.63506746,-2.241799,2.006005,-5.886603
77,2024-05-15 22:08:55.617154,-3.2043192,0.22843759,0.8329979,-2.731713,0.6486625,-4.730846
78,2024-05-15 22:08:55.633133,-3.2711906,0.26455808,0.96674126,-2.908864,0.49594623,-4.2855253
79,2024-05-15 22:08:55.649898,-3.4408104,0.2796896,1.2588778,-2.8783207,0.628504,-3.638619
80,2024-05-15 22:08:55.665369,-3.4408104,0.2796896,1.2588778,-2.8783207,0.628504,-3.638619
81,2024-05-15 22:08:55.683110,-3.4408104,0.2796896,1.2588778,-2.8783207,0.628504,-3.638619
82,2024-05-15 22:08:55.699755,-3.4408104,0.2796896,1.2588778,-2.8783207,0.628504,-3.638619
83,2024-05-15 22:08:55.717302,-3.4408104,0.2796896,1.2588778,-2.8783207,0.628504,-3.638619
84,2024-05-15 22:08:55.733952,-3.4408104,0.2796896,1.2588778,-2.8783207,0.628504,-3.638619
85,2024-05-15 22:08:55.750698,-3.4408104,0.2796896,1.2588778,-2.8783207,0.628504,-3.638619
86,2024-05-15 22:08:55.766005,-3.4408104,0.2796896,1.2588778,-2.8783207,0.628504,-3.638619
87,2024-05-15 22:08:55.781518,-3.4615552,0.42685616,1.6044934,-2.4342217,0.85757846,-2.8365529
88,2024-05-15 22:08:55.799746,-3.4134762,0.5411054,1.2408175,1.130788,-2.730644,3.5659258
89,2024-05-15 22:08:55.816391,-3.238487,0.36462155,1.0048141,1.493031,-3.4294739,4.5695777
90,2024-05-15 22:08:55.833036,-3.0661829,0.19060871,0.6753369,1.533959,-4.072715,4.9776354
91,2024-05-15 22:08:55.848203,-3.0649626,0.11348662,0.51596755,1.3134366,-4.4783297,5.0313916
92,2024-05-15 22:08:55.866359,-3.0998626,0.055400997,0.61188203,1.0477103,-5.0617056,5.27024
93,2024-05-15 22:08:55.883040,-3.2982812,-0.06980037,0.7832102,1.5895478,-4.948085,5.7583213
94,2024-05-15 22:08:55.899668,-3.4571624,-0.30873242,0.5921134,2.2333996,-4.6261587,6.602537
95,2024-05-15 22:08:55.914887,-3.2916915,-0.41855815,0.51596755,2.5192847,-4.472221,7.001432
96,2024-05-15 22:08:55.932742,-3.1933367,-0.47444725,0.48103684,2.803948,-4.2553635,7.31786
97,2024-05-15 22:08:55.949680,-3.0076091,-0.6728963,0.30043447,3.3115768,-3.9468768,7.943386
98,2024-05-15 22:08:55.964611,-2.6124804,-0.89083946,0.23112221,3.822871,-3.7434585,8.714298
99,2024-05-15 22:08:55.982760,-2.2329407,-1.0960916,0.016351834,4.086765,-3.760563,9.128465
100,2024-05-15 22:08:55.999642,-2.0989532,-1.153201,-0.0026846298,4.117308,-3.769115,9.174279
101,2024-05-15 22:08:56.017159,-1.5754505,-1.2764499,0.016595893,4.2889614,-3.2193363,8.9952965
102,2024-05-15 22:08:56.031783,-1.3933533,-1.2293469,-0.012935034,4.2284856,-2.1680372,8.532871
103,2024-05-15 22:08:56.049422,-1.3445419,-1.1644276,-0.09225364,3.9719222,-1.8613827,8.302575
104,2024-05-15 22:08:56.066294,-1.2537526,-1.06412,-0.087616555,3.4447455,-1.8436676,8.004473
105,2024-05-15 22:08:56.082288,-1.0760789,-0.9982247,-0.0014643435,2.9371164,-1.882763,7.6709404
106,2024-05-15 22:08:56.099578,-1.0402025,-0.97747976,0.14960709,2.803948,-1.5211308,7.300145
107,2024-05-15 22:08:56.116244,-1.0384941,-0.98333716,0.17620933,2.8173869,-1.2547935,7.137044
108,2024-05-15 22:08:56.132890,-1.080228,-1.0070107,0.053204484,2.675666,-1.0819187,6.965391
109,2024-05-15 22:08:56.149629,-1.0670488,-1.0011533,-0.05662128,2.1991913,-1.2914455,6.9171324
110,2024-05-15 22:08:56.166277,-0.99187917,-1.0309283,-0.10421244,1.8522198,-1.4973071,6.86582
111,2024-05-15 22:08:56.182989,-0.8510581,-1.0826685,-0.05686534,1.5388459,-1.5260178,6.721045
112,2024-05-15 22:08:56.199604,-0.6650865,-1.1546654,-0.11251039,1.3586407,-1.0336604,6.316041
113,2024-05-15 22:08:56.215180,-0.71389794,-1.1627192,-0.22502078,1.2150873,-0.8638398,6.1614923
114,2024-05-15 22:08:56.232574,-0.9123165,-1.3657749,-0.43954712,0.7538841,-1.2187525,6.2066965
115,2024-05-15 22:08:56.249573,-0.7173148,-1.7501955,-0.72195184,0.7447211,-1.5822173,6.404617
116,2024-05-15 22:08:56.266233,-0.6980342,-1.7777741,-0.7365953,0.7691557,-1.5547284,6.4009514
117,2024-05-15 22:08:56.283885,-0.23990828,-2.259787,-1.3716323,0.94264144,-0.01779145,6.008165
118,2024-05-15 22:08:56.299605,-0.10714114,-2.4830995,-1.6396377,0.5461899,0.7066947,5.7088413
119,2024-05-15 22:08:56.316279,-0.10714114,-2.4830995,-1.6396377,0.5461899,0.7066947,5.7088413
120,2024-05-15 22:08:56.332879,-0.10714114,-2.4830995,-1.6396377,0.5461899,0.7066947,5.7088413
121,2024-05-15 22:08:56.350374,-0.10714114,-2.4830995,-1.6396377,0.5461899,0.7066947,5.7088413
122,2024-05-15 22:08:56.366043,-0.10714114,-2.4830995,-1.6396377,0.5461899,0.7066947,5.7088413
123,2024-05-15 22:08:56.382942,-0.10714114,-2.4830995,-1.6396377,0.5461899,0.7066947,5.7088413
124,2024-05-15 22:08:56.399560,-0.10714114,-2.4830995,-1.6396377,0.5461899,0.7066947,5.7088413
125,2024-05-15 22:08:56.416269,-0.10714114,-2.4830995,-1.6396377,0.5461899,0.7066947,5.7088413
126,2024-05-15 22:08:56.433705,-0.10714114,-2.4830995,-1.6396377,0.5461899,0.7066947,5.7088413
127,2024-05-15 22:08:56.449514,1.1766305,-3.006877,0.44833317,1.6023759,0.71219254,-4.0833287
128,2024-05-15 22:08:56.466231,0.8639931,-2.6996086,0.5145032,2.9493337,0.6364452,-4.7198505
129,2024-05-15 22:08:56.482897,0.37926495,-2.542436,-0.3065359,4.685413,0.45807257,-5.840788
130,2024-05-15 22:08:56.499556,0.005857374,-2.2524652,-0.8774163,4.3305,-0.13141239,-6.2244115
131,2024-05-15 22:08:56.516161,-0.16107778,-1.9920563,-1.0670488,3.6444983,-0.6097199,-6.3361998
132,2024-05-15 22:08:56.532851,-0.36632994,-1.6401258,-0.9381865,1.9939405,-1.1375074,-6.402784
133,2024-05-15 22:08:56.549552,-0.33118567,-1.4253248,-0.7317141,1.4423292,-0.40569088,-6.4198885
134,2024-05-15 22:08:56.566170,-0.36242503,-1.3713882,-0.6480025,1.37941,0.03596469,-6.4418793
135,2024-05-15 22:08:56.582833,-0.3355787,-1.2884088,-0.573565,1.384297,0.25954136,-6.436382
136,2024-05-15 22:08:56.599452,-0.47176263,-1.187125,-0.62140024,1.3818536,0.69203395,-6.7277646
137,2024-05-15 22:08:56.615116,-0.58820844,-1.1280631,-0.71389794,1.1790463,0.58696514,-6.765027
138,2024-05-15 22:08:56.632499,-0.709749,-0.9606398,-0.8603323,0.22731823,0.23816109,-6.6220846
139,2024-05-15 22:08:56.650334,-0.709749,-0.9606398,-0.8603323,-0.33895385,0.24365887,-6.693556
140,2024-05-15 22:08:56.666073,-0.6248171,-0.93574595,-0.32337585,-1.1550698,0.8881217,-6.980663
141,2024-05-15 22:08:56.683605,-0.5716126,-0.9472167,-0.18645974,-1.1440742,1.1068115,-7.1083336
142,2024-05-15 22:08:56.700308,-0.5447663,-0.9547824,0.013179091,-0.90522593,1.3529902,-7.5377717
143,2024-05-15 22:08:56.714634,-0.6091974,-1.0211661,0.04807928,-0.7543422,1.3053427,-7.7014837
144,2024-05-15 22:08:56.732785,-0.6850992,-1.003838,0.13227904,-0.5429828,1.1257483,-8.005084
145,2024-05-15 22:08:56.749409,-0.7285414,-1.0233626,0.17230442,-0.31818444,1.0554988,-8.313571
146,2024-05-15 22:08:56.766045,-0.73903584,-1.017017,0.14643435,-0.22594379,0.9217193,-8.516989
147,2024-05-15 22:08:56.783542,-0.87082684,-1.1309918,0.17742962,-0.10010554,0.5845217,-8.810815
148,2024-05-15 22:08:56.797813,-0.8264083,-1.0968238,0.17303659,0.29695687,0.06834055,-9.742995
149,2024-05-15 22:08:56.816046,-1.1624752,-1.3516195,-0.9010899,-0.65904725,-0.9548587,-11.09484
150,2024-05-15 22:08:56.833526,-1.6152319,-1.7501955,-1.8902845,-5.8611755,-4.870505,-13.44606
151,2024-05-15 22:08:56.883411,-4.1071177,-1.4738922,3.3793082,-6.380411,3.2234595,-6.1547728
152,2024-05-15 22:08:56.899329,-2.8304234,-0.67216414,2.5363343,0.42707115,7.020598,-2.744312
153,2024-05-15 22:08:56.916036,-2.1035905,-0.34387666,0.69486153,2.5369997,6.5819964,-2.531731
154,2024-05-15 22:08:56.933455,-2.1035905,-0.34387666,0.69486153,2.5369997,6.5819964,-2.531731
155,2024-05-15 22:08:56.950011,-2.1035905,-0.34387666,0.69486153,2.5369997,6.5819964,-2.531731
156,2024-05-15 22:08:56.966825,-2.1035905,-0.34387666,0.69486153,2.5369997,6.5819964,-2.531731
157,2024-05-15 22:08:56.982637,-2.1035905,-0.34387666,0.69486153,2.5369997,6.5819964,-2.531731
158,2024-05-15 22:08:56.999331,-2.1035905,-0.34387666,0.69486153,2.5369997,6.5819964,-2.531731
159,2024-05-15 22:08:57.015961,-2.1035905,-0.34387666,0.69486153,2.5369997,6.5819964,-2.531731
160,2024-05-15 22:08:57.032623,-2.1035905,-0.34387666,0.69486153,2.5369997,6.5819964,-2.531731
161,2024-05-15 22:08:57.047906,-2.1035905,-0.34387666,0.69486153,2.5369997,6.5819964,-2.531731
162,2024-05-15 22:08:57.065729,-2.8365247,0.14179726,1.2259301,-2.1544454,0.123929285,-2.0851886
163,2024-05-15 22:08:57.082639,-3.1044996,0.23746772,1.6637992,-2.1825452,0.006032294,-1.8774943
164,2024-05-15 22:08:57.099279,-3.446668,0.41929033,2.234893,-1.1300243,-0.1924989,-0.7431176
165,2024-05-15 22:08:57.115904,-3.468145,0.42368335,2.2656446,-0.9369909,-0.24075727,-0.5702427
166,2024-05-15 22:08:57.132587,-3.468145,0.42368335,2.2656446,0.07276932,-0.49365547,0.37415496
167,2024-05-15 22:08:57.147796,-3.4788835,0.33484653,1.6757581,0.96096736,-1.7770834,2.317928
168,2024-05-15 22:08:57.165694,-3.2455647,0.15033926,1.4868273,1.0599276,-2.4203246,2.899472
169,2024-05-15 22:08:57.182557,-3.0810702,0.012935034,1.4075086,1.4643203,-3.4429128,3.709479
170,2024-05-15 22:08:57.200133,-2.926094,-0.10884953,1.182976,1.9261345,-3.5302665,4.05584
171,2024-05-15 22:08:57.214623,-2.976858,-0.17816179,1.0838888,2.0990093,-3.5656967,4.321566
172,2024-05-15 22:08:57.232575,-3.0693555,-0.3133695,0.931353,2.4490352,-3.805156,5.188995
173,2024-05-15 22:08:57.249249,-3.0051684,-0.37706846,0.88376176,2.92551,-3.9969676,5.842621
174,2024-05-15 22:08:57.265857,-2.8811872,-0.42319524,0.7168266,2.92551,-3.9969676,5.842621
175,2024-05-15 22:08:57.282543,-2.8633711,-0.5833273,0.39781332,3.0635655,-3.4618497,6.0686407
176,2024-05-15 22:08:57.299168,-2.986132,-0.6321388,0.36144876,3.0085876,-3.2327752,6.620863
177,2024-05-15 22:08:57.315919,-3.0393364,-0.91622144,0.36730617,3.2999704,-3.428863,7.5652604
178,2024-05-15 22:08:57.330995,-2.9685597,-1.0931629,0.32386398,3.6218965,-3.4630713,8.165741
179,2024-05-15 22:08:57.348858,-2.4586937,-1.2288588,0.13716017,4.321948,-3.1301498,9.020952
180,2024-05-15 22:08:57.365850,-1.581796,-1.4673027,-0.19793043,4.95175,-2.53028,9.040501
181,2024-05-15 22:08:57.383374,-1.2535084,-1.4231284,-0.38194957,4.874781,-2.1222222,8.661153
182,2024-05-15 22:08:57.399138,-1.0504528,-1.3399048,-0.5025444,4.6237154,-1.9041433,8.356942
183,2024-05-15 22:08:57.415866,-0.81493765,-1.1719935,-0.61920375,3.6756525,-1.7642552,7.6556687
184,2024-05-15 22:08:57.432547,-0.78076965,-0.9977366,-0.4046469,2.8589258,-1.5956564,7.0338078
185,2024-05-15 22:08:57.449227,-0.6638662,-0.9381865,-0.44223174,2.5877016,-1.6121497,6.9049153
186,2024-05-15 22:08:57.465941,-0.6218884,-0.94404393,-0.35193056,1.6396387,-1.0477103,6.416223
187,2024-05-15 22:08:57.482454,-0.6231087,-0.9281803,-0.2421048,1.5419003,-0.7184539,6.372241
188,2024-05-15 22:08:57.499113,-0.65922916,-0.940139,-0.21159762,1.5382351,-0.41668645,6.5145726
189,2024-05-15 22:08:57.515797,-0.6133464,-0.9704022,-0.26553428,1.4142294,-0.5449681,6.614754
190,2024-05-15 22:08:57.532656,-0.41904628,-1.080228,-0.3014107,0.90537864,-0.87544626,6.7234883
191,2024-05-15 22:08:57.549209,-0.21550256,-1.2137271,-0.14179726,0.6683629,-0.5278639,6.589098
192,2024-05-15 22:08:57.565816,0.0353883,-1.3425895,0.008297946,0.6708064,-0.5602398,6.4864726
193,2024-05-15 22:08:57.582545,0.0353883,-1.3425895,0.008297946,0.6708064,-0.5602398,6.4864726
194,2024-05-15 22:08:57.599182,0.0353883,-1.3425895,0.008297946,0.6708064,-0.5602398,6.4864726
195,2024-05-15 22:08:57.609235,0.0353883,-1.3425895,0.008297946,0.6708064,-0.5602398,6.4864726
196,2024-05-15 22:08:57.632506,0.0353883,-1.3425895,0.008297946,0.6708064,-0.5602398,6.4864726
197,2024-05-15 22:08:57.649028,0.0353883,-1.3425895,0.008297946,0.6708064,-0.5602398,6.4864726
198,2024-05-15 22:08:57.665849,0.0353883,-1.3425895,0.008297946,0.6708064,-0.5602398,6.4864726
199,2024-05-15 22:08:57.682471,0.0353883,-1.3425895,0.008297946,0.6708064,-0.5602398,6.4864726
200,2024-05-15 22:08:57.699096,0.0353883,-1.3425895,0.008297946,0.6708064,-0.5602398,6.4864726
201,2024-05-15 22:08:57.714480,0.0353883,-1.3425895,0.008297946,0.6708064,-0.5602398,6.4864726
202,2024-05-15 22:08:57.732124,0.82128316,-1.845866,-0.71194553,-0.20639609,0.5985716,3.706425
203,2024-05-15 22:08:57.749064,0.87326735,-2.0311053,-0.67094386,-0.9333257,1.0383946,3.0045407
204,2024-05-15 22:08:57.765799,0.8774163,-2.1006618,-0.5411054,-1.1288027,1.0035752,2.8707612
205,2024-05-15 22:08:57.782364,0.9984687,-2.2558823,-0.29018408,-1.0347294,1.0298425,2.803566
206,2024-05-15 22:08:57.799032,1.1136637,-2.305426,-0.1952458,-0.3218496,1.3725379,2.3503041
207,2024-05-15 22:08:57.814235,1.2459428,-2.3413022,-0.2203837,-0.11904237,1.7415005,1.9373591
208,2024-05-15 22:08:57.832136,1.2842598,-2.3735178,-0.04881145,-0.1905136,1.6541467,1.3368785
209,2024-05-15 22:08:57.849029,1.4014072,-2.3571658,0.40123013,0.64026314,0.92782795,-0.50243664
210,2024-05-15 22:08:57.865680,1.2805989,-2.3825479,0.4148973,1.9395735,1.036562,-1.8420641
211,2024-05-15 22:08:57.882334,1.1429507,-2.4223292,0.3031191,2.2376757,0.99685574,-2.2049181
212,2024-05-15 22:08:57.899852,0.97601545,-2.4137871,0.15888128,2.6054165,0.6315583,-2.9452868
213,2024-05-15 22:08:57.915659,0.8124971,-2.399632,0.10201593,2.7013226,-0.03795,-3.5983016
214,2024-05-15 22:08:57.930925,0.6999867,-2.2907825,0.02318544,2.935284,-0.8797223,-4.489554
215,2024-05-15 22:08:57.948699,0.6145667,-2.2612514,-0.036608588,3.0592895,-0.89499396,-4.9055533
216,2024-05-15 22:08:57.966439,0.4588276,-2.233917,-0.1313028,3.2254448,-0.67324984,-5.346598
217,2024-05-15 22:08:57.982310,0.4229512,-2.1636286,-0.16913168,3.3738852,-0.60605466,-5.690515
218,2024-05-15 22:08:57.998102,0.17279254,-1.8946774,-0.36730617,3.6799285,-0.89132875,-6.693556
219,2024-05-15 22:08:58.015379,-0.15155955,-1.7489753,-0.5669755,3.565086,-1.3140475,-7.3117514
220,2024-05-15 22:08:58.033153,-0.4497975,-1.5395741,-0.73269033,3.025692,-1.1497247,-7.594582
221,2024-05-15 22:08:58.048948,-0.6775334,-1.3840791,-0.80810404,2.5235608,-0.9817368,-7.491346
222,2024-05-15 22:08:58.064573,-0.8864465,-1.1043895,-0.74440515,1.7746398,-0.9273698,-7.096116
223,2024-05-15 22:08:58.081993,-0.82982516,-0.95941955,-0.56063,1.5761087,-0.7251734,-7.0215907
224,2024-05-15 22:08:58.098948,-0.94087124,-0.81566983,-0.57624966,1.484479,-0.30123293,-7.187135
225,2024-05-15 22:08:58.115589,-1.2120188,-0.71243364,-0.57063633,1.1332314,-0.24869852,-7.050912
226,2024-05-15 22:08:58.130909,-1.2910933,-0.6421451,-0.54891527,0.92859155,-0.33238706,-6.8364983
227,2024-05-15 22:08:58.148660,-1.1622311,-0.5115745,-0.3082443,0.64698267,-0.24930938,-6.543894
228,2024-05-15 22:08:58.165579,-1.1622311,-0.5115745,-0.3082443,0.64698267,-0.24930938,-6.543894
229,2024-05-15 22:08:58.182244,-1.0790076,-0.4217309,-0.25552794,0.7202865,-0.16317739,-6.7986245
230,2024-05-15 22:08:58.197369,-1.2579015,-0.36169282,-0.29091623,0.5241987,-0.32383493,-7.074125
231,2024-05-15 22:08:58.215344,-1.2579015,-0.36169282,-0.29091623,0.5241987,-0.32383493,-7.074125
232,2024-05-15 22:08:58.232284,-1.2579015,-0.36169282,-0.29091623,0.5241987,-0.32383493,-7.074125
233,2024-05-15 22:08:58.248909,-1.2579015,-0.36169282,-0.29091623,0.5241987,-0.32383493,-7.074125
234,2024-05-15 22:08:58.266417,-1.2579015,-0.36169282,-0.29091623,0.5241987,-0.32383493,-7.074125
235,2024-05-15 22:08:58.282087,-1.2579015,-0.36169282,-0.29091623,0.5241987,-0.32383493,-7.074125
236,2024-05-15 22:08:58.298906,-1.2579015,-0.36169282,-0.29091623,0.5241987,-0.32383493,-7.074125
237,2024-05-15 22:08:58.315544,-1.2579015,-0.36169282,-0.29091623,0.5241987,-0.32383493,-7.074125
238,2024-05-15 22:08:58.332214,-1.2579015,-0.36169282,-0.29091623,0.5241987,-0.32383493,-7.074125
239,2024-05-15 22:08:58.348858,-2.2944434,0.7675905,0.10836142,-1.7952566,0.82337,-5.8884354
240,2024-05-15 22:08:58.365540,-2.5587878,1.0133562,0.49568027,-1.8832211,1.018236,-5.2903986
241,2024-05-15 22:08:58.382196,-2.5111966,1.1100029,0.78125775,-1.3694835,1.1007028,-4.249484
242,2024-05-15 22:08:58.398915,-2.3051817,1.2347162,0.9628363,0.0025198192,1.2699125,-3.4229834
243,2024-05-15 22:08:58.415499,-2.3217776,1.2630267,0.74879813,0.53580517,1.2008847,-3.1884112
244,2024-05-15 22:08:58.432259,-2.3879173,1.4624215,0.4417436,0.42279512,0.82398087,-2.7479773
245,2024-05-15 22:08:58.448816,-2.3693688,1.6608706,0.5037647,0.2401464,0.5606979,-2.2275202
246,2024-05-15 22:08:58.465546,-2.3759582,1.7887566,0.48225713,0.03428481,0.33589953,-1.9135354
247,2024-05-15 22:08:58.482199,-2.5053391,1.9115173,0.44784504,-0.5997933,-0.3861432,-1.7687603
248,2024-05-15 22:08:58.498955,-2.725967,1.9757043,0.61163795,-0.9724211,-0.7960338,-1.5757269
249,2024-05-15 22:08:58.515539,-3.0137105,1.9378756,1.0311724,-1.040838,-0.96035653,-0.5873469
250,2024-05-15 22:08:58.532133,-3.1733239,1.9332385,1.2061614,-0.2662609,-0.7887034,0.9098838
251,2024-05-15 22:08:58.548828,-2.981739,1.807061,1.0814482,0.1924989,-1.0025063,2.0320432
252,2024-05-15 22:08:58.563889,-2.8318877,1.6591623,0.95185375,0.36109772,-1.1692724,2.5702155
253,2024-05-15 22:08:58.582025,-2.7838085,1.4692552,0.65337175,0.33055446,-1.6842319,3.2519412
254,2024-05-15 22:08:58.599604,-2.7225502,1.3240411,0.49543622,0.106977776,-2.0886247,3.7161987
255,2024-05-15 22:08:58.615600,-2.5961285,1.1536891,0.3738957,-0.188681,-2.5736516,4.2922444
256,2024-05-15 22:08:58.632103,-2.505095,1.089258,0.3585201,-0.29497156,-2.7367527,4.4333544
257,2024-05-15 22:08:58.648825,-2.4128108,0.94233555,0.3487578,-0.4770094,-3.048905,4.566523
258,2024-05-15 22:08:58.666328,-2.508756,0.7016951,0.3829258,-0.51671565,-3.6298378,4.9965725
259,2024-05-15 22:08:58.682145,-2.508756,0.7016951,0.3829258,-0.51671565,-3.6298378,4.9965725
260,2024-05-15 22:08:58.698719,-2.4628427,0.56941605,0.32850105,-0.16485725,-4.100815,5.3582044
261,2024-05-15 22:08:58.713891,-2.3862088,0.4356422,0.19939478,-0.0048105638,-4.261472,5.4443364
262,2024-05-15 22:08:58.731773,-2.3969471,0.3372871,0.06028214,0.4301255,-4.3323326,5.8359013
263,2024-05-15 22:08:58.748795,-2.3286114,0.04271002,-0.30604777,0.40691262,-4.6005025,6.127895
264,2024-05-15 22:08:58.765407,-2.2446554,-0.10201593,-0.3499781,0.3910301,-4.674417,6.3221498
265,2024-05-15 22:08:58.782070,-2.0291529,-0.38048524,-0.31483385,0.6121633,-4.742834,6.711882
266,2024-05-15 22:08:58.798696,-2.0315936,-0.49738866,-0.33411437,0.794812,-4.719621,6.8438287
267,2024-05-15 22:08:58.815373,-1.8177994,-0.6855873,-0.6018757,1.0147235,-4.294459,7.0222015
268,2024-05-15 22:08:58.832057,-1.726278,-0.65410393,-0.9257397,0.73494726,-3.7428477,7.2219543
269,2024-05-15 22:08:58.848695,-1.5529974,-0.73073786,-0.95941955,0.40263656,-3.600516,7.4076576
270,2024-05-15 22:08:58.865357,-1.472672,-0.75489956,-0.8561833,0.23892467,-3.5363753,7.4583592
271,2024-05-15 22:08:58.880737,-1.472672,-0.75489956,-0.8561833,0.23892467,-3.5363753,7.4583592
272,2024-05-15 22:08:58.898401,-1.472672,-0.75489956,-0.8561833,0.23892467,-3.5363753,7.4583592
273,2024-05-15 22:08:58.916036,-1.472672,-0.75489956,-0.8561833,0.23892467,-3.5363753,7.4583592
274,2024-05-15 22:08:58.931975,-1.472672,-0.75489956,-0.8561833,0.23892467,-3.5363753,7.4583592
275,2024-05-15 22:08:58.948639,-1.472672,-0.75489956,-0.8561833,0.23892467,-3.5363753,7.4583592
276,2024-05-15 22:08:58.965299,-1.472672,-0.75489956,-0.8561833,0.23892467,-3.5363753,7.4583592
277,2024-05-15 22:08:58.982664,-1.472672,-0.75489956,-0.8561833,0.23892467,-3.5363753,7.4583592
278,2024-05-15 22:08:59.000148,-0.85496306,-1.0743705,-0.48201308,1.0428233,-2.9725466,7.3398514
279,2024-05-15 22:08:59.015311,0.21330604,-2.597837,-1.1863928,0.20532708,-1.3232105,5.3948565
280,2024-05-15 22:08:59.031967,0.3699908,-2.767701,-1.2227573,-0.8215374,-2.1680372,4.949536
281,2024-05-15 22:08:59.047145,0.6194478,-2.751349,-1.1524688,-0.91072375,-2.2034674,4.8817296
282,2024-05-15 22:08:59.064986,1.0226303,-2.5917354,-0.7502625,-0.94309956,-1.6164258,3.4712417
283,2024-05-15 22:08:59.081938,0.95185375,-2.298104,-0.6138345,-0.074449204,-1.0739775,2.409558
284,2024-05-15 22:08:59.099482,0.87497574,-2.0113368,-0.66923547,0.36903897,-0.8839984,2.0216584
285,2024-05-15 22:08:59.114147,0.77247167,-1.9466617,-0.81420547,0.94936097,-0.5101488,1.4749341
286,2024-05-15 22:08:59.131935,0.85545117,-2.0477014,-1.084865,0.78809255,-0.21876612,1.4547756
287,2024-05-15 22:08:59.148571,1.1819998,-2.3342245,-1.0995084,0.0800997,0.6651559,1.3026701
288,2024-05-15 22:08:59.163396,1.2930459,-2.4672356,-0.9367222,-0.11110111,1.0072404,1.1792754
289,2024-05-15 22:08:59.181647,1.3965261,-2.585878,-0.6770453,0.34949127,1.7085137,0.6423248
290,2024-05-15 22:08:59.198578,1.3145229,-2.6442077,-0.39878955,0.8473464,1.974851,0.3820962
291,2024-05-15 22:08:59.215224,1.383347,-2.6813045,-0.383658,1.6005433,2.233247,-0.21594086
292,2024-05-15 22:08:59.230739,1.494393,-2.5204706,-0.33362624,2.4062746,2.0182223,-1.7754798
293,2024-05-15 22:08:59.248385,1.5781351,-2.39109,-0.3048275,2.8241065,1.6584228,-2.999043
294,2024-05-15 22:08:59.265221,1.084865,-2.21244,-0.44784504,3.6616027,0.56863916,-5.361259
295,2024-05-15 22:08:59.282713,0.25479576,-1.9935206,-0.79736555,3.7544541,-0.55535287,-6.540229
296,2024-05-15 22:08:59.299424,-0.09322987,-1.790953,-0.9816288,3.46918,-0.9524153,-6.752199
297,2024-05-15 22:08:59.315168,-0.7256127,-1.2915815,-0.97430706,2.811278,-0.8888853,-6.5243464
298,2024-05-15 22:08:59.330779,-0.74123234,-0.94868106,-0.8117649,3.0867784,0.58146733,-5.7522125
299,2024-05-15 22:08:59.348280,-0.6148107,-0.8349504,-0.7878473,3.3842697,1.0506119,-5.4980927
300,2024-05-15 22:08:59.365137,-0.28383857,-0.7153623,-0.81322926,3.6304486,1.3444381,-5.5524597
301,2024-05-15 22:08:59.381798,-0.20329969,-0.6916887,-0.81640196,3.2614858,1.2069933,-6.447988
302,2024-05-15 22:08:59.398464,-0.33362624,-0.68827194,-0.8483735,3.0776155,1.0658835,-6.6092567
303,2024-05-15 22:08:59.415198,-0.9972484,-0.55867755,-1.1051217,1.5131896,-0.18455766,-6.281222
304,2024-05-15 22:08:59.431883,-0.65874106,-0.39537275,-0.5974827,0.3299436,-0.13385585,-5.8102446
305,2024-05-15 22:08:59.448558,-0.5105983,-0.38487828,-0.31483385,0.47777298,0.65721464,-6.0051107
306,2024-05-15 22:08:59.465194,-0.45931572,-0.3277689,-0.07907455,0.758771,0.922941,-6.0930753
307,2024-05-15 22:08:59.481855,-0.4097721,-0.3687705,-0.011958805,1.2053134,0.9076694,-6.361856
308,2024-05-15 22:08:59.498495,-0.4097721,-0.3687705,-0.011958805,1.2053134,0.9076694,-6.361856
309,2024-05-15 22:08:59.515180,-0.4097721,-0.3687705,-0.011958805,1.2053134,0.9076694,-6.361856
310,2024-05-15 22:08:59.531834,-0.4097721,-0.3687705,-0.011958805,1.2053134,0.9076694,-6.361856
311,2024-05-15 22:08:59.548491,-0.4097721,-0.3687705,-0.011958805,1.2053134,0.9076694,-6.361856
312,2024-05-15 22:08:59.565882,-0.4097721,-0.3687705,-0.011958805,1.2053134,0.9076694,-6.361856
313,2024-05-15 22:08:59.582626,-0.4097721,-0.3687705,-0.011958805,1.2053134,0.9076694,-6.361856
314,2024-05-15 22:08:59.598427,-0.4097721,-0.3687705,-0.011958805,1.2053134,0.9076694,-6.361856
315,2024-05-15 22:08:59.616304,-0.4097721,-0.3687705,-0.011958805,1.2053134,0.9076694,-6.361856
316,2024-05-15 22:08:59.631784,-2.05844,0.5611181,-0.58576787,-2.0829742,-1.3855188,-6.5677176
317,2024-05-15 22:08:59.646777,-2.096757,0.6553242,-0.43954712,-2.6437485,-1.4466052,-6.485862
318,2024-05-15 22:08:59.664582,-2.403781,0.88913107,0.43759465,-3.45681,-0.8479573,-5.848729
319,2024-05-15 22:08:59.681712,-2.538531,1.2786465,1.1956669,-1.8819995,0.741514,-4.349666
320,2024-05-15 22:08:59.698356,-1.9110293,1.5102873,1.2539966,-1.5270867,1.0664943,-4.0521746
321,2024-05-15 22:08:59.715082,-1.6762462,1.5783793,1.2217811,-0.012751812,2.4476607,-2.6154196
322,2024-05-15 22:08:59.731736,-1.0104275,1.7397012,1.1483198,0.210214,1.4696654,-2.7406468
323,2024-05-15 22:08:59.746931,-1.0055463,1.6896694,0.9581992,0.24625506,0.018860465,-3.537826
324,2024-05-15 22:08:59.764882,-1.255461,1.8614857,0.81664604,0.15645786,-0.5070945,-3.8066068
325,2024-05-15 22:08:59.781758,-1.6799071,2.2153685,0.67899776,0.009850202,-0.16378824,-3.1285462
326,2024-05-15 22:08:59.798391,-1.7953461,2.3537493,0.6492228,-0.134314,0.024358252,-2.8432722
327,2024-05-15 22:08:59.815161,-1.7953461,2.3537493,0.6492228,-0.134314,0.024358252,-2.8432722
328,2024-05-15 22:08:59.831693,-2.0784526,2.5722108,0.71121335,-1.3303882,-0.5315291,-2.110234
329,2024-05-15 22:08:59.848364,-2.463575,2.5695262,1.2417938,-1.589395,-1.3372604,-0.95447695
330,2024-05-15 22:08:59.864991,-2.6237068,2.571967,1.4516829,-1.0267881,-1.2951107,0.00030543262
331,2024-05-15 22:08:59.881631,-2.679596,2.4428298,1.3357558,-0.16241379,-1.1747702,1.2409728
332,2024-05-15 22:08:59.898393,-2.4399014,2.352773,0.935502,0.08559749,-1.5321264,2.278833
333,2024-05-15 22:08:59.915013,-2.4438062,2.212684,0.794925,-0.06650795,-1.9548452,2.8334985
334,2024-05-15 22:08:59.931701,-2.4499078,2.0970008,0.77222764,-0.15325081,-2.1881957,3.170696
335,2024-05-15 22:08:59.948366,-2.5016785,1.9332385,0.78931165,-0.19723311,-2.4111614,3.6141841
336,2024-05-15 22:08:59.965019,-2.3003006,1.4995488,0.7983418,0.35254562,-2.8766408,5.0039024
337,2024-05-15 22:08:59.981706,-1.9800974,1.1671122,0.70437974,0.75449497,-2.7917306,5.5213056
338,2024-05-15 22:08:59.998298,-1.8834507,0.944288,0.54940337,0.8302422,-2.757522,5.8065796
339,2024-05-15 22:09:00.015032,-1.8707597,0.85862386,0.48103684,0.83146393,-2.9218447,5.944635
340,2024-05-15 22:09:00.030948,-1.8165792,0.7858948,0.17157225,0.6524804,-3.65977,6.0173283
341,2024-05-15 22:09:00.048359,-1.8395205,0.68656355,0.1300825,0.6640869,-3.5699728,6.087578
342,2024-05-15 22:09:00.064997,-1.8832067,0.5984589,0.09396204,0.7441102,-3.4135914,6.1517186
343,2024-05-15 22:09:00.080414,-1.9122496,0.32728076,-0.11617125,1.0373255,-3.2327752,6.3380322
344,2024-05-15 22:09:00.098019,-1.824389,0.09615856,-0.41904628,1.1387292,-3.3213508,6.6972213
345,2024-05-15 22:09:00.114936,-1.6957707,-0.04881145,-0.50059193,1.0330495,-3.269427,6.839553
346,2024-05-15 22:09:00.132475,-1.6957707,-0.04881145,-0.50059193,1.0330495,-3.269427,6.839553
347,2024-05-15 22:09:00.148240,-1.6957707,-0.04881145,-0.50059193,1.0330495,-3.269427,6.839553
348,2024-05-15 22:09:00.164899,-1.6957707,-0.04881145,-0.50059193,1.0330495,-3.269427,6.839553
349,2024-05-15 22:09:00.180661,-1.6957707,-0.04881145,-0.50059193,1.0330495,-3.269427,6.839553
350,2024-05-15 22:09:00.197934,-1.6957707,-0.04881145,-0.50059193,1.0330495,-3.269427,6.839553
351,2024-05-15 22:09:00.214892,-1.6957707,-0.04881145,-0.50059193,1.0330495,-3.269427,6.839553
352,2024-05-15 22:09:00.231675,-1.6957707,-0.04881145,-0.50059193,1.0330495,-3.269427,6.839553
353,2024-05-15 22:09:00.249116,-1.6957707,-0.04881145,-0.50059193,1.0330495,-3.269427,6.839553
354,2024-05-15 22:09:00.263225,-1.6957707,-0.04881145,-0.50059193,1.0330495,-3.269427,6.839553
355,2024-05-15 22:09:00.281307,-1.6957707,-0.04881145,-0.50059193,1.0330495,-3.269427,6.839553
356,2024-05-15 22:09:00.298193,-0.7368393,-1.1783389,-0.45052966,0.61705023,-1.8986455,5.410128
357,2024-05-15 22:09:00.314855,-0.67899776,-1.247163,-0.5640468,0.4472297,-1.9297997,5.3392677
358,2024-05-15 22:09:00.331502,-0.03099527,-1.2693722,-0.74123234,0.07460192,-1.7880789,5.011233
359,2024-05-15 22:09:00.347259,0.2421048,-1.1654038,-0.83373004,-0.16119206,-1.4630986,4.497495
360,2024-05-15 22:09:00.364596,0.358032,-1.1217176,-0.93794256,-0.6712645,-1.1399509,3.5097263
361,2024-05-15 22:09:00.381515,-0.18206671,-1.1002406,-1.2144594,-2.0188332,-2.1393263,3.397327
362,2024-05-15 22:09:00.398159,0.006833603,-1.3518636,-1.0694894,-2.3224332,-2.2883775,3.506672
363,2024-05-15 22:09:00.413394,0.1300825,-1.5271271,-0.95234185,-2.4458282,-2.122833,3.664886
364,2024-05-15 22:09:00.431229,0.51669973,-1.6972351,-0.6555683,-0.046960264,-0.46005788,2.9996538
365,2024-05-15 22:09:00.449058,0.4327135,-1.8824744,-1.1544212,0.9133199,0.5961281,2.5689938
366,2024-05-15 22:09:00.465668,0.43320164,-2.0081642,-1.3923771,0.6311002,0.80504405,2.4889705
367,2024-05-15 22:09:00.481458,0.63555557,-2.349112,-1.5571462,-0.8783479,0.5979607,2.4126122
368,2024-05-15 22:09:00.499006,1.1114672,-2.6344454,-1.050941,-1.7024051,0.38843393,1.6050484
369,2024-05-15 22:09:00.515639,1.1751661,-2.7074187,-0.91622144,-1.5930603,0.40553817,1.2721269
370,2024-05-15 22:09:00.532335,1.4294739,-2.8697166,-0.5535523,-0.17340937,1.0219012,-0.26175576
371,2024-05-15 22:09:00.548098,1.3496671,-2.8062618,-0.6633781,1.1888201,1.4537829,-1.461495
372,2024-05-15 22:09:00.565605,1.2374008,-2.7188892,-0.8593561,1.6078737,1.4769958,-2.0906863
373,2024-05-15 22:09:00.581417,0.9511216,-2.455765,-1.0585068,1.837559,1.1074224,-3.0839531
374,2024-05-15 22:09:00.598097,0.86204064,-2.3391058,-1.1014608,1.7801377,0.9345475,-3.4987307
375,2024-05-15 22:09:00.614764,0.6653306,-2.17876,-1.0707097,1.7660878,0.8966738,-4.0033054
376,2024-05-15 22:09:00.632281,0.5044969,-1.8897963,-0.9477048,2.276771,1.3071753,-4.4791694
377,2024-05-15 22:09:00.647052,0.38707477,-1.812186,-0.9706462,2.5974753,1.5521322,-4.539645
378,2024-05-15 22:09:00.664507,0.2186753,-1.5708134,-1.1561297,3.1564171,2.2369123,-4.321566
379,2024-05-15 22:09:00.681365,0.21672285,-1.5022334,-1.2125069,3.197345,2.4971406,-4.3288965
380,2024-05-15 22:09:00.698016,0.2186753,-1.4014072,-1.2361805,2.8974102,2.4983625,-4.6599855
381,2024-05-15 22:09:00.714681,0.18523945,-1.2730331,-1.0938951,2.853428,2.4629323,-4.7149634
382,2024-05-15 22:09:00.731409,0.15033926,-1.1710172,-1.0587507,2.4820218,2.1477258,-5.088813
383,2024-05-15 22:09:00.748084,-0.0605262,-0.99700433,-0.98333716,1.6035976,1.2998449,-5.7021217
384,2024-05-15 22:09:00.764773,-0.36291313,-0.84031963,-0.6218884,1.0996338,1.0652727,-6.0063324
385,2024-05-15 22:09:00.781426,-0.5969946,-0.7361072,-0.5027884,1.0996338,1.0652727,-6.0063324
386,2024-05-15 22:09:00.798063,-0.5969946,-0.7361072,-0.5027884,1.0996338,1.0652727,-6.0063324
387,2024-05-15 22:09:00.814718,-0.5969946,-0.7361072,-0.5027884,1.0996338,1.0652727,-6.0063324
388,2024-05-15 22:09:00.831355,-0.5969946,-0.7361072,-0.5027884,1.0996338,1.0652727,-6.0063324
389,2024-05-15 22:09:00.848038,-0.5969946,-0.7361072,-0.5027884,1.0996338,1.0652727,-6.0063324
390,2024-05-15 22:09:00.865554,-0.5969946,-0.7361072,-0.5027884,1.0996338,1.0652727,-6.0063324
391,2024-05-15 22:09:00.881224,-0.5969946,-0.7361072,-0.5027884,1.0996338,1.0652727,-6.0063324
392,2024-05-15 22:09:00.898068,-0.5969946,-0.7361072,-0.5027884,1.0996338,1.0652727,-6.0063324
393,2024-05-15 22:09:00.914737,-0.5969946,-0.7361072,-0.5027884,1.0996338,1.0652727,-6.0063324
394,2024-05-15 22:09:00.931440,-0.5969946,-0.7361072,-0.5027884,1.0996338,1.0652727,-6.0063324
395,2024-05-15 22:09:00.948033,-0.6001673,-0.3236199,0.00097622897,0.58711785,1.6517032,-6.1095686
396,2024-05-15 22:09:00.964722,-0.93062085,-0.3184947,-0.0924977,0.26885706,0.84169596,-6.675841
397,2024-05-15 22:09:00.981365,-1.1390457,-0.28701133,-0.11031388,0.19677497,0.97730803,-6.9122458
398,2024-05-15 22:09:00.997995,-1.3984785,-0.1466784,-0.24967057,-0.123929285,1.0359511,-6.887811
399,2024-05-15 22:09:01.014698,-1.4260571,-0.099819414,-0.24869433,-0.35056028,0.9149998,-6.8591003
400,2024-05-15 22:09:01.031348,-1.4751126,0.03172744,0.21721096,-0.04390594,1.5215889,-6.8865895
401,2024-05-15 22:09:01.048025,-1.504918,0.049299564,0.264314,-0.04390594,1.5215889,-6.8865895
402,2024-05-15 22:09:01.064597,-1.943977,0.11617125,0.036852647,0.8161923,2.428113,-6.8364983
403,2024-05-15 22:09:01.079989,-2.1514256,0.4617563,-0.33704305,-0.25221097,0.64499736,-5.8615575
404,2024-05-15 22:09:01.097660,-1.9471498,0.6126142,0.13716017,-0.78305286,0.4965571,-5.4534993
405,2024-05-15 22:09:01.114592,-1.9307978,0.62750167,0.29823795,-0.6156758,0.9461539,-5.29834
406,2024-05-15 22:09:01.131315,-2.0401356,0.8029789,0.46078008,0.28290698,1.9730184,-4.9043317
407,2024-05-15 22:09:01.146850,-1.9969374,0.9545384,0.32508424,0.46861,1.611997,-4.4009786
408,2024-05-15 22:09:01.165407,-1.9530071,1.1629633,0.47859627,0.38186714,1.1678979,-3.6716056
409,2024-05-15 22:09:01.181265,-1.9510547,1.2425259,0.50791365,0.40813434,1.1281917,-3.5934148
410,2024-05-15 22:09:01.198087,-1.8932132,1.494149,0.46834585,0.35682166,0.87101746,-3.460246
411,2024-05-15 22:09:01.214639,-1.9840024,1.5425028,0.45931572,0.21937698,0.84352857,-3.5115588
412,2024-05-15 22:09:01.231201,-2.5158336,1.6603825,0.59333366,-0.3627776,0.46662468,-3.3173037
413,2024-05-15 22:09:01.247866,-2.917796,1.8749088,0.820551,-0.30841058,-0.3476587,-2.454762
414,2024-05-15 22:09:01.264600,-3.0364077,2.1846173,0.92500746,-0.26992607,-0.6158285,-1.847562
415,2024-05-15 22:09:01.281245,-2.9173079,2.2490485,1.0099394,-0.17768542,-0.6475935,-0.9660834
416,2024-05-15 22:09:01.297882,-2.8948545,2.1851056,1.0794957,0.3562108,-0.5791766,0.183565
417,2024-05-15 22:09:01.313264,-2.9500115,2.1628964,0.97381896,0.46005788,-0.77221,0.61544675
418,2024-05-15 22:09:01.330876,-2.9102302,1.9896158,0.79028785,0.16867517,-1.7068338,1.6423112
419,2024-05-15 22:09:01.348703,-2.674471,1.6935742,0.9989568,0.39591703,-2.1704805,2.622139
420,2024-05-15 22:09:01.365444,-2.6981444,1.4785293,0.75172687,0.67569333,-2.1655936,2.7999008
421,2024-05-15 22:09:01.381145,-2.7249908,1.4673027,0.72756517,1.0293843,-2.2346215,3.1535919
422,2024-05-15 22:09:01.396083,-2.789178,1.0868174,0.36852646,0.9194285,-2.5956428,4.189619
423,2024-05-15 22:09:01.414498,-2.789178,1.0868174,0.36852646,0.9194285,-2.5956428,4.189619
424,2024-05-15 22:09:01.431159,-2.789178,1.0868174,0.36852646,0.9194285,-2.5956428,4.189619
425,2024-05-15 22:09:01.448623,-2.789178,1.0868174,0.36852646,0.9194285,-2.5956428,4.189619
426,2024-05-15 22:09:01.465358,-2.789178,1.0868174,0.36852646,0.9194285,-2.5956428,4.189619
427,2024-05-15 22:09:01.479775,-2.789178,1.0868174,0.36852646,0.9194285,-2.5956428,4.189619
428,2024-05-15 22:09:01.497577,-2.789178,1.0868174,0.36852646,0.9194285,-2.5956428,4.189619
429,2024-05-15 22:09:01.515364,-2.05063,-0.01952458,-0.37194324,0.8650615,-3.701309,5.95502
430,2024-05-15 22:09:01.531852,-2.05063,-0.01952458,-0.37194324,0.8650615,-3.701309,5.95502
431,2024-05-15 22:09:01.548650,-2.05063,-0.01952458,-0.37194324,0.8650615,-3.701309,5.95502
432,2024-05-15 22:09:01.563179,-1.4001869,-0.39073566,-0.47639978,0.22120957,-3.1325934,6.28
433,2024-05-15 22:09:01.580804,-1.0965797,-0.49738866,-0.48542988,0.20166188,-2.8137217,6.372852
434,2024-05-15 22:09:01.597763,-0.5611181,-0.43661842,-0.522069,-0.1746311,-2.4808002,5.7894754
435,2024-05-15 22:09:01.615302,-0.46151224,-0.36730617,-0.45980385,-0.41653374,-2.7654634,5.215262
436,2024-05-15 22:09:01.631059,-0.50913393,-0.34168017,-0.43173727,-0.45685086,-2.8974102,5.069876
437,2024-05-15 22:09:01.646262,-0.60041136,-0.31873876,-0.44808912,-0.4928919,-3.1448107,5.0173416
438,2024-05-15 22:09:01.664146,-0.6143226,-0.3219115,-0.4046469,-0.5594762,-3.632892,5.215873
439,2024-05-15 22:09:01.681853,-0.5125507,-0.39415246,-0.26114124,-0.30046934,-3.6634352,5.251303
440,2024-05-15 22:09:01.698576,-0.552088,-0.42368335,0.024405725,1.2743412,-1.7440966,5.1987686
441,2024-05-15 22:09:01.715241,-0.552088,-0.42368335,0.024405725,1.2743412,-1.7440966,5.1987686
442,2024-05-15 22:09:01.731029,-0.56795174,-0.46883395,-0.018304294,1.7776942,-1.3458124,5.338657
443,2024-05-15 22:09:01.746727,-0.594554,-0.7836983,-0.31312546,1.674458,-2.440483,5.836512
444,2024-05-15 22:09:01.764026,-0.4761557,-0.8927919,-0.30873242,2.1197789,-2.263943,5.857892
445,2024-05-15 22:09:01.781034,-0.42148685,-1.012868,-0.35437113,2.5064564,-1.8717675,5.837123
446,2024-05-15 22:09:01.798537,-0.2936009,-1.2740093,-0.73903584,3.211395,-0.90904385,6.1413336
447,2024-05-15 22:09:01.815232,-0.13911264,-1.4040918,-1.0834006,2.0214295,-1.1546117,5.8835487
448,2024-05-15 22:09:01.830033,-0.09225364,-1.4189793,-1.1217176,1.5284612,-1.2175308,5.6135464
449,2024-05-15 22:09:01.847412,0.10494461,-1.459981,-1.1178128,0.30245465,-1.3616949,4.6288314
450,2024-05-15 22:09:01.864303,0.13569583,-1.521758,-1.0494766,-0.3120758,-1.778305,4.0576725
451,2024-05-15 22:09:01.880946,0.19402552,-1.6188927,-0.8696065,-0.5099961,-2.4215462,3.3551774
452,2024-05-15 22:09:01.897720,0.30385128,-1.7257898,-0.80517536,0.4014148,-2.2260692,2.741258
453,2024-05-15 22:09:01.914325,0.38585448,-1.8773494,-0.9091437,1.0055605,-1.4936419,2.812118
454,2024-05-15 22:09:01.930986,0.6899803,-2.328123,-1.3123263,0.7783187,-1.0135018,3.098614
455,2024-05-15 22:09:01.947644,1.4123898,-2.6005213,-1.2527764,-0.6004042,0.024358252,3.4736853
456,2024-05-15 22:09:01.964317,1.7641069,-2.7347531,-1.0907223,-0.85574585,0.20822869,3.270267
457,2024-05-15 22:09:01.980986,2.3142118,-2.9644108,-0.6555683,-0.74884444,0.85269153,2.2947154
458,2024-05-15 22:09:01.997632,2.5417037,-3.0647182,-0.4634647,-0.053679783,1.3505467,0.799928
459,2024-05-15 22:09:02.014329,2.6808164,-3.0176153,-0.08346757,0.78015125,1.2693017,-0.6765333
460,2024-05-15 22:09:02.030989,2.2971277,-2.7821,-0.24454537,1.7489835,0.30413455,-2.6600127
461,2024-05-15 22:09:02.047654,1.960573,-2.5846577,-0.38463423,2.164372,-0.12102768,-3.6661077
462,2024-05-15 22:09:02.062405,1.960573,-2.5846577,-0.38463423,2.164372,-0.12102768,-3.6661077
463,2024-05-15 22:09:02.080628,1.960573,-2.5846577,-0.38463423,2.164372,-0.12102768,-3.6661077
464,2024-05-15 22:09:02.097585,1.960573,-2.5846577,-0.38463423,2.164372,-0.12102768,-3.6661077
465,2024-05-15 22:09:02.114296,1.960573,-2.5846577,-0.38463423,2.164372,-0.12102768,-3.6661077
466,2024-05-15 22:09:02.130952,0.23405088,-1.3032962,-0.5701482,3.002479,0.87407184,-4.6770897
467,2024-05-15 22:09:02.147632,0.23405088,-1.3032962,-0.5701482,3.002479,0.87407184,-4.6770897
468,2024-05-15 22:09:02.164278,0.23405088,-1.3032962,-0.5701482,3.002479,0.87407184,-4.6770897
469,2024-05-15 22:09:02.181780,0.43661842,-1.01238,-0.90011364,2.9139035,1.68469,-4.145026
470,2024-05-15 22:09:02.197572,0.41880223,-0.93843067,-0.7971215,2.67139,1.476385,-4.7094655
471,2024-05-15 22:09:02.214282,0.24161668,-0.8913276,-0.7661262,2.5241716,1.1153636,-5.170058
472,2024-05-15 22:09:02.230942,0.02391761,-0.7775969,-0.8103006,2.0929008,0.8441394,-5.4950385
473,2024-05-15 22:09:02.247504,-0.094206095,-0.63848424,-0.8000502,1.4875332,0.77999854,-5.626985
474,2024-05-15 22:09:02.264245,-0.1637624,-0.54940337,-0.7346428,0.94203055,0.77816594,-5.76443
475,2024-05-15 22:09:02.281650,-0.21208574,-0.4937278,-0.6589851,0.68913233,0.7580074,-5.840177
476,2024-05-15 22:09:02.298296,-0.2638259,-0.42368335,-0.4639528,0.12347114,0.62483877,-6.0930753
477,2024-05-15 22:09:02.314928,-0.37706846,-0.3841461,-0.27041543,-0.156916,0.6321692,-6.3783493
478,2024-05-15 22:09:02.330551,-0.47127452,-0.3785328,-0.23575929,-0.28214338,0.57474786,-6.387512
479,2024-05-15 22:09:02.347326,-0.6580089,-0.28676724,-0.18938842,-0.447077,0.5093852,-6.2830544
480,2024-05-15 22:09:02.364223,-0.57844615,-0.21379416,-0.076389916,-0.8704066,0.49350277,-5.772982
481,2024-05-15 22:09:02.379069,-0.51791996,-0.22306833,0.0156196635,-1.0170143,0.56375223,-5.6025505
482,2024-05-15 22:09:02.397219,-0.4087959,-0.28725538,0.111290105,-1.1385765,0.53443074,-5.721669
483,2024-05-15 22:09:02.414220,-0.37291947,-0.36315718,0.1164153,-1.2686907,0.2674826,-6.2335744
484,2024-05-15 22:09:02.430794,-0.48494175,-0.3939084,0.16278619,-1.2845732,0.25221097,-6.4119473
485,2024-05-15 22:09:02.447489,-0.91085213,-0.3785328,0.3184947,-0.9113346,0.610178,-6.3380322
486,2024-05-15 22:09:02.464311,-1.0341011,-0.345341,0.2757847,0.16256651,1.3120621,-6.000835
487,2024-05-15 22:09:02.480793,-1.0658286,-0.2936009,0.19841854,0.46738827,1.431181,-5.963572
488,2024-05-15 22:09:02.497436,-1.1758983,-0.15766099,-0.19085276,0.9347002,1.516702,-6.108347
489,2024-05-15 22:09:02.515075,-1.3052487,-0.09176553,-0.5105983,0.3928627,1.0805442,-6.5035768
490,2024-05-15 22:09:02.530757,-1.5451875,-0.06980037,-0.6082212,-1.2894602,0.29802588,-6.7320404
491,2024-05-15 22:09:02.546217,-1.990592,0.008542004,-0.5957743,-2.1538346,0.087277375,-6.5597763
492,2024-05-15 22:09:02.563817,-2.1853495,0.033923957,-0.038561042,-3.2430072,0.3468951,-5.8096337
493,2024-05-15 22:09:02.580769,-2.139955,0.15570852,0.4131889,-3.1635947,0.86613053,-5.310557
494,2024-05-15 22:09:02.595698,-1.9942529,0.28627914,1.0348332,-2.0909154,2.0628157,-4.6379943
495,2024-05-15 22:09:02.614113,-1.7836314,0.39976576,1.0916985,-1.2998449,1.9168187,-4.521319
496,2024-05-15 22:09:02.631575,-1.8900403,0.44540447,0.8254321,-1.4061354,0.23999368,-4.8139234
497,2024-05-15 22:09:02.647384,-2.1245794,0.43613032,1.0045701,-1.5466344,0.09949467,-4.719239
498,2024-05-15 22:09:02.663523,-2.6205342,0.7246365,1.485851,-0.64072126,0.56375223,-3.7888918
499,2024-05-15 22:09:02.680921,-2.7149842,0.918662,1.3491789,0.4722752,1.0225121,-2.4156666
500,2024-05-15 22:09:02.697394,-2.6673932,0.95331806,1.3128144,0.62193716,1.0249555,-2.060143
501,2024-05-15 22:09:02.712217,-2.6673932,0.95331806,1.3128144,0.62193716,1.0249555,-2.060143
502,2024-05-15 22:09:02.730363,-2.6673932,0.95331806,1.3128144,0.62193716,1.0249555,-2.060143
503,2024-05-15 22:09:02.747335,-2.6673932,0.95331806,1.3128144,0.62193716,1.0249555,-2.060143
504,2024-05-15 22:09:02.764065,-2.6673932,0.95331806,1.3128144,0.62193716,1.0249555,-2.060143
505,2024-05-15 22:09:02.780653,-2.6673932,0.95331806,1.3128144,0.62193716,1.0249555,-2.060143
506,2024-05-15 22:09:02.797378,-2.6673932,0.95331806,1.3128144,0.62193716,1.0249555,-2.060143
507,2024-05-15 22:09:02.814027,-2.6673932,0.95331806,1.3128144,0.62193716,1.0249555,-2.060143
508,2024-05-15 22:09:02.831577,-2.6673932,0.95331806,1.3128144,0.62193716,1.0249555,-2.060143
509,2024-05-15 22:09:02.847201,-3.0832667,1.3569888,1.1165924,0.62193716,-2.3048708,2.997821
510,2024-05-15 22:09:02.864057,-2.841162,1.046792,1.1937145,0.8986591,-2.5785387,4.0753875
511,2024-05-15 22:09:02.880697,-2.7003407,0.8593561,1.0419109,1.2547935,-2.6787205,4.617225
512,2024-05-15 22:09:02.897391,-2.7310922,0.6960818,0.90694726,1.2853369,-2.893134,4.8041496
513,2024-05-15 22:09:02.914037,-2.7430508,0.42051062,0.72878546,1.271287,-3.8344774,5.405241
514,2024-05-15 22:09:02.930705,-2.615897,0.17767367,0.62945414,1.5889368,-4.4386234,5.9305854
515,2024-05-15 22:09:02.947365,-2.581973,0.15961345,0.62042403,1.6207019,-4.4508405,5.958685
516,2024-05-15 22:09:02.964033,-2.216833,-0.08981306,0.24942651,2.3891704,-3.8112645,6.2690043
517,2024-05-15 22:09:02.980693,-1.9710674,-0.20085911,-0.055645052,2.3922246,-3.3763285,6.516405
518,2024-05-15 22:09:02.997337,-1.8653905,-0.23527117,-0.12422514,2.2798254,-3.3781612,6.637967
519,2024-05-15 22:09:03.014005,-1.713587,-0.36779428,-0.2831064,2.0452533,-3.6805394,6.7631946
520,2024-05-15 22:09:03.030673,-1.4199556,-0.500836,-0.34192422,1.8571067,-4.0757694,6.732651
521,2024-05-15 22:09:03.047329,-1.1749221,-0.51547945,-0.35144243,1.8790978,-3.5211036,6.4516535
522,2024-05-15 22:09:03.064002,-1.1070741,-0.4983649,-0.39244407,1.8064048,-2.675666,6.339254
523,2024-05-15 22:09:03.079999,-0.9376984,-0.58772033,-0.42954078,1.6176475,-2.3696227,6.468147
524,2024-05-15 22:09:03.098142,-0.80541945,-0.581863,-0.42734426,1.5553392,-2.2431736,6.4498205
525,2024-05-15 22:09:03.113975,-0.51767594,-0.5567251,-0.49128726,1.2651783,-2.0892355,6.1107903
526,2024-05-15 22:09:03.130570,-0.4024504,-0.5464747,-0.5098661,0.8571203,-2.1710916,5.7351084
527,2024-05-15 22:09:03.146092,-0.37291947,-0.5713685,-0.4803047,0.5443573,-2.3494642,5.4699926
528,2024-05-15 22:09:03.163627,-0.31190515,-0.6650865,-0.34216827,0.070936725,-2.6451228,5.020396
529,2024-05-15 22:09:03.180560,-0.4036707,-0.69412935,-0.14521407,0.04344779,-2.7239244,4.81148
530,2024-05-15 22:09:03.196217,-0.35607952,-0.70364755,-0.13838045,0.10636691,-2.739807,4.765665
531,2024-05-15 22:09:03.213598,-0.32850105,-0.71389794,-0.09493827,0.15034921,-2.8448758,4.603786
532,2024-05-15 22:09:03.230550,-0.2489384,-0.7873592,-0.06833603,0.4722752,-2.971325,4.54331
533,2024-05-15 22:09:03.245409,-0.13032657,-0.86863023,-0.11226633,0.7202865,-2.9377272,4.364938
534,2024-05-15 22:09:03.263723,-0.034900185,-0.8849821,-0.29018408,1.2786173,-2.8919125,3.9104538
535,2024-05-15 22:09:03.280518,-0.051496077,-0.92037046,-0.59919107,1.5028049,-2.8314369,3.4455855
536,2024-05-15 22:09:03.295612,-0.16913168,-0.9901707,-0.7553877,1.4148402,-2.7825675,3.4016032
537,2024-05-15 22:09:03.313927,-0.174745,-1.0365417,-1.1036574,0.46616653,-2.57243,3.7137554
538,2024-05-15 22:09:03.330493,-0.12471326,-1.0726621,-1.102193,-0.30779973,-2.808224,3.887241
539,2024-05-15 22:09:03.347991,-0.12471326,-1.0726621,-1.102193,-0.30779973,-2.808224,3.887241
540,2024-05-15 22:09:03.363014,-0.12471326,-1.0726621,-1.102193,-0.30779973,-2.808224,3.887241
541,2024-05-15 22:09:03.381473,-0.12471326,-1.0726621,-1.102193,-0.30779973,-2.808224,3.887241
542,2024-05-15 22:09:03.397151,-0.12471326,-1.0726621,-1.102193,-0.30779973,-2.808224,3.887241
543,2024-05-15 22:09:03.414656,-0.12471326,-1.0726621,-1.102193,-0.30779973,-2.808224,3.887241
544,2024-05-15 22:09:03.431393,-0.12471326,-1.0726621,-1.102193,-0.30779973,-2.808224,3.887241
545,2024-05-15 22:09:03.445440,-0.12471326,-1.0726621,-1.102193,-0.30779973,-2.808224,3.887241
546,2024-05-15 22:09:03.463602,0.9294005,-1.9625254,-1.9874192,1.235246,-0.5565746,2.3435845
547,2024-05-15 22:09:03.480463,1.7506837,-2.4980175,-2.1975524,0.5577963,0.7268533,2.083356
548,2024-05-15 22:09:03.497971,2.3264146,-2.8313997,-1.8048644,0.046502117,1.6217709,0.9233228
549,2024-05-15 22:09:03.513761,2.4328237,-2.8514123,-1.5012572,0.15829046,1.834352,0.035124753
550,2024-05-15 22:09:03.530441,2.4279425,-2.8040652,-1.2359364,0.61888283,1.8868864,-1.8005253
551,2024-05-15 22:09:03.547050,2.2793117,-2.768677,-1.152713,0.8846092,1.7867045,-2.8591547
552,2024-05-15 22:09:03.563721,1.7101701,-2.572455,-0.957223,1.4130076,1.5014304,-4.9776354
553,2024-05-15 22:09:03.587070,0.931353,-2.310307,-0.9865099,1.6848427,1.1691197,-6.1266727
554,2024-05-15 22:09:03.597464,0.6738726,-2.2136602,-1.0343451,1.7050012,0.9907471,-6.3655214
555,2024-05-15 22:09:03.614545,0.01586372,-1.7543446,-1.1434387,1.2883911,0.5490915,-6.688669
556,2024-05-15 22:09:03.630476,-0.21330604,-1.438992,-1.0487446,0.86811584,0.78916156,-6.724099
557,2024-05-15 22:09:03.647040,-0.4378387,-1.1517366,-0.65312773,1.2505175,1.4977652,-6.670343
558,2024-05-15 22:09:03.663682,-0.485918,-1.0975559,-0.61847156,1.5437329,1.716455,-6.617809
559,2024-05-15 22:09:03.680378,-0.64605004,-0.9152452,-0.72976166,2.15582,1.9901226,-6.317263
560,2024-05-15 22:09:03.697040,-0.6775334,-0.7485541,-0.92085856,1.9004781,2.029218,-5.8621683
561,2024-05-15 22:09:03.713751,-0.62921005,-0.67997396,-0.94135934,1.4685965,2.0084486,-5.6220984
562,2024-05-15 22:09:03.730398,-0.500836,-0.61285824,-0.8181104,0.62193716,1.8111391,-5.471215
563,2024-05-15 22:09:03.747098,-0.44369608,-0.5528202,-0.57795805,0.17172949,1.5942819,-5.532912
564,2024-05-15 22:09:03.763690,-0.4327135,-0.52426547,-0.47884035,0.082543164,1.4910457,-5.575062
565,2024-05-15 22:09:03.780425,-0.39830142,-0.4463807,-0.33533466,0.05933029,1.3615422,-5.650809
566,2024-05-15 22:09:03.797055,-0.5537964,-0.35949633,-0.35193056,-0.09399689,1.2521974,-5.4437256
567,2024-05-15 22:09:03.813696,-0.51865214,-0.28701133,-0.31556603,-0.28031078,1.2515866,-5.215873
568,2024-05-15 22:09:03.830502,-0.3802412,-0.22111587,-0.23014598,-0.49900055,1.2686907,-5.0081787
569,2024-05-15 22:09:03.847009,-0.25162303,-0.2135501,-0.15009521,-0.542372,1.2570844,-5.0002375
570,2024-05-15 22:09:03.863650,-0.25552794,-0.24064046,-0.11324256,-0.5753587,1.1752284,-5.3203306
571,2024-05-15 22:09:03.880362,-0.4419877,-0.3109289,-0.13105874,-0.44035748,1.1239157,-5.609881
572,2024-05-15 22:09:03.896993,-0.5640468,-0.31678632,-0.15326795,-0.39759693,1.0341185,-5.857281
573,2024-05-15 22:09:03.913647,-0.67728937,-0.29579738,-0.13667206,-0.30718887,1.0848203,-6.1352253
574,2024-05-15 22:09:03.930297,-0.7505066,-0.28261828,-0.14985114,-0.26198483,1.0927615,-6.2934394
575,2024-05-15 22:09:03.945398,-1.1470995,-0.24137263,-0.28383857,-0.34933856,0.82275915,-6.7448688
576,2024-05-15 22:09:03.963759,-1.5249307,-0.21721096,-0.4127008,-1.1233048,0.22838724,-6.8175616
577,2024-05-15 22:09:03.980381,-1.5249307,-0.21721096,-0.4127008,-1.1233048,0.22838724,-6.8175616
578,2024-05-15 22:09:03.997011,-1.5249307,-0.21721096,-0.4127008,-1.1233048,0.22838724,-6.8175616
579,2024-05-15 22:09:04.013693,-1.5249307,-0.21721096,-0.4127008,-1.1233048,0.22838724,-6.8175616
580,2024-05-15 22:09:04.030333,-1.5249307,-0.21721096,-0.4127008,-1.1233048,0.22838724,-6.8175616
581,2024-05-15 22:09:04.045443,-1.5249307,-0.21721096,-0.4127008,-1.1233048,0.22838724,-6.8175616
582,2024-05-15 22:09:04.063402,-1.5249307,-0.21721096,-0.4127008,-1.1233048,0.22838724,-6.8175616
583,2024-05-15 22:09:04.080331,-1.5249307,-0.21721096,-0.4127008,-1.1233048,0.22838724,-6.8175616
584,2024-05-15 22:09:04.097003,-1.5249307,-0.21721096,-0.4127008,-1.1233048,0.22838724,-6.8175616
585,2024-05-15 22:09:04.113621,-1.5249307,-0.21721096,-0.4127008,-1.1233048,0.22838724,-6.8175616
586,2024-05-15 22:09:04.130260,-2.0933402,0.51572347,0.21403822,0.4350124,0.84047425,-3.9385536
587,2024-05-15 22:09:04.147743,-2.106519,0.530855,0.20671648,0.09231701,-0.021456642,-3.5848627
588,2024-05-15 22:09:04.163409,-2.0577078,0.5523321,0.24967057,0.023289237,-0.17539468,-3.4663548
589,2024-05-15 22:09:04.180293,-1.8465983,0.8171342,0.29091623,0.06604981,0.012140946,-3.120605
590,2024-05-15 22:09:04.196941,-1.9398282,1.0616795,0.1952458,0.060552016,0.21433735,-3.0179799
591,2024-05-15 22:09:04.212565,-2.0093844,1.0702215,0.18401916,-0.20273091,0.36766452,-3.0246992
592,2024-05-15 22:09:04.229974,-2.3142118,1.2273945,0.2884757,-0.92721707,-0.20777054,-2.9648345
593,2024-05-15 22:09:04.246878,-2.669834,1.3813945,0.73269033,-1.1795044,-0.65553474,-2.6484063
594,2024-05-15 22:09:04.263611,-2.764284,1.4756007,0.8520344,-0.9388235,-0.6359871,-2.2476788
595,2024-05-15 22:09:04.280260,-3.06301,1.7133428,0.944288,-0.14775303,-0.42157337,-1.1212431
596,2024-05-15 22:09:04.296912,-3.1474538,1.666972,0.9552705,-0.008475755,-0.46983173,-0.62949663
597,2024-05-15 22:09:04.313560,-3.0569086,1.6406139,0.97430706,0.34277177,-0.71723217,0.6258314
598,2024-05-15 22:09:04.330238,-2.9627023,1.4741364,0.8510581,0.8956048,-1.0855839,2.010663
599,2024-05-15 22:09:04.346885,-2.7821,1.2732772,0.6484906,1.0770317,-1.3861296,3.0277536
600,2024-05-15 22:09:04.363477,-2.7074187,1.2054292,0.58381546,1.0923034,-1.4557682,3.2159002
601,2024-05-15 22:09:04.380244,-2.5592759,1.0284877,0.37291947,0.90537864,-1.8296177,3.796833
602,2024-05-15 22:09:04.396900,-2.6566546,0.8949884,0.19085276,0.30428725,-2.5058455,4.4248023
603,2024-05-15 22:09:04.413491,-2.6254153,0.85764766,0.20183535,0.11797335,-2.6768878,4.6202793
604,2024-05-15 22:09:04.428287,-2.551466,0.7858948,0.31556603,-0.059788436,-2.7294223,4.8371363
605,2024-05-15 22:09:04.446848,-2.551466,0.7858948,0.31556603,-0.109268524,-2.722092,4.9397616
606,2024-05-15 22:09:04.463469,-2.5326736,0.582107,0.4234393,-0.014584408,-2.926121,5.4235673
607,2024-05-15 22:09:04.480118,-2.4447825,0.45321432,0.44906533,0.26580274,-3.587688,5.68685
608,2024-05-15 22:09:04.496760,-2.4711406,0.3773125,0.43076107,0.47166434,-3.7770562,5.796195
609,2024-05-15 22:09:04.513437,-2.370101,0.24869433,0.35827604,0.8833875,-3.8778489,6.104682
610,2024-05-15 22:09:04.529203,-2.0987093,0.11275445,0.17523311,1.5956564,-3.083724,6.3636885
611,2024-05-15 22:09:04.546489,-2.0694225,0.059305906,0.09786696,1.669571,-2.9505556,6.37896
612,2024-05-15 22:09:04.563411,-1.9066361,-0.00048811449,-0.013911263,1.7404314,-2.8809168,6.430273
613,2024-05-15 22:09:04.580069,-1.4878035,-0.13398743,-0.2020794,1.728825,-3.0763938,6.266561
614,2024-05-15 22:09:04.595001,-1.2125069,-0.17962612,-0.3109289,1.6408604,-3.0318005,5.9647937
615,2024-05-15 22:09:04.613143,-1.2125069,-0.17962612,-0.3109289,1.6408604,-3.0318005,5.9647937
616,2024-05-15 22:09:04.630098,-1.2125069,-0.17962612,-0.3109289,1.6408604,-3.0318005,5.9647937
617,2024-05-15 22:09:04.646710,-1.2125069,-0.17962612,-0.3109289,1.6408604,-3.0318005,5.9647937
618,2024-05-15 22:09:04.662456,-1.2125069,-0.17962612,-0.3109289,1.6408604,-3.0318005,5.9647937
619,2024-05-15 22:09:04.679764,-1.2125069,-0.17962612,-0.3109289,1.6408604,-3.0318005,5.9647937
620,2024-05-15 22:09:04.696719,-1.2125069,-0.17962612,-0.3109289,1.6408604,-3.0318005,5.9647937
621,2024-05-15 22:09:04.713366,-1.2125069,-0.17962612,-0.3109289,1.6408604,-3.0318005,5.9647937
622,2024-05-15 22:09:04.728493,-1.2125069,-0.17962612,-0.3109289,1.6408604,-3.0318005,5.9647937
623,2024-05-15 22:09:04.746427,-0.6399486,-0.55818945,-0.08908089,0.43317983,-2.4319308,4.8682904
624,2024-05-15 22:09:04.763360,-0.4058672,-0.67924184,-0.07004443,1.533959,-2.023262,5.1101933
625,2024-05-15 22:09:04.780007,-0.33094162,-0.8617967,-0.33484653,1.9945514,-1.8387808,5.210986
626,2024-05-15 22:09:04.797465,-0.33094162,-0.8617967,-0.33484653,1.8815414,-1.8198439,5.2616878
627,2024-05-15 22:09:04.813316,-0.017816179,-1.1185449,-0.6733844,1.6530777,-1.7636443,5.1217995
628,2024-05-15 22:09:04.828037,0.39708114,-1.2147034,-0.8381231,1.6646842,-1.4282793,4.802317
629,2024-05-15 22:09:04.846371,0.7317141,-1.217632,-1.1129316,0.9469175,-0.3928627,3.4303138
630,2024-05-15 22:09:04.863321,0.73024976,-1.2132391,-1.1139078,0.80214244,-0.38492146,3.3008103
631,2024-05-15 22:09:04.879983,0.5701482,-1.1156161,-0.8954765,-1.0035752,-2.1759784,2.3808472
632,2024-05-15 22:09:04.896647,0.5701482,-1.1156161,-0.8954765,-1.2094368,-2.6145797,2.2079725
633,2024-05-15 22:09:04.912388,0.5957743,-0.9643007,-0.26162934,-0.9406561,-3.111213,1.7461584
634,2024-05-15 22:09:04.929765,0.37291947,-0.91622144,-0.40830776,0.6146068,-3.070285,1.643533
635,2024-05-15 22:09:04.947400,0.21672285,-0.8771723,-0.73854774,1.0275517,-2.9139035,1.8860464
636,2024-05-15 22:09:04.980712,1.3389286,-1.4817021,-0.96210414,0.7758752,-2.3757312,3.0931163
637,2024-05-15 22:09:04.997461,1.5759387,-1.6301193,-0.9535622,1.7770834,-1.2853369,2.7528641
638,2024-05-15 22:09:05.014017,2.0201228,-1.9317741,-1.5254189,3.1075478,0.104992464,2.2208006
639,2024-05-15 22:09:05.029919,2.0779645,-1.9776568,-1.6262144,3.120376,0.188681,2.1890357
640,2024-05-15 22:09:05.047469,2.4870045,-2.2795556,-2.0735714,1.7550923,0.85330236,1.2867876
641,2024-05-15 22:09:05.063094,2.6483567,-2.3234859,-1.8048644,1.275563,0.8270352,0.64965516
642,2024-05-15 22:09:05.079885,2.7066865,-2.2522213,-1.2879206,1.4331663,0.7317402,-1.1499538
643,2024-05-15 22:09:05.096554,2.362047,-2.148741,-1.2459428,1.855885,0.7616726,-2.5720482
644,2024-05-15 22:09:05.113196,1.6913778,-1.9686267,-1.3914008,1.9756145,0.8667414,-3.8658607
645,2024-05-15 22:09:05.129898,1.1366051,-1.8519673,-1.4948812,1.6390278,0.78916156,-4.3288965
646,2024-05-15 22:09:05.146597,0.42905265,-1.4397242,-1.1722375,0.5419138,0.6822601,-4.5598035
647,2024-05-15 22:09:05.163289,0.35998443,-1.3274579,-1.0184815,0.3684281,0.81848305,-4.6282206
648,2024-05-15 22:09:05.179901,0.16180995,-1.0814482,-0.6633781,0.53763777,1.1312461,-4.71252
649,2024-05-15 22:09:05.196555,0.09005712,-0.9362341,-0.5969946,1.2279155,1.757383,-4.6001205
650,2024-05-15 22:09:05.213268,0.03294773,-0.78028154,-0.67850965,1.7954093,2.2821162,-4.4437394
651,2024-05-15 22:09:05.228478,0.05759751,-0.65117526,-0.8637491,1.7844137,2.4788148,-4.160298
652,2024-05-15 22:09:05.246619,0.10470056,-0.6126142,-0.87155896,1.6585755,2.4659867,-4.1383066
653,2024-05-15 22:09:05.263263,0.10470056,-0.6126142,-0.87155896,1.6585755,2.4659867,-4.1383066
654,2024-05-15 22:09:05.279918,0.10470056,-0.6126142,-0.87155896,1.6585755,2.4659867,-4.1383066
655,2024-05-15 22:09:05.296540,0.10470056,-0.6126142,-0.87155896,1.6585755,2.4659867,-4.1383066
656,2024-05-15 22:09:05.313252,0.10470056,-0.6126142,-0.87155896,1.6585755,2.4659867,-4.1383066
657,2024-05-15 22:09:05.329879,0.10470056,-0.6126142,-0.87155896,1.6585755,2.4659867,-4.1383066
658,2024-05-15 22:09:05.346568,0.10470056,-0.6126142,-0.87155896,1.6585755,2.4659867,-4.1383066
659,2024-05-15 22:09:05.364101,0.10470056,-0.6126142,-0.87155896,1.6585755,2.4659867,-4.1383066
660,2024-05-15 22:09:05.379894,0.10470056,-0.6126142,-0.87155896,1.6585755,2.4659867,-4.1383066
661,2024-05-15 22:09:05.396481,0.10470056,-0.6126142,-0.87155896,1.6585755,2.4659867,-4.1383066
662,2024-05-15 22:09:05.413169,-0.2511349,-0.1398448,0.12764193,-0.12454015,0.7195229,-5.1615057
663,2024-05-15 22:09:05.429872,-0.3590082,-0.122760795,0.0021965152,0.19127718,0.72929674,-5.1401258
664,2024-05-15 22:09:05.446531,-0.3448529,-0.08590815,-0.1181237,0.07887798,0.5771913,-5.1150804
665,2024-05-15 22:09:05.464023,-0.34851375,-0.09689073,-0.13496366,0.0012980887,0.48128545,-5.168836
666,2024-05-15 22:09:05.479862,-0.40733153,-0.15936938,-0.22746135,-0.37804922,0.12576188,-5.554292
667,2024-05-15 22:09:05.496502,-0.6155429,-0.26162934,-0.20744865,-0.687147,-0.06116288,-5.87744
668,2024-05-15 22:09:05.513186,-0.6155429,-0.26162934,-0.20744865,-0.82275915,-0.10758864,-6.0045
669,2024-05-15 22:09:05.529833,-0.9860218,-0.234539,-0.07516963,-0.9699777,0.06650795,-6.1431665
670,2024-05-15 22:09:05.546497,-1.2322756,-0.10958171,-0.04637088,-0.7586183,0.56925005,-5.6984563
671,2024-05-15 22:09:05.563156,-1.2322756,-0.10958171,-0.04637088,-0.7586183,0.56925005,-5.6984563
672,2024-05-15 22:09:05.579789,-1.3081774,-0.088836834,0.004881145,-0.5099961,1.0383946,-5.410128
673,2024-05-15 22:09:05.595221,-1.3967701,-0.05515694,-0.026846299,-0.34017557,1.1080332,-5.400965
674,2024-05-15 22:09:05.613178,-1.5547056,0.04905551,-0.14570218,-0.7244098,0.5576436,-5.454721
675,2024-05-15 22:09:05.629785,-1.658674,0.20159128,-0.033435844,-1.040838,0.33040175,-5.2048774
676,2024-05-15 22:09:05.646464,-1.722861,0.25552794,0.18865626,-0.7549531,0.9376018,-4.699081
677,2024-05-15 22:09:05.663078,-1.7660593,0.2945771,0.15961345,-0.60468024,1.2021065,-4.6007314
678,2024-05-15 22:09:05.679730,-1.8275617,0.3746279,0.036608588,-0.6639342,1.1850022,-4.543921
679,2024-05-15 22:09:05.696393,-1.8375679,0.5552608,0.2801777,-1.4482851,0.37560576,-4.189008
680,2024-05-15 22:09:05.713040,-1.8563606,0.57112443,0.44491637,-1.3028992,0.546648,-4.1010437
681,2024-05-15 22:09:05.729767,-2.0311053,0.6262814,0.47786412,-1.0102948,0.922941,-3.9025126
682,2024-05-15 22:09:05.746380,-2.084798,0.6660627,0.40147418,-1.0512227,0.8899543,-3.705203
683,2024-05-15 22:09:05.763873,-1.9742401,0.8181104,0.6177394,-1.1196396,0.9156107,-3.2867606
684,2024-05-15 22:09:05.779504,-1.978389,0.86057633,0.8779044,-0.85208064,1.1581241,-3.148705
685,2024-05-15 22:09:05.796417,-2.0916317,0.9081675,0.8469091,-0.17707457,1.4965435,-3.0234776
686,2024-05-15 22:09:05.812997,-2.3930423,1.0619236,0.6233527,-0.22716552,1.0603857,-2.8182268
687,2024-05-15 22:09:05.829725,-2.5534184,1.1841964,0.7231721,-0.7946593,0.1043816,-2.5146267
688,2024-05-15 22:09:05.846320,-2.75623,1.297927,1.0902342,-0.82031566,0.08422305,-1.8212948
689,2024-05-15 22:09:05.863044,-2.8026009,1.3338034,1.246919,-0.60834545,0.056123246,-1.4511104
690,2024-05-15 22:09:05.879694,-3.0300624,1.4023834,1.3101298,-0.20334177,-0.3299436,-0.54641896
691,2024-05-15 22:09:05.896372,-3.0952256,1.3777337,1.336732,0.10331258,-0.7227299,0.23243423
692,2024-05-15 22:09:05.912980,-3.0952256,1.3777337,1.336732,0.10331258,-0.7227299,0.23243423
693,2024-05-15 22:09:05.927966,-3.0952256,1.3777337,1.336732,0.10331258,-0.7227299,0.23243423
694,2024-05-15 22:09:05.945997,-3.0952256,1.3777337,1.336732,0.10331258,-0.7227299,0.23243423
695,2024-05-15 22:09:05.962949,-3.0952256,1.3777337,1.336732,0.10331258,-0.7227299,0.23243423
696,2024-05-15 22:09:05.979614,-3.0952256,1.3777337,1.336732,0.10331258,-0.7227299,0.23243423
697,2024-05-15 22:09:05.994769,-3.0952256,1.3777337,1.336732,0.10331258,-0.7227299,0.23243423
698,2024-05-15 22:09:06.012690,-3.0952256,1.3777337,1.336732,0.10331258,-0.7227299,0.23243423
699,2024-05-15 22:09:06.029599,-2.7511048,0.366574,0.4097721,1.6371952,-3.0043116,4.245208
700,2024-05-15 22:09:06.046231,-2.5402393,0.14521407,0.2421048,1.8204548,-2.9865966,5.088202
701,2024-05-15 22:09:06.061698,-2.521447,0.091033354,0.21306199,1.8821522,-3.0928872,5.2354207
702,2024-05-15 22:09:06.079564,-2.493106,-0.011958805,0.15839316,2.0531945,-3.4221435,5.5206947
703,2024-05-15 22:09:06.096251,-2.4377048,-0.06809197,0.061014313,2.2981515,-3.5553122,5.7467146
704,2024-05-15 22:09:06.111461,-2.344231,-0.17987019,-0.1415532,2.640236,-3.4068718,6.1114016
705,2024-05-15 22:09:06.129583,-2.2973719,-0.20696054,-0.20232345,2.653675,-3.3573918,6.148664
706,2024-05-15 22:09:06.146213,-2.0186586,-0.29726174,-0.35022214,2.6500099,-2.4227679,6.5066314
707,2024-05-15 22:09:06.162876,-1.7853397,-0.36096066,-0.5118186,2.59381,-2.0489185,6.656293
708,2024-05-15 22:09:06.179293,-1.6462271,-0.36730617,-0.6138345,2.4343743,-2.0702987,6.7283754
709,2024-05-15 22:09:06.196213,-1.5481162,-0.40684342,-0.66264594,1.8302287,-2.1203897,6.753421
710,2024-05-15 22:09:06.213698,-1.016773,-0.6087093,-0.5755175,1.4411075,-1.5528958,6.62575
711,2024-05-15 22:09:06.228256,-1.016773,-0.6087093,-0.5755175,1.4411075,-1.5528958,6.62575
712,2024-05-15 22:09:06.246206,-0.8703387,-0.63799614,-0.5652671,1.3464234,-1.0562624,6.416834
713,2024-05-15 22:09:06.262838,-0.85764766,-0.71243364,-0.51914024,1.1295662,-0.7899251,6.3520823
714,2024-05-15 22:09:06.279495,-0.8022467,-0.7290295,-0.44686884,1.0073931,-0.78076214,6.4033947
715,2024-05-15 22:09:06.294800,-0.74831,-0.79248434,-0.3053156,0.9322567,-0.813138,6.537174
716,2024-05-15 22:09:06.312544,-0.6599613,-0.85593927,-0.17401282,1.0342712,-0.98051506,6.6196413
717,2024-05-15 22:09:06.329506,-0.48665017,-0.91109616,-0.17547716,1.084973,-1.0416017,6.49869
718,2024-05-15 22:09:06.346970,-0.44686884,-0.9125605,-0.19085276,1.0910817,-1.0299952,6.32948
719,2024-05-15 22:09:06.362030,-0.66215783,-1.0653404,-0.2604091,0.9689086,-1.3213779,6.064365
720,2024-05-15 22:09:06.379469,-0.59357774,-1.182732,-0.127886,1.0654254,-1.4802028,6.436382
721,2024-05-15 22:09:06.396119,-0.41148052,-1.3445419,-0.119343996,1.2877803,-1.483868,6.612311
722,2024-05-15 22:09:06.412770,0.11519502,-1.5510448,-0.2272173,1.2609022,-0.6109416,6.2109723
723,2024-05-15 22:09:06.429435,0.1330112,-1.5969275,-0.31141704,1.135064,-0.5241987,6.1107903
724,2024-05-15 22:09:06.444639,0.1871919,-1.8146267,-0.42807645,-0.014584408,-1.7795268,5.382028
725,2024-05-15 22:09:06.462497,0.36144876,-1.7838755,-0.3995217,0.0978148,-2.485687,4.430911
726,2024-05-15 22:09:06.479457,0.3385074,-1.7777741,-0.44808912,0.20288362,-2.4740806,4.2684207
727,2024-05-15 22:09:06.496949,0.08151512,-1.7533684,-0.79590124,0.6311002,-2.0525837,3.67466
728,2024-05-15 22:09:06.512731,0.33094162,-2.0750358,-1.1009728,0.65919995,-1.9786689,3.7626245
729,2024-05-15 22:09:06.529389,1.1197652,-2.4772422,-1.2888968,0.83635086,-1.1643856,3.7986655
730,2024-05-15 22:09:06.546046,1.1197652,-2.4772422,-1.2888968,0.83635086,-1.1643856,3.7986655
731,2024-05-15 22:09:06.562708,1.1197652,-2.4772422,-1.2888968,0.83635086,-1.1643856,3.7986655
732,2024-05-15 22:09:06.579371,1.1197652,-2.4772422,-1.2888968,0.83635086,-1.1643856,3.7986655
733,2024-05-15 22:09:06.597076,1.1197652,-2.4772422,-1.2888968,0.83635086,-1.1643856,3.7986655
734,2024-05-15 22:09:06.612782,1.1197652,-2.4772422,-1.2888968,0.83635086,-1.1643856,3.7986655
735,2024-05-15 22:09:06.629452,1.1197652,-2.4772422,-1.2888968,0.83635086,-1.1643856,3.7986655
736,2024-05-15 22:09:06.646071,2.2927349,-2.8074822,-0.5469628,0.78198385,0.69631004,-2.5665503
737,2024-05-15 22:09:06.662801,2.2927349,-2.8074822,-0.5469628,0.78198385,0.69631004,-2.5665503
738,2024-05-15 22:09:06.679450,2.2927349,-2.8074822,-0.5469628,0.78198385,0.69631004,-2.5665503
739,2024-05-15 22:09:06.696112,0.67850965,-1.8995585,-0.9957841,2.7593546,0.5594762,-5.731443
740,2024-05-15 22:09:06.712748,0.17352471,-1.4299619,-0.9884624,2.1570415,0.7213555,-5.8872137
741,2024-05-15 22:09:06.729395,0.04881145,-1.1558856,-0.8483735,1.8888717,0.9162215,-5.895155
742,2024-05-15 22:09:06.746087,0.022209208,-1.063876,-0.7741801,1.8577175,0.98219496,-5.931196
743,2024-05-15 22:09:06.762742,-0.008053889,-1.0087191,-0.7187791,1.8705457,1.1068115,-6.0655866
744,2024-05-15 22:09:06.780383,-0.08932495,-0.8927919,-0.6641103,1.8681023,1.1141418,-6.1187315
745,2024-05-15 22:09:06.796073,-0.25089085,-0.7419645,-0.6675271,1.5638914,1.0316751,-6.3429193
746,2024-05-15 22:09:06.812720,-0.50571716,-0.6040722,-0.6770453,1.0483211,0.6859253,-6.194479
747,2024-05-15 22:09:06.829329,-0.46590528,-0.42099872,-0.539397,0.28351784,0.46234864,-5.762597
748,2024-05-15 22:09:06.846033,-0.4356422,-0.38512233,-0.40684342,0.056886826,0.5448154,-5.664859
749,2024-05-15 22:09:06.862727,-0.34338856,-0.3128814,-0.17742962,0.017180584,0.8337547,-5.587279
750,2024-05-15 22:09:06.879356,-0.29652956,-0.25699228,-0.05222825,0.1821142,0.986471,-5.55979
751,2024-05-15 22:09:06.896026,-0.2779812,-0.23893206,-0.009030119,0.31283936,0.95776033,-5.561012
752,2024-05-15 22:09:06.912822,-0.32850105,-0.21403822,-0.058085624,0.3036764,0.7066947,-5.60927
753,2024-05-15 22:09:06.929321,-0.38194957,-0.18133454,-0.14497001,-0.14225525,0.15386169,-5.554903
754,2024-05-15 22:09:06.946004,-0.3699908,-0.21721096,-0.087616555,-0.33406693,0.09155343,-5.5524597
755,2024-05-15 22:09:06.962662,-0.38439015,-0.2277054,0.19597797,-0.17402023,0.53443074,-5.6111026
756,2024-05-15 22:09:06.979355,-0.4742032,-0.24698594,0.1803583,0.51809007,0.7085273,-5.8249054
757,2024-05-15 22:09:06.996037,-0.52499765,-0.23942018,0.0388051,0.65736735,0.4537965,-6.0564237
758,2024-05-15 22:09:07.012661,-0.7195113,-0.19134088,-0.35583547,0.10942124,-0.53275084,-6.77419
759,2024-05-15 22:09:07.029331,-0.820551,-0.21330604,-0.3995217,-0.2467132,-0.8656724,-7.0313644
760,2024-05-15 22:09:07.045980,-1.3996987,-0.1986626,-0.35071027,-1.5429692,-1.2468523,-7.154148
761,2024-05-15 22:09:07.062577,-1.5141922,-0.17108414,-0.21599068,-1.8484019,-0.32872185,-6.3569694
762,2024-05-15 22:09:07.096640,-1.5749625,0.0370967,0.3355787,-0.3279583,1.335275,-5.5805593
763,2024-05-15 22:09:07.113287,-1.5881416,0.08346757,0.26943922,-0.16791159,1.1911108,-5.482821
764,2024-05-15 22:09:07.128913,-1.602785,0.19134088,-0.026358182,-0.33406693,0.45501825,-5.346598
765,2024-05-15 22:09:07.145927,-1.7192001,0.15570852,-0.05906185,-0.7726682,0.10682506,-5.23481
766,2024-05-15 22:09:07.163177,-1.9459295,0.15107143,0.13764828,-1.0310642,0.30352366,-4.7412305
767,2024-05-15 22:09:07.178843,-1.9459295,0.15107143,0.13764828,-1.0310642,0.30352366,-4.7412305
768,2024-05-15 22:09:07.195897,-1.9459295,0.15107143,0.13764828,-1.0310642,0.30352366,-4.7412305
769,2024-05-15 22:09:07.212552,-1.9459295,0.15107143,0.13764828,-1.0310642,0.30352366,-4.7412305
770,2024-05-15 22:09:07.229214,-1.9459295,0.15107143,0.13764828,-1.0310642,0.30352366,-4.7412305
771,2024-05-15 22:09:07.245930,-1.9459295,0.15107143,0.13764828,-1.0310642,0.30352366,-4.7412305
772,2024-05-15 22:09:07.262594,-1.9459295,0.15107143,0.13764828,-1.0310642,0.30352366,-4.7412305
773,2024-05-15 22:09:07.279223,-1.6620909,0.417826,0.18548352,-0.49472448,0.102549,-3.7974439
774,2024-05-15 22:09:07.295912,-1.6620909,0.417826,0.18548352,-0.49472448,0.102549,-3.7974439
775,2024-05-15 22:09:07.312575,-1.9842464,0.87644005,0.070532545,0.53397256,0.8093201,-3.4999523
776,2024-05-15 22:09:07.329226,-2.6215105,1.0829124,0.07809832,-0.08055785,0.25343272,-3.691764
777,2024-05-15 22:09:07.345843,-2.6551905,1.0919427,0.09884319,-0.8197048,-0.29145908,-3.5317173
778,2024-05-15 22:09:07.362559,-3.1430607,1.3545482,0.67948586,-1.2228758,-0.5803983,-2.1096232
779,2024-05-15 22:09:07.379166,-3.2353144,1.4629096,0.9581992,-0.8636871,-0.56573755,-0.8671232
780,2024-05-15 22:09:07.395886,-3.2360466,1.4680349,1.0450836,-0.7060839,-0.53397256,-0.52503866
781,2024-05-15 22:09:07.412505,-3.0591052,1.3828589,1.1856606,0.53397256,-0.51625746,1.0809261
782,2024-05-15 22:09:07.429143,-2.9041288,1.2420379,0.7758885,1.0562624,-1.0049497,2.0387628
783,2024-05-15 22:09:07.446619,-2.7950351,1.0453277,0.54793906,1.0562624,-1.0049497,2.0387628
784,2024-05-15 22:09:07.462399,-2.7950351,1.0453277,0.54793906,1.0562624,-1.0049497,2.0387628
785,2024-05-15 22:09:07.478153,-2.615653,0.7758885,0.51718783,0.6720281,-1.8161787,3.6783252
786,2024-05-15 22:09:07.495472,-2.57636,0.7016951,0.48665017,0.62560236,-2.0299816,3.9440515
787,2024-05-15 22:09:07.512444,-2.5868542,0.57917833,0.44101146,0.4808273,-2.6634488,4.313014
788,2024-05-15 22:09:07.529081,-2.594664,0.56209433,0.42563587,0.4808273,-2.6634488,4.313014
789,2024-05-15 22:09:07.544506,-2.7447593,0.48494175,0.41880223,0.28657216,-3.4276412,4.6453247
790,2024-05-15 22:09:07.562406,-2.931219,0.22111587,0.7680787,0.92309374,-3.320129,5.6483655
791,2024-05-15 22:09:07.579076,-3.0349436,0.05759751,0.684123,2.0067687,-3.061733,6.3997297
792,2024-05-15 22:09:07.595747,-3.0488546,0.020012695,0.6131023,2.1387155,-3.1185434,6.5383964
793,2024-05-15 22:09:07.611404,-2.9065695,-0.27090356,0.1696198,2.472859,-3.8760164,7.333132
794,2024-05-15 22:09:07.628777,-2.743539,-0.34704942,0.0993313,2.7196484,-3.6933677,7.4027705
795,2024-05-15 22:09:07.644079,-2.4672356,-0.366574,-0.10372432,2.7196484,-3.6933677,7.4027705
796,2024-05-15 22:09:07.662030,-2.050386,-0.37706846,-0.66020536,2.1478786,-3.2486577,7.5567083
797,2024-05-15 22:09:07.679039,-1.5717896,-0.50620526,-0.5023003,1.7392097,-3.1503084,7.717977
798,2024-05-15 22:09:07.696736,-1.1153722,-0.57795805,-0.43979117,1.9322431,-2.7025442,7.4565268
799,2024-05-15 22:09:07.711143,-0.9452642,-0.5950421,-0.41880223,2.0153208,-2.2333996,7.3349643
800,2024-05-15 22:09:07.728732,-0.87595195,-0.72927356,-0.025870068,2.0715203,-1.7324902,7.328856
801,2024-05-15 22:09:07.745688,-0.8522784,-0.7746682,0.1164153,2.6475663,-0.4637231,7.7607374
802,2024-05-15 22:09:07.761481,-0.45638704,-0.9294005,0.025137896,3.460628,0.18807013,7.9097886
803,2024-05-15 22:09:07.778987,-0.28261828,-0.9706462,-0.2848148,3.3989305,-0.0067958757,7.585419
804,2024-05-15 22:09:07.795672,-0.1849954,-0.9577111,-0.4229512,3.143589,-0.13629931,7.453472
805,2024-05-15 22:09:07.812319,-0.050763905,-0.923055,-0.63579965,2.6518424,-0.3000112,7.1956873
806,2024-05-15 22:09:07.828970,-0.050763905,-0.923055,-0.63579965,2.6518424,-0.3000112,7.1956873
807,2024-05-15 22:09:07.845629,-0.050763905,-0.923055,-0.63579965,2.6518424,-0.3000112,7.1956873
808,2024-05-15 22:09:07.860895,-0.050763905,-0.923055,-0.63579965,2.6518424,-0.3000112,7.1956873
809,2024-05-15 22:09:07.878701,-0.050763905,-0.923055,-0.63579965,2.6518424,-0.3000112,7.1956873
810,2024-05-15 22:09:07.895637,-0.050763905,-0.923055,-0.63579965,2.6518424,-0.3000112,7.1956873
811,2024-05-15 22:09:07.912280,-0.050763905,-0.923055,-0.63579965,2.6518424,-0.3000112,7.1956873
812,2024-05-15 22:09:07.928916,-0.050763905,-0.923055,-0.63579965,2.6518424,-0.3000112,7.1956873
813,2024-05-15 22:09:07.945621,-0.050763905,-0.923055,-0.63579965,2.6518424,-0.3000112,7.1956873
814,2024-05-15 22:09:07.963150,-0.050763905,-0.923055,-0.63579965,2.6518424,-0.3000112,7.1956873
815,2024-05-15 22:09:07.978298,-0.30433938,-1.1571059,-0.5130389,-1.2485322,-1.5645022,4.237878
816,2024-05-15 22:09:07.995601,-0.37609223,-1.1500282,-0.45297024,-1.7854828,-1.742264,4.036903
817,2024-05-15 22:09:08.011009,-0.20159128,-1.1580821,-0.10982577,-1.6675857,-1.63353,3.9574904
818,2024-05-15 22:09:08.028653,0.020988923,-1.2420379,-0.14277348,-1.2326497,-1.4044555,3.7271943
819,2024-05-15 22:09:08.045600,0.059549972,-1.3145229,-0.18182266,-1.0530553,-1.3714688,3.5964692
820,2024-05-15 22:09:08.062200,0.29823795,-1.5283475,-0.4424758,-0.64194304,-1.6188693,3.0289752
821,2024-05-15 22:09:08.078856,0.15277983,-1.9283574,-0.7600248,-0.20945042,-1.846722,2.8554895
822,2024-05-15 22:09:08.096273,0.1313028,-2.1729026,-0.88937515,-0.07078401,-1.7410423,3.0161471
823,2024-05-15 22:09:08.111900,0.5193843,-2.6005213,-1.1143959,0.111253835,-0.7581601,3.3600643
824,2024-05-15 22:09:08.128900,1.1497842,-3.3002336,-1.0365417,-0.041462477,0.9883036,2.7577512
825,2024-05-15 22:09:08.145550,1.3330712,-3.4012735,-0.9362341,0.031841353,1.2259302,2.2989914
826,2024-05-15 22:09:08.162271,1.6232858,-3.5360236,-0.7988299,0.28351784,1.2289845,1.0961977
827,2024-05-15 22:09:08.178930,1.7443382,-3.5963056,-0.74367297,0.64148486,0.80321145,-2.5024095
828,2024-05-15 22:09:08.195588,1.5312762,-3.3541703,-0.6860754,0.7208974,0.53809595,-3.2824843
829,2024-05-15 22:09:08.212197,0.8649694,-2.8492157,-0.66825926,1.0959686,-0.5125923,-5.540242
830,2024-05-15 22:09:08.228896,0.37658033,-2.537799,-0.68851596,1.3342061,-0.8870527,-6.5866547
831,2024-05-15 22:09:08.245584,0.08566409,-2.3596065,-0.71048117,1.502194,-0.8467356,-6.8578787
832,2024-05-15 22:09:08.262257,-0.29872608,-2.0347662,-0.735619,1.8430568,-0.39041924,-6.793738
833,2024-05-15 22:09:08.278883,-0.28408262,-1.628655,-0.80663973,2.3977225,0.628504,-6.2158594
834,2024-05-15 22:09:08.295538,-0.24112856,-1.5378658,-0.83006924,2.4417048,0.78732896,-6.1517186
835,2024-05-15 22:09:08.312230,-0.13569583,-1.3259935,-0.8671659,2.2889884,0.7439575,-6.231131
836,2024-05-15 22:09:08.328885,-0.09835507,-1.1031693,-0.7712514,1.9035325,0.5069418,-6.7778554
837,2024-05-15 22:09:08.345562,-0.20842488,-1.0448396,-0.7944369,1.7990745,0.43241623,-6.8841457
838,2024-05-15 22:09:08.362158,-0.38536638,-0.9623482,-0.8798569,1.52052,0.26015225,-6.8823133
839,2024-05-15 22:09:08.378794,-0.43637437,-0.7729598,-0.7502625,0.7355581,0.34933856,-6.6019263
840,2024-05-15 22:09:08.395521,-0.36388937,-0.6467822,-0.58259517,0.50465107,0.68042755,-6.5793242
841,2024-05-15 22:09:08.413069,-0.3243521,-0.51743186,-0.42783237,0.4191299,0.76289433,-6.7344837
842,2024-05-15 22:09:08.428862,-0.47151858,-0.48006064,-0.47713193,0.12408201,0.51854825,-6.997156
843,2024-05-15 22:09:08.445481,-0.47151858,-0.48006064,-0.47713193,0.12408201,0.51854825,-6.997156
844,2024-05-15 22:09:08.462184,-0.58650005,-0.41465324,-0.56721956,0.12408201,0.51854825,-6.997156
845,2024-05-15 22:09:08.478848,-0.58650005,-0.41465324,-0.56721956,0.12408201,0.51854825,-6.997156
846,2024-05-15 22:09:08.495529,-0.58650005,-0.41465324,-0.56721956,0.12408201,0.51854825,-6.997156
847,2024-05-15 22:09:08.512173,-0.58650005,-0.41465324,-0.56721956,0.12408201,0.51854825,-6.997156
848,2024-05-15 22:09:08.528830,-0.58650005,-0.41465324,-0.56721956,-0.27969992,0.36216673,-6.8670416
849,2024-05-15 22:09:08.545435,-0.58650005,-0.41465324,-0.56721956,-0.27969992,0.36216673,-6.8670416
850,2024-05-15 22:09:08.562158,-0.58650005,-0.41465324,-0.56721956,-0.27969992,0.36216673,-6.8670416
851,2024-05-15 22:09:08.578882,-0.42051062,-0.22013964,-0.008542004,-1.1526264,0.46845728,-6.4455447
852,2024-05-15 22:09:08.595445,-1.1178128,-0.06980037,0.1701079,-0.7885507,0.6278931,-6.9214087
853,2024-05-15 22:09:08.612106,-1.2942661,0.008297946,0.087616555,-0.34078646,0.9675342,-6.7265425
854,2024-05-15 22:09:08.628791,-1.4358193,0.058817793,-0.22013964,0.08926269,1.5741234,-6.27267
855,2024-05-15 22:09:08.645408,-1.3660189,0.14985114,-0.52597386,-1.2277628,1.326112,-5.9250875
856,2024-05-15 22:09:08.662051,-1.370412,0.1513155,-0.48567393,-1.6376534,1.0988702,-5.944635
857,2024-05-15 22:09:08.678764,-1.477065,0.20842488,0.09054524,-1.9766836,1.1306353,-5.6367593
858,2024-05-15 22:09:08.695376,-1.6908896,0.277005,0.29042813,-1.2167672,1.8642844,-5.1120257
859,2024-05-15 22:09:08.712092,-1.7594697,0.29018408,0.23722363,-1.0316751,1.9662988,-4.871345
860,2024-05-15 22:09:08.728739,-1.6459831,0.39415246,0.12568948,-1.0280099,1.4812719,-4.3246207
861,2024-05-15 22:09:08.746393,-1.5837485,0.40903994,0.16571487,-1.1459068,1.2845732,-4.226882
862,2024-05-15 22:09:08.762084,-1.6403698,0.4080637,0.34216827,-1.1233048,1.2014955,-4.062559
863,2024-05-15 22:09:08.778730,-1.8446457,0.41172457,0.33899552,-1.1147528,0.8282569,-3.6496143
864,2024-05-15 22:09:08.793977,-1.7921735,0.49519217,0.4898229,-1.4324026,0.014584408,-2.8341093
865,2024-05-15 22:09:08.811976,-1.7921735,0.49519217,0.4898229,-1.4324026,0.014584408,-2.8341093
866,2024-05-15 22:09:08.828620,-1.714319,0.51572347,0.72927356,-1.2790755,0.1043816,-2.5799894
867,2024-05-15 22:09:08.845342,-1.671609,0.58576787,0.7007189,0.96524346,0.76411605,-1.8854356
868,2024-05-15 22:09:08.861992,-1.6188927,0.6719201,0.6070009,1.0568732,0.6969209,-1.8738291
869,2024-05-15 22:09:08.878672,-1.5742302,0.81640196,0.37926495,0.813138,0.58696514,-1.7650951
870,2024-05-15 22:09:08.894061,-1.4324025,1.0316606,0.29897013,0.6292676,0.7195229,-1.8414533
871,2024-05-15 22:09:08.911668,-1.5727658,1.1666241,0.20500809,0.08498663,0.8667414,-2.2079725
872,2024-05-15 22:09:08.928682,-1.824877,1.2986591,0.17132819,-0.48311806,0.6547712,-2.4309382
873,2024-05-15 22:09:08.945330,-2.2024336,1.3979905,0.47981656,-1.7897588,-0.110032104,-2.5610526
874,2024-05-15 22:09:08.962007,-2.3976796,1.4419208,0.8017586,-2.001729,-0.19799669,-2.381458
875,2024-05-15 22:09:08.978652,-2.995162,1.7384807,1.4497305,-1.1416308,-0.10636691,-0.67347896
876,2024-05-15 22:09:08.995274,-3.0422652,1.7126108,1.5112635,-0.74334663,-0.22182044,0.07971791
877,2024-05-15 22:09:09.011988,-2.900956,1.6179165,1.57301,-0.026801713,-0.6830237,1.2647965
878,2024-05-15 22:09:09.028648,-2.6488447,1.3774897,1.3999429,0.6970736,-1.3238213,2.2342396
879,2024-05-15 22:09:09.047248,-2.6215105,1.1263547,1.170285,1.039769,-1.9615647,2.9165761
880,2024-05-15 22:09:09.061885,-2.5929558,0.9852896,1.0755908,1.107575,-2.2077434,3.247054
881,2024-05-15 22:09:09.078459,-2.4669917,0.7063322,0.8761961,1.2230285,-2.6121361,4.0063596
882,2024-05-15 22:09:09.094045,-2.3786428,0.6216443,0.76246536,1.2364676,-2.8467083,4.286747
883,2024-05-15 22:09:09.111611,-2.3786428,0.6216443,0.76246536,1.2364676,-2.8467083,4.286747
884,2024-05-15 22:09:09.128562,-2.3786428,0.6216443,0.76246536,1.2364676,-2.8467083,4.286747
885,2024-05-15 22:09:09.145191,-2.3786428,0.6216443,0.76246536,1.2364676,-2.8467083,4.286747
886,2024-05-15 22:09:09.160671,-2.3786428,0.6216443,0.76246536,1.2364676,-2.8467083,4.286747
887,2024-05-15 22:09:09.178528,-2.3786428,0.6216443,0.76246536,1.2364676,-2.8467083,4.286747
888,2024-05-15 22:09:09.195203,-2.3786428,0.6216443,0.76246536,1.2364676,-2.8467083,4.286747
889,2024-05-15 22:09:09.211837,-2.3786428,0.6216443,0.76246536,1.2364676,-2.8467083,4.286747
890,2024-05-15 22:09:09.227217,-2.3786428,0.6216443,0.76246536,1.2364676,-2.8467083,4.286747
891,2024-05-15 22:09:09.244781,-1.6579418,-0.008053889,0.5108423,3.9041162,-2.956664,6.031989
892,2024-05-15 22:09:09.261840,-1.769476,-0.10494461,0.3487578,4.4050255,-2.9450576,6.1187315
893,2024-05-15 22:09:09.277567,-1.8241448,-0.25406358,-0.02757847,4.9603024,-3.2394948,6.603759
894,2024-05-15 22:09:09.294973,-1.6210892,-0.34290043,-0.4097721,4.9493065,-3.387324,6.829168
895,2024-05-15 22:09:09.311826,-1.4355752,-0.3841461,-0.5725888,4.8020883,-3.2828662,6.843218
896,2024-05-15 22:09:09.328456,-0.89401215,-0.33753118,-0.8879108,4.017737,-2.1484895,6.4913597
897,2024-05-15 22:09:09.349085,-0.7827221,-0.1637624,-0.9884624,1.6182584,-0.85284424,5.923866
898,2024-05-15 22:09:09.371332,-0.7358631,-0.2042759,-0.7944369,0.2682462,-1.3965143,5.732665
899,2024-05-15 22:09:09.389611,-0.6140785,-0.29652956,-0.4322254,-0.25831965,-1.629254,5.5170293
900,2024-05-15 22:09:09.411768,-0.58723223,-0.33411437,-0.3236199,-0.028634308,-1.4417183,5.405241
901,2024-05-15 22:09:09.429463,-0.56892794,-0.400742,-0.13398743,0.28290698,-1.1320096,5.3679786
902,2024-05-15 22:09:09.445848,-0.66069347,-0.5899168,-0.033191785,1.0318278,-0.7239517,5.6434784
903,2024-05-15 22:09:09.462702,-0.47469133,-0.7932165,0.04148973,1.7343228,-0.68058026,6.1834836
904,2024-05-15 22:09:09.488734,-0.41807005,-0.8964527,0.073217176,2.1307743,-0.69646275,6.0747495
905,2024-05-15 22:09:09.515459,-0.24942651,-1.1971313,0.041733786,2.5748734,-0.49732068,5.9880066
906,2024-05-15 22:09:09.537843,-0.14911897,-1.1907858,-0.15180361,2.467972,-0.13263412,5.5988855
907,2024-05-15 22:09:09.562627,-0.27383223,-1.2608302,-0.37584817,1.4356097,-0.9835694,4.9422054
908,2024-05-15 22:09:09.579374,-0.25943285,-1.2644911,-0.39293218,1.2920563,-1.130177,4.7809367
909,2024-05-15 22:09:09.595849,-0.21281794,-1.2867004,-0.439059,1.1955396,-1.1338422,4.46573
910,2024-05-15 22:09:09.610933,-0.37413976,-1.2959745,-0.7075525,0.9371436,-0.80030984,4.1975603
911,2024-05-15 22:09:09.628379,-0.52719414,-1.3547924,-0.8981612,0.7007388,-0.8113054,4.2708645
912,2024-05-15 22:09:09.645770,-0.17303659,-1.7501955,-0.87644005,-0.18318321,-0.931035,4.886006
913,2024-05-15 22:09:09.662681,0.5664874,-2.1858377,-0.8776604,0.07948884,-0.14607315,4.284303
914,2024-05-15 22:09:09.674163,0.5664874,-2.1858377,-0.8776604,0.07948884,-0.14607315,4.284303
915,2024-05-15 22:09:09.696139,0.73220223,-2.7328005,-1.1156161,0.26580274,0.5057201,3.4852917
916,2024-05-15 22:09:09.711690,0.9211026,-3.0527596,-1.2635149,0.23587035,0.6987535,3.0839531
917,2024-05-15 22:09:09.727408,1.1624752,-3.3385506,-1.370412,-0.11965323,1.1007028,2.5793786
918,2024-05-15 22:09:09.747293,1.1624752,-3.3385506,-1.370412,-0.11965323,1.1007028,2.5793786
919,2024-05-15 22:09:09.762560,1.1624752,-3.3385506,-1.370412,-0.11965323,1.1007028,2.5793786
920,2024-05-15 22:09:09.777095,1.1624752,-3.3385506,-1.370412,-0.11965323,1.1007028,2.5793786
921,2024-05-15 22:09:09.794982,1.1624752,-3.3385506,-1.370412,-0.11965323,1.1007028,2.5793786
922,2024-05-15 22:09:09.811655,1.1624752,-3.3385506,-1.370412,-0.11965323,1.1007028,2.5793786
923,2024-05-15 22:09:09.829355,1.1624752,-3.3385506,-1.370412,-0.11965323,1.1007028,2.5793786
924,2024-05-15 22:09:09.862596,0.028066583,-1.7538564,-1.1036574,1.7599791,0.7763334,-6.35025
925,2024-05-15 22:09:09.879175,-0.05198419,-1.6284109,-1.080228,1.6506343,0.80504405,-6.50602
926,2024-05-15 22:09:09.894998,-0.05198419,-1.6284109,-1.080228,1.6506343,0.80504405,-6.50602
927,2024-05-15 22:09:09.917036,-0.28383857,-1.1244023,-0.82714057,1.0776427,1.0799334,-6.787629
928,2024-05-15 22:09:09.929397,-0.2894519,-1.0692453,-0.78857946,1.0379364,1.2033281,-6.827946
929,2024-05-15 22:09:09.940220,-0.35534734,-0.961372,-0.7502625,0.94386315,1.3694835,-6.9079695
930,2024-05-15 22:09:09.962651,-0.53280747,-0.7995621,-0.7251246,0.6488153,1.3328316,-6.9446216
931,2024-05-15 22:09:09.978326,-0.57624966,-0.73195815,-0.7102371,0.45944703,1.2528082,-6.914078
932,2024-05-15 22:09:09.994933,-0.5923574,-0.56673145,-0.54330194,-0.23877195,1.1379656,-6.725321
933,2024-05-15 22:09:10.009844,-0.53622425,-0.47347105,-0.30555966,-0.57474786,1.1978304,-6.617809
934,2024-05-15 22:09:10.028257,-0.49031103,-0.41587353,-0.19890666,-0.6889796,1.181948,-6.592763
935,2024-05-15 22:09:10.044894,-0.5110864,-0.3360668,-0.08786061,-0.8484155,1.0695487,-6.5219026
936,2024-05-15 22:09:10.061555,-0.58820844,-0.2677308,-0.044662476,-1.1251374,0.9534843,-6.2738914
937,2024-05-15 22:09:10.078204,-0.60944146,-0.22599702,-0.044174362,-1.2711343,0.85635674,-6.1107903
938,2024-05-15 22:09:10.094844,-0.43979117,-0.19109683,0.18938842,-1.4733306,0.8862891,-5.7167826
939,2024-05-15 22:09:10.112357,-0.42270714,-0.19500175,0.28579104,-0.97730803,1.1959978,-5.728389
940,2024-05-15 22:09:10.127990,-0.3951287,-0.13179092,0.28920785,-0.6883688,1.1733958,-5.7833667
941,2024-05-15 22:09:10.144907,-0.51474726,-0.08444381,0.028554698,-0.5313764,0.59185207,-6.1004057
942,2024-05-15 22:09:10.161598,-0.8117649,0.08322352,0.15180361,-0.14530957,0.8783479,-5.864001
943,2024-05-15 22:09:10.178209,-0.9369663,0.136428,0.051007964,0.16562083,1.1300243,-5.7149496
944,2024-05-15 22:09:10.194918,-1.084865,0.28749946,-0.24503349,0.31711543,1.353601,-5.4302864
945,2024-05-15 22:09:10.211613,-1.0978,0.32679266,-0.28286234,-0.45318565,1.2912928,-5.191438
946,2024-05-15 22:09:10.228338,-1.0777874,0.32459614,-0.050031736,-0.6388887,1.4214071,-5.056437
947,2024-05-15 22:09:10.244922,-1.0082309,0.28164205,0.20281157,-0.36399934,1.7512743,-4.951979
948,2024-05-15 22:09:10.261582,-0.9860218,0.28701133,0.20964517,-0.18929186,1.779985,-4.966029
949,2024-05-15 22:09:10.278159,-1.0443515,0.2945771,0.13471961,0.11797335,1.7188984,-4.9305987
950,2024-05-15 22:09:10.294845,-1.2835276,0.33094162,-0.00024405724,0.08132143,1.6718618,-4.9049425
951,2024-05-15 22:09:10.311537,-1.3804183,0.37682438,0.17059602,0.17661642,1.7195094,-4.3692136
952,2024-05-15 22:09:10.328233,-1.2230014,0.53622425,0.17498904,0.6518696,1.7634916,-4.220773
953,2024-05-15 22:09:10.344900,-1.2908492,0.53793263,0.053204484,0.7147887,1.589395,-4.341114
954,2024-05-15 22:09:10.361512,-1.5822842,0.5921134,-0.17718557,0.29878947,1.158735,-4.485278
955,2024-05-15 22:09:10.378167,-1.5822842,0.5921134,-0.17718557,0.29878947,1.158735,-4.485278
956,2024-05-15 22:09:10.394836,-1.5822842,0.5921134,-0.17718557,0.29878947,1.158735,-4.485278
957,2024-05-15 22:09:10.411503,-1.5822842,0.5921134,-0.17718557,0.29878947,1.158735,-4.485278
958,2024-05-15 22:09:10.428220,-1.5822842,0.5921134,-0.17718557,0.29878947,1.158735,-4.485278
959,2024-05-15 22:09:10.444756,-1.5822842,0.5921134,-0.17718557,0.29878947,1.158735,-4.485278
960,2024-05-15 22:09:10.461438,-1.5822842,0.5921134,-0.17718557,0.29878947,1.158735,-4.485278
961,2024-05-15 22:09:10.476628,-1.5822842,0.5921134,-0.17718557,0.29878947,1.158735,-4.485278
962,2024-05-15 22:09:10.494706,-1.5822842,0.5921134,-0.17718557,0.29878947,1.158735,-4.485278
963,2024-05-15 22:09:10.511435,-1.5822842,0.5921134,-0.17718557,0.29878947,1.158735,-4.485278
964,2024-05-15 22:09:10.528104,-1.7890006,0.71316576,0.08346757,-0.45929432,0.79954624,-3.8133264
965,2024-05-15 22:09:10.544820,-2.0638092,1.408729,0.51621157,-0.4012621,-0.31345022,-1.5842791
966,2024-05-15 22:09:10.560587,-2.1536222,1.4402124,0.51767594,-0.6181193,-0.57367885,-1.239751
967,2024-05-15 22:09:10.578026,-2.59442,1.6118151,0.85057,-0.65843636,-0.8436813,-0.4297437
968,2024-05-15 22:09:10.594819,-2.674959,1.5842366,0.9477048,-0.46784642,-0.96524346,0.105374254
969,2024-05-15 22:09:10.611462,-2.5697703,1.460225,1.0018855,0.09903653,-1.1271228,1.1523973
970,2024-05-15 22:09:10.628120,-2.4328237,1.2830395,0.8564274,0.38369974,-1.1992048,1.5830573
971,2024-05-15 22:09:10.644777,-2.3500884,1.2784024,0.684123,0.7056257,-1.552285,2.2739458
972,2024-05-15 22:09:10.661360,-2.230012,1.1812676,0.38463423,0.28535044,-2.1374938,2.6306913
973,2024-05-15 22:09:10.678095,-2.12702,1.0411787,0.38853914,-0.29741502,-2.463085,2.8273897
974,2024-05-15 22:09:10.694761,-2.1431277,0.9882183,0.5230452,-0.39637518,-2.4502568,2.962391
975,2024-05-15 22:09:10.711404,-2.285657,0.8215272,0.8854702,-0.3487277,-2.3299165,3.1267138
976,2024-05-15 22:09:10.728096,-2.3871849,0.78101367,0.8093243,0.37759107,-2.834491,3.6807685
977,2024-05-15 22:09:10.744704,-2.403781,0.7766207,0.7180469,0.5938374,-3.4270303,3.8249328
978,2024-05-15 22:09:10.761409,-2.4804149,0.73049384,0.50742555,1.0275517,-3.8790708,4.20428
979,2024-05-15 22:09:10.779023,-2.5028987,0.69534963,0.44101146,1.2957215,-3.92794,4.471839
980,2024-05-15 22:09:10.794347,-2.572943,0.56941605,0.21428227,1.8119026,-3.6671004,5.1492887
981,2024-05-15 22:09:10.811306,-2.4677238,0.2272173,-0.24600971,2.1888065,-3.4349716,6.29405
982,2024-05-15 22:09:10.826323,-2.3244622,-0.052472305,-0.25430766,2.181476,-3.4374151,6.5047984
983,2024-05-15 22:09:10.844658,-2.2407506,-0.19890666,-0.19573392,2.4808002,-3.05257,7.405214
984,2024-05-15 22:09:10.861307,-1.926649,-0.5225571,-0.12642166,3.2511013,-2.4331527,7.9128428
985,2024-05-15 22:09:10.877947,-1.8214604,-0.57063633,-0.17669745,3.4997234,-1.9969949,8.016079
986,2024-05-15 22:09:10.892741,-1.5703253,-0.75416744,-0.51474726,3.478343,-1.0550406,8.471174
987,2024-05-15 22:09:10.910629,-1.2969507,-0.85496306,-0.38341394,3.1393127,-0.9334785,8.609229
988,2024-05-15 22:09:10.930312,-1.1158602,-0.9294005,-0.3219115,3.0452397,-0.8693376,8.502939
989,2024-05-15 22:09:10.946376,-1.0770551,-0.9462405,-0.33997175,3.0281353,-0.8962157,8.48278
990,2024-05-15 22:09:10.977860,-0.556237,-1.0201898,-0.6645984,2.2285128,0.42875105,7.9556036
991,2024-05-15 22:09:10.994578,-0.5313431,-0.9884624,-0.72292805,1.5669457,0.7183012,7.66361
992,2024-05-15 22:09:11.011236,-0.4881145,-1.106342,-0.58527976,0.2260965,0.3823253,7.392386
993,2024-05-15 22:09:11.027894,-0.4881145,-1.106342,-0.58527976,0.2260965,0.3823253,7.392386
994,2024-05-15 22:09:11.044550,-0.4881145,-1.106342,-0.58527976,0.2260965,0.3823253,7.392386
995,2024-05-15 22:09:11.061328,-0.4881145,-1.106342,-0.58527976,0.2260965,0.3823253,7.392386
996,2024-05-15 22:09:11.077876,-0.4881145,-1.106342,-0.58527976,0.2260965,0.3823253,7.392386
997,2024-05-15 22:09:11.094541,-0.4881145,-1.106342,-0.58527976,0.2260965,0.3823253,7.392386
998,2024-05-15 22:09:11.111192,-0.4881145,-1.106342,-0.58527976,0.2260965,0.3823253,7.392386
999,2024-05-15 22:09:11.127877,-0.4881145,-1.106342,-0.58527976,0.2260965,0.3823253,7.392386
