id,timestamp,acc_x,acc_y,acc_z,gyro_x,gyro_y,gyro_z
0,2024-05-15 21:10:04.009525,-1.1693088,0.12398108,0.9047507,-1.1827115,1.0934488,-0.7644979
1,2024-05-15 21:10:04.025485,-1.2637589,0.28213018,0.8761961,-1.3323735,0.8338311,-0.57451874
2,2024-05-15 21:10:04.045398,-1.3691918,0.3499781,0.8984052,-1.4404966,0.5839872,-0.43279803
3,2024-05-15 21:10:04.061041,-1.4765769,0.44442827,1.03825,-1.515633,0.19975294,-0.064446285
4,2024-05-15 21:10:04.077977,-1.6076661,0.5386648,1.2193406,-1.1723268,0.23151793,0.31795537
5,2024-05-15 21:10:04.095257,-1.6930863,0.5760056,1.2718128,-0.8815549,0.3323107,0.5329799
6,2024-05-15 21:10:04.105843,-1.8109658,0.6082212,1.2993913,-0.5755114,0.48441613,0.8054258
7,2024-05-15 21:10:04.127882,-1.8675871,0.66825926,1.2386211,0.27236953,0.6426302,1.5897768
8,2024-05-15 21:10:04.144700,-1.8880879,0.6660627,1.1844403,0.43730316,0.56016344,1.7040086
9,2024-05-15 21:10:04.161638,-2.1133528,0.6323828,1.1485639,0.68164927,0.32925636,2.0613647
10,2024-05-15 21:10:04.177792,-2.1977966,0.6150548,1.1453912,0.94493216,-0.02321288,2.713158
11,2024-05-15 21:10:04.194926,-2.1924274,0.51694375,1.1295274,1.1031463,-0.19242255,2.980106
12,2024-05-15 21:10:04.211631,-2.1865697,0.37291947,1.1163484,1.5454127,-0.33475417,3.421151
13,2024-05-15 21:10:04.228287,-2.2539296,0.29116032,1.0179932,1.9027689,-0.22602014,3.8664715
14,2024-05-15 21:10:04.244917,-2.28883,0.260165,0.9664972,1.9717966,-0.108123146,4.1395283
15,2024-05-15 21:10:04.261605,-2.3474035,0.2255089,0.9577111,2.0029507,0.112399206,4.7143526
16,2024-05-15 21:10:04.278231,-2.542924,0.1210524,1.0477682,2.1819344,0.076358154,5.3398786
17,2024-05-15 21:10:04.294895,-2.560496,0.11226633,1.0331249,2.197206,0.04642576,5.410739
18,2024-05-15 21:10:04.311436,-2.6861856,-0.10518867,0.9150011,1.8459585,-0.5546656,6.1065145
19,2024-05-15 21:10:04.326582,-2.8645914,-0.32898918,1.255949,2.0444896,-0.75319684,6.7583075
20,2024-05-15 21:10:04.345967,-3.0617898,-0.44857723,1.4311821,2.5075254,-0.5174029,7.2384477
21,2024-05-15 21:10:04.361541,-3.0727723,-0.72292805,1.4590046,3.652287,-0.057421334,8.440631
22,2024-05-15 21:10:04.378080,-2.5541506,-0.9567349,0.9132927,4.191681,-0.3640757,8.830974
23,2024-05-15 21:10:04.394853,-2.3818157,-1.0685132,0.72146374,4.123875,-0.68111473,8.765611
24,2024-05-15 21:10:04.411544,-2.165825,-1.2439903,0.67680126,4.1904593,-0.82650065,8.739955
25,2024-05-15 21:10:04.428175,-1.7016281,-1.4011631,0.47176263,4.4696245,-0.35369098,8.881675
26,2024-05-15 21:10:04.445178,-1.1202533,-1.5456756,0.23429495,4.3578362,0.2761111,8.681312
27,2024-05-15 21:10:04.461502,-0.8945003,-1.5361574,0.18963248,4.239939,0.68844515,8.452237
28,2024-05-15 21:10:04.477952,-0.5284144,-1.4978098,0.1300825,3.90152,1.5399913,7.9244494
29,2024-05-15 21:10:04.494586,-0.4275883,-1.477065,0.1147069,3.8245509,1.6884315,7.794946
30,2024-05-15 21:10:04.511383,-0.27261195,-1.4624215,-0.041001618,2.9595656,2.1007655,6.9794407
31,2024-05-15 21:10:04.528751,-0.049543623,-1.5371336,-0.007565775,2.1452823,1.5552629,6.6593475
32,2024-05-15 21:10:04.544291,0.20329969,-1.586433,0.0036608586,1.8422933,1.4049901,6.435771
33,2024-05-15 21:10:04.561462,0.79102004,-1.7192001,0.1461903,1.4207962,1.5839735,5.7204475
34,2024-05-15 21:10:04.578118,1.2281265,-1.8690515,0.35119838,1.4440091,2.0250182,5.03017
35,2024-05-15 21:10:04.595266,1.4885356,-1.9920563,0.40269446,1.5209781,2.2675319,4.5365906
36,2024-05-15 21:10:04.611438,1.9205476,-2.1589913,0.5044969,1.7750981,2.3866506,3.5677586
37,2024-05-15 21:10:04.622270,2.0796728,-2.1941357,0.5252417,1.8954386,2.3903158,3.0338624
38,2024-05-15 21:10:04.644220,2.412567,-2.3117712,0.48396555,2.1520019,2.3127358,1.2513574
39,2024-05-15 21:10:04.661459,2.5248637,-2.1297045,0.48738232,2.0982459,1.568091,-0.8542951
40,2024-05-15 21:10:04.678099,2.302253,-1.8995585,0.4634647,2.0359375,0.2284636,-3.2519412
41,2024-05-15 21:10:04.695289,1.7160275,-1.7455585,0.2877435,1.8044195,-1.473407,-5.5628443
42,2024-05-15 21:10:04.711394,1.2935339,-1.6974791,0.17352471,1.5209781,-2.320677,-6.502966
43,2024-05-15 21:10:04.728196,0.57673776,-1.6088864,0.053204484,0.78244203,-3.2760704,-7.338019
44,2024-05-15 21:10:04.744249,0.5281704,-1.6035172,0.046614934,0.7335728,-3.3157766,-7.359399
45,2024-05-15 21:10:04.761414,-0.05759751,-1.2661995,-0.1342315,-0.56757015,-3.562566,-7.262882
46,2024-05-15 21:10:04.777829,-0.38097337,-1.0319046,0.4612682,-0.80336416,-2.8472428,-6.9537845
47,2024-05-15 21:10:04.794256,-0.46078008,-0.9262278,0.6243289,-0.33421963,-1.9010127,-6.7815204
48,2024-05-15 21:10:04.811389,-0.66923547,-0.74611354,0.3778006,1.3230578,-0.00061086525,-6.419277
49,2024-05-15 21:10:04.828061,-0.70389163,-0.6338472,-0.114218794,1.6645315,-0.09468412,-6.5188484
50,2024-05-15 21:10:04.844948,-0.9010899,-0.5955302,-0.41148052,1.5545757,-0.25778514,-6.580546
51,2024-05-15 21:10:04.861389,-0.9689378,-0.6650865,-0.4249037,0.6126215,-1.0341948,-6.874372
52,2024-05-15 21:10:04.878055,-1.1414863,-0.7588045,-0.042465962,0.28580856,-1.1038336,-7.2274523
53,2024-05-15 21:10:04.894561,-1.1461233,-0.74416107,0.09835507,0.55886537,-0.9089675,-7.5341067
54,2024-05-15 21:10:04.911326,-1.620113,-0.8959646,-0.025137896,1.2039391,-1.2119566,-8.545089
55,2024-05-15 21:10:04.927528,-2.2251308,-0.93208516,-0.19353738,1.4653894,-1.5326608,-8.423527
56,2024-05-15 21:10:04.944449,-2.3886495,-1.0004212,-0.35632357,1.471498,-1.6597209,-7.9299474
57,2024-05-15 21:10:04.961343,-2.0682023,-1.2962185,-0.12813005,1.8257998,-0.66156703,-8.066781
58,2024-05-15 21:10:04.977757,-2.1245794,-1.4294739,-0.47542354,1.970575,-0.9755518,-9.484599
59,2024-05-15 21:10:04.994213,-2.3366652,-1.5090669,-0.64360946,1.688966,-1.5406022,-10.0258255
60,2024-05-15 21:10:05.011328,-3.8606198,-1.5483602,-1.0392263,-0.51137054,-4.053091,-10.050871
61,2024-05-15 21:10:05.027990,-3.6634212,-0.9796763,-0.55916566,-2.36779,-4.464814,-8.399092
62,2024-05-15 21:10:05.044658,-3.4420307,-0.78028154,-0.22819352,-2.6768878,-3.5020905,-7.8603086
63,2024-05-15 21:10:05.061321,-3.0683792,-0.439059,0.37291947,-2.3396902,-0.7959574,-6.6312475
64,2024-05-15 21:10:05.077966,-2.5004275,-0.25528386,0.7932165,-0.94019794,-0.09896017,-6.127895
65,2024-05-15 21:10:05.094112,-2.6637323,-0.29311275,0.6655746,0.7738899,-0.5119051,-5.75038
66,2024-05-15 21:10:05.111279,-2.7835646,-0.2923806,0.46785772,0.9846384,-0.64568454,-5.561012
67,2024-05-15 21:10:05.127832,-2.743295,-0.08590815,-0.45467865,1.1685089,-1.2382239,-4.4742823
68,2024-05-15 21:10:05.144112,-2.602962,-0.0043930304,-0.731226,-0.50465107,-1.3561208,-3.4174857
69,2024-05-15 21:10:05.161289,-2.5849018,0.030019043,-0.60846525,-1.0648144,-1.4172074,-3.1462615
70,2024-05-15 21:10:05.177022,-2.5434122,0.07443746,-0.42368335,-1.6555212,-1.6071864,-2.777299
71,2024-05-15 21:10:05.194379,-2.5204706,0.1615659,-0.12764193,-1.7031686,-1.6548339,-2.7033842
72,2024-05-15 21:10:05.212306,-2.8126073,0.40635532,0.03734076,-1.7227163,-1.7324139,-2.3026567
73,2024-05-15 21:10:05.227918,-3.5157669,0.8278727,0.3922,-1.4374423,-1.3848315,-1.0009027
74,2024-05-15 21:10:05.244054,-3.6834342,0.9088997,0.55013555,-0.7935903,-1.400714,0.8384125
75,2024-05-15 21:10:05.261247,-3.4989269,0.7971215,0.5447663,-0.45150578,-1.3787229,1.6954565
76,2024-05-15 21:10:05.278210,-3.4989269,0.7971215,0.5447663,-0.45150578,-1.3787229,1.6954565
77,2024-05-15 21:10:05.294317,-2.812119,0.3443648,0.5201165,0.73112935,-0.7910705,3.0473013
78,2024-05-15 21:10:05.311087,-2.7647722,0.073217176,0.23575929,1.2185998,-0.28588495,3.6673295
79,2024-05-15 21:10:05.321626,-2.844823,0.010494461,0.14008886,1.1642329,-0.40317106,4.050953
80,2024-05-15 21:10:05.344085,-2.944154,-0.12983845,0.047103047,0.78549635,-1.1081096,5.029559
81,2024-05-15 21:10:05.361222,-2.8052855,-0.3014107,0.006345488,0.26565003,-1.7971655,5.661194
82,2024-05-15 21:10:05.377821,-2.8738656,-0.38902727,0.24405725,-0.015958855,-2.0024164,6.207918
83,2024-05-15 21:10:05.394009,-2.931463,-0.43173727,0.32898918,0.012140946,-2.0024164,6.385069
84,2024-05-15 21:10:05.411216,-2.986864,-0.62774575,0.4825012,0.5081635,-2.1093178,7.2476106
85,2024-05-15 21:10:05.427857,-2.9143791,-0.7317141,0.53353965,0.7763334,-2.2852468,7.603745
86,2024-05-15 21:10:05.438756,-2.9112062,-0.74562544,0.6062687,0.90950197,-2.3353379,7.6972075
87,2024-05-15 21:10:05.452661,-2.8870447,-0.79736555,0.67777747,1.2308171,-2.4410176,7.784561
88,2024-05-15 21:10:05.469904,-2.9602618,-0.84666514,0.6431213,1.7170658,-2.7030787,7.7741766
89,2024-05-15 21:10:05.486202,-3.1047437,-0.9132927,0.48616204,1.9003254,-2.7898216,8.08022
90,2024-05-15 21:10:05.502729,-2.972709,-1.0211661,0.5613622,2.0958023,-2.820365,8.4528475
91,2024-05-15 21:10:05.519619,-2.8433583,-1.0609474,0.6492228,2.454991,-2.56991,8.586017
92,2024-05-15 21:10:05.537277,-2.649333,-1.1095147,0.6987664,2.9314659,-2.126422,8.6526
93,2024-05-15 21:10:05.553685,-2.3644876,-1.1239141,0.41587353,3.6993237,-1.1753048,8.549364
94,2024-05-15 21:10:05.568301,-2.1216507,-1.1644276,0.010494461,3.3511305,-0.90469146,8.6306095
95,2024-05-15 21:10:05.594266,-1.6574538,-1.1688206,0.03807293,2.7879126,-0.8228355,8.36916
96,2024-05-15 21:10:05.605307,-1.340637,-1.1732137,-0.019768637,2.5844946,-0.77274454,8.121758
97,2024-05-15 21:10:05.627815,-1.1070741,-1.1353848,0.057841565,2.4843125,-0.42088616,7.899404
98,2024-05-15 21:10:05.644805,-1.0814482,-1.1117113,0.09200958,2.4849234,-0.00061086525,7.8120503
99,2024-05-15 21:10:05.661136,-0.8366587,-1.1180567,-0.05662128,2.3664155,0.45204028,7.650171
100,2024-05-15 21:10:05.673176,-0.70999306,-1.1207414,-0.14521407,1.9870683,0.4147775,7.391164
101,2024-05-15 21:10:05.685864,-0.6001673,-1.1234261,-0.18987654,1.7415005,0.34025195,7.2036285
102,2024-05-15 21:10:05.703585,-0.29897013,-1.1392897,-0.1432616,0.83497643,0.23823744,6.13156
103,2024-05-15 21:10:05.720112,-0.27554062,-1.2093341,-0.16473864,0.58696514,0.15454891,5.8468966
104,2024-05-15 21:10:05.736746,-0.22794947,-1.2752296,-0.16766733,0.36949712,0.059864793,5.6080484
105,2024-05-15 21:10:05.753240,0.06028214,-1.3682154,-0.06467517,0.13736832,-0.07147124,5.160895
106,2024-05-15 21:10:05.769219,0.4085518,-1.4341109,0.07980672,0.23327416,-0.037873644,4.615392
107,2024-05-15 21:10:05.793907,0.61114985,-1.5913143,0.061014313,0.5759696,-0.04153884,4.130976
108,2024-05-15 21:10:05.812033,1.0214101,-1.7433618,-0.08297946,0.57474786,-0.040317107,3.7632353
109,2024-05-15 21:10:05.827346,1.4170269,-1.9710674,-0.017816179,0.6303366,0.25228736,3.2262847
110,2024-05-15 21:10:05.843869,1.6784426,-2.1175015,0.005857374,0.8288678,0.552833,3.0155363
111,2024-05-15 21:10:05.860781,2.0159738,-2.2851691,0.010006348,1.2570844,1.3738359,2.3014348
112,2024-05-15 21:10:05.877458,2.6295643,-2.3866968,0.094206095,1.589395,1.8625281,1.3289373
113,2024-05-15 21:10:05.888639,2.777707,-2.3671722,0.0707766,1.9180405,2.0134118,-0.34483343
114,2024-05-15 21:10:05.900472,2.7974756,-2.3156762,0.038561042,1.997453,1.7446312,-1.5115861
115,2024-05-15 21:10:05.912004,2.7342649,-2.260031,0.008053889,1.9919552,1.3414601,-2.6087
116,2024-05-15 21:10:05.927656,2.15289,-2.0538027,-0.10177187,1.7140115,-0.13133603,-5.3832498
117,2024-05-15 21:10:05.944343,1.7584935,-2.0045033,-0.17450093,1.4556155,-0.87781334,-6.352693
118,2024-05-15 21:10:05.960987,1.1200093,-1.884427,-0.2767609,0.7922159,-1.8851302,-7.542659
119,2024-05-15 21:10:05.977614,0.3738957,-1.7140751,-0.2506468,-0.24747679,-2.6126707,-8.262869
120,2024-05-15 21:10:05.994808,-0.15277983,-1.4826783,-0.22258021,-0.5913939,-2.6902506,-8.273865
121,2024-05-15 21:10:06.010721,-0.24747404,-1.3416132,-0.21086545,-1.1552225,-2.5680776,-8.091215
122,2024-05-15 21:10:06.027947,-0.4834774,-1.2154356,0.07028849,-1.1485031,-1.6652187,-7.8694715
123,2024-05-15 21:10:06.043698,-0.4834774,-1.2154356,0.07028849,-1.1485031,-1.6652187,-7.8694715
124,2024-05-15 21:10:06.061009,-0.7519709,-0.9645447,0.20574026,-0.18028161,0.10995574,-7.2812085
125,2024-05-15 21:10:06.071412,-0.8107887,-0.91768575,0.19060871,0.36094502,0.49296826,-7.0680165
126,2024-05-15 21:10:06.085860,-0.89254785,-0.80688375,-0.13716017,0.76655954,0.49113566,-7.0112057
127,2024-05-15 21:10:06.110927,-1.0719299,-0.84080774,-0.40318257,0.4293619,0.24923302,-7.2983127
128,2024-05-15 21:10:06.127217,-1.3935974,-0.84666514,-0.13471961,0.09949467,0.7367035,-7.6067996
129,2024-05-15 21:10:06.151534,-1.5434791,-0.87497574,0.13716017,0.8197048,1.2278391,-7.822435
130,2024-05-15 21:10:06.177878,-1.8439136,-0.9091437,-0.6589851,0.53076553,-0.62980205,-8.8719015
131,2024-05-15 21:10:06.193508,-2.2431912,-1.1563737,-0.75465554,-0.6390414,-1.6303993,-9.270797
132,2024-05-15 21:10:06.211281,-2.4887128,-1.2161677,-0.07785426,-1.4233924,-1.1239921,-9.226814
133,2024-05-15 21:10:06.227594,-2.931463,-1.353328,0.33118567,-0.48693597,0.25473082,-8.644049
134,2024-05-15 21:10:06.243236,-2.781368,-1.3652867,0.27017137,0.15630515,0.37140608,-8.239045
135,2024-05-15 21:10:06.262507,-2.4359963,-1.3923771,0.012202863,0.41958806,0.33964106,-8.422304
136,2024-05-15 21:10:06.278328,-2.854097,-1.4660825,-0.2604091,-0.5119814,-0.6444628,-9.175502
137,2024-05-15 21:10:06.293845,-3.1601448,-1.3389286,-0.29872608,-0.9481392,-1.310306,-9.029505
138,2024-05-15 21:10:06.309956,-3.2516663,-1.0729063,-0.22746135,-1.7141643,-1.8417587,-8.261647
139,2024-05-15 21:10:06.323568,-3.216766,-0.8534987,-0.106164895,-2.2291236,-1.3567317,-7.4840155
140,2024-05-15 21:10:06.345340,-2.9502554,-0.5628265,0.25796852,-2.4392612,-0.44593164,-6.566496
141,2024-05-15 21:10:06.360468,-2.803577,-0.50718147,0.447601,-2.042199,-0.03726278,-5.9568524
142,2024-05-15 21:10:06.374040,-2.9636786,-0.3192269,0.65239555,-1.5461763,-0.25411993,-5.462662
143,2024-05-15 21:10:06.394623,-2.8814313,-0.049787678,0.5891847,-0.24442245,-0.26389378,-3.3484578
144,2024-05-15 21:10:06.411495,-2.7335327,-0.032703668,0.45687518,0.037797287,0.040317107,-3.0149255
145,2024-05-15 21:10:06.428387,-2.6232188,0.026602242,0.2511349,0.19784398,0.35185838,-2.781575
146,2024-05-15 21:10:06.443746,-2.7730699,0.24259292,0.08346757,-0.14973834,0.39706242,-2.1774292
147,2024-05-15 21:10:06.459928,-2.871425,0.31483385,0.119343996,-0.14973834,0.39706242,-2.1774292
148,2024-05-15 21:10:06.471392,-3.0400686,0.38219365,0.15302388,-0.51564664,-0.056199603,-1.5818355
149,2024-05-15 21:10:06.495029,-3.1672225,0.61749536,0.20525214,-0.9395871,-0.89552844,-0.61727935
150,2024-05-15 21:10:06.510430,-3.1672225,0.6475144,0.27090356,-0.9878455,-0.98899084,-0.49754974
151,2024-05-15 21:10:06.527510,-3.1213398,0.63628775,0.51425916,-1.0098366,-1.4862351,0.6435465
152,2024-05-15 21:10:06.544845,-2.9073014,0.37072295,0.66899145,0.27725646,-0.81183994,2.372906
153,2024-05-15 21:10:06.560639,-2.875818,0.30751213,0.60724497,0.7635052,-0.49296826,2.8829784
154,2024-05-15 21:10:06.577810,-2.8692286,0.20793676,0.38731885,1.1630111,-0.44409904,3.5775323
155,2024-05-15 21:10:06.594900,-2.8911936,0.036120474,0.12007617,0.9571495,-1.3048081,4.5390344
156,2024-05-15 21:10:06.611850,-2.8187087,-0.030019043,0.09737884,0.7531205,-1.7837266,4.820643
157,2024-05-15 21:10:06.627430,-2.8187087,-0.030019043,0.09737884,0.7531205,-1.7837266,4.820643
158,2024-05-15 21:10:06.644065,-2.8187087,-0.030019043,0.09737884,0.7531205,-1.7837266,4.820643
159,2024-05-15 21:10:06.660730,-2.8187087,-0.030019043,0.09737884,0.7531205,-1.7837266,4.820643
160,2024-05-15 21:10:06.677026,-2.8187087,-0.030019043,0.09737884,0.7531205,-1.7837266,4.820643
161,2024-05-15 21:10:06.687504,-2.8187087,-0.030019043,0.09737884,0.7531205,-1.7837266,4.820643
162,2024-05-15 21:10:06.702056,-2.8187087,-0.030019043,0.09737884,0.7531205,-1.7837266,4.820643
163,2024-05-15 21:10:06.721205,-2.8187087,-0.030019043,0.09737884,0.7531205,-1.7837266,4.820643
164,2024-05-15 21:10:06.737193,-2.8187087,-0.030019043,0.09737884,0.7531205,-1.7837266,4.820643
165,2024-05-15 21:10:06.760420,-2.8187087,-0.030019043,0.09737884,0.7531205,-1.7837266,4.820643
166,2024-05-15 21:10:06.776825,-3.0476344,-0.40342662,0.36706212,0.7751116,-1.9065105,5.754045
167,2024-05-15 21:10:06.794263,-2.4994514,-0.74416107,0.22746135,1.8923842,-0.46181414,7.5750346
168,2024-05-15 21:10:06.810355,-2.5748954,-0.8315336,0.24674188,1.7366135,-0.23090707,7.7283616
169,2024-05-15 21:10:06.827745,-2.5097322,-0.99309945,0.2630937,1.4617242,-0.54305923,8.154746
170,2024-05-15 21:10:06.844052,-2.2920027,-1.0726621,0.30970863,1.4214071,-0.9767735,8.370992
171,2024-05-15 21:10:06.857525,-2.0760121,-1.1688206,0.38219365,1.5570191,-1.2345587,8.444296
172,2024-05-15 21:10:06.876678,-1.3713882,-1.2610743,0.41465324,2.5453992,-0.7507534,8.158411
173,2024-05-15 21:10:06.894373,-1.2442343,-1.2527764,0.2796896,2.985222,0.07391469,7.838928
174,2024-05-15 21:10:06.904437,-1.2022566,-1.238377,0.15668476,3.081128,0.5412266,7.735081
175,2024-05-15 21:10:06.918997,-0.99505186,-1.1639395,-0.09225364,2.7793605,0.9779953,7.574424
176,2024-05-15 21:10:06.944872,-0.78076965,-1.0843768,-0.36437747,0.8966738,0.13500121,6.784575
177,2024-05-15 21:10:06.955365,-0.7597807,-1.0589949,-0.375116,0.49472448,-0.10140363,6.660569
178,2024-05-15 21:10:06.976823,-0.5977267,-1.0597271,-0.17450093,0.048181996,-0.3200934,6.4608164
179,2024-05-15 21:10:06.994131,-0.50815773,-1.0819362,0.0134231495,-0.16378824,-0.3659083,6.1645465
180,2024-05-15 21:10:07.005693,-0.41538543,-1.1290393,0.1483868,-0.0978148,-0.3390302,6.066808
181,2024-05-15 21:10:07.026680,-0.23551524,-1.1414863,0.17450093,0.34567338,-0.26816985,5.777258
182,2024-05-15 21:10:07.044812,0.08297946,-1.2654673,0.09054524,0.53015465,-0.2968805,5.5573463
183,2024-05-15 21:10:07.060211,0.1701079,-1.2932898,0.06345488,0.76228344,-0.16554448,5.0466633
184,2024-05-15 21:10:07.077289,0.2638259,-1.3338034,-0.006345488,0.77999854,-0.13072516,4.7778826
185,2024-05-15 21:10:07.087907,0.6040722,-1.5781351,-0.08956901,0.7268533,-0.06780604,4.617836
186,2024-05-15 21:10:07.102702,0.69534963,-1.6340244,-0.08688438,0.7091382,-0.002443461,4.5689664
187,2024-05-15 21:10:07.119037,1.3501551,-1.9539833,0.034900185,0.76778126,0.54550266,4.3686028
188,2024-05-15 21:10:07.135786,1.9952291,-2.1892545,0.11983211,1.1171962,1.2449434,3.778507
189,2024-05-15 21:10:07.151949,1.9952291,-2.1892545,0.11983211,1.1171962,1.2449434,3.778507
190,2024-05-15 21:10:07.176886,2.9317071,-2.627856,0.29091623,1.6413186,2.4190264,1.4107933
191,2024-05-15 21:10:07.193811,3.1364713,-2.6056468,0.26626647,1.7353919,2.388483,0.31856623
192,2024-05-15 21:10:07.210584,3.0947373,-2.4616225,0.2443013,1.8166369,0.89552844,-2.8017335
193,2024-05-15 21:10:07.227549,2.576604,-2.2448997,0.19915071,1.9070449,-0.7415904,-5.4382277
194,2024-05-15 21:10:07.243178,1.9395839,-2.1951118,-0.023673553,1.7225636,-1.5876387,-6.974554
195,2024-05-15 21:10:07.260538,0.9779679,-2.1348298,-0.33045352,0.55031323,-2.842356,-8.145582
196,2024-05-15 21:10:07.277145,0.61822754,-2.0452607,-0.2877435,-0.1821142,-3.1294627,-8.212167
197,2024-05-15 21:10:07.293860,0.31825066,-1.7748454,-0.013179091,-1.1161271,-2.9260445,-8.006306
198,2024-05-15 21:10:07.310463,0.14204131,-1.5803317,0.27944556,-1.0697014,-1.9926424,-8.039903
199,2024-05-15 21:10:07.326881,-0.03441207,-1.4868273,0.6467822,-0.37087157,-1.2974777,-8.064948
200,2024-05-15 21:10:07.343568,-0.58723223,-1.1466115,0.803467,2.1159608,0.79229224,-7.7014837
201,2024-05-15 21:10:07.353771,-1.0392263,-0.83787906,-0.15375607,2.8911488,1.2260065,-7.287317
202,2024-05-15 21:10:07.368812,-1.0011533,-0.7702752,-0.31825066,3.4830773,1.455081,-6.0778036
203,2024-05-15 21:10:07.386374,-0.5913812,-0.72146374,-0.5284144,2.5447884,1.3261884,-5.646533
204,2024-05-15 21:10:07.410472,-0.4229512,-0.8564274,-0.23697957,2.2656229,0.8399397,-6.575659
205,2024-05-15 21:10:07.427152,-0.5418376,-1.0265353,-0.1696198,2.4122305,0.27000242,-7.21157
206,2024-05-15 21:10:07.443804,-1.1810235,-1.1634514,-0.39854547,2.632142,-0.870483,-8.061894
207,2024-05-15 21:10:07.461593,-1.7853397,-1.16638,-1.0790076,1.2332605,-2.9400945,-8.788213
208,2024-05-15 21:10:07.478262,-1.9278692,-1.238133,-1.0497208,0.58513254,-3.196658,-8.897557
209,2024-05-15 21:10:07.493889,-2.062589,-1.2644911,-0.7080406,0.0622319,-1.8490891,-9.043554
210,2024-05-15 21:10:07.511036,-2.109936,-1.4629096,-0.17816179,1.01396,-0.44226643,-9.774149
211,2024-05-15 21:10:07.528099,-2.841162,-1.8407409,-0.22184804,1.4519503,-0.37812558,-10.232909
212,2024-05-15 21:10:07.544530,-3.760312,-1.6537929,-0.9025542,0.6773732,-1.8399261,-9.587225
213,2024-05-15 21:10:07.559916,-3.4708295,-0.77344793,-0.82909304,-2.0409772,-2.941927,-8.419861
214,2024-05-15 21:10:07.576825,-3.340503,-0.5372005,-0.5313431,-2.6469555,-2.8099802,-8.029518
215,2024-05-15 21:10:07.593272,-2.9443982,-0.14472595,0.06369894,-3.1802409,-1.7733418,-6.8083987
216,2024-05-15 21:10:07.618615,-2.20341,-0.272856,0.5123067,-2.7819567,-0.9101892,-5.41868
217,2024-05-15 21:10:07.633890,-1.9971815,-0.51523536,0.58479166,-1.814957,-0.8900307,-5.1761665
218,2024-05-15 21:10:07.652855,-2.0137775,-0.56721956,0.46322066,-1.3598624,-1.0396926,-5.0118437
219,2024-05-15 21:10:07.676378,-1.9200593,-0.7065762,0.1381364,-0.5040402,0.07391469,-4.55736
220,2024-05-15 21:10:07.693673,-1.9632576,-0.7170707,0.18133454,-0.2120466,0.79901177,-4.4962735
221,2024-05-15 21:10:07.710408,-2.0291529,-0.7934606,0.1210524,0.4574617,1.750129,-4.4901648
222,2024-05-15 21:10:07.727054,-2.139711,-0.71292174,-0.031239327,0.8337547,1.5338826,-4.949536
223,2024-05-15 21:10:07.743429,-2.3691247,-0.581863,-0.2933568,0.6370561,0.929126,-5.0588803
224,2024-05-15 21:10:07.760373,-2.709127,-0.16913168,-0.56892794,-0.5577963,-0.589485,-4.998405
225,2024-05-15 21:10:07.777036,-3.2594762,0.2020794,-0.16400647,-2.6469555,-2.0476203,-4.572632
226,2024-05-15 21:10:07.793710,-3.476687,0.27310005,0.2975058,-2.9762118,-2.447737,-4.0197988
227,2024-05-15 21:10:07.810357,-3.3473368,0.41929033,1.3328272,-1.7886899,-2.3383923,-1.8542814
228,2024-05-15 21:10:07.827025,-3.0793617,0.40611124,1.490244,0.72746414,-0.32742378,-0.40408736
229,2024-05-15 21:10:07.843197,-3.0071208,0.3995217,1.1344086,1.8465693,0.72509706,0.29046643
230,2024-05-15 21:10:07.860362,-2.9243855,0.32239962,0.43100512,2.6700156,1.3408492,1.3655893
231,2024-05-15 21:10:07.876992,-2.84165,0.2596769,-0.17230442,1.9455295,0.35185838,2.0864103
232,2024-05-15 21:10:07.894774,-2.8550732,0.20134723,-0.29164842,1.2778537,-0.5186246,2.410169
233,2024-05-15 21:10:07.910342,-2.8018687,0.073949344,-0.036608588,0.22655465,-2.1142046,3.0515773
234,2024-05-15 21:10:07.926996,-2.721818,-0.05051985,0.35974038,0.16913332,-2.5735753,3.605632
235,2024-05-15 21:10:07.943655,-2.6817925,-0.105676785,0.4556549,0.41103595,-2.3634377,3.8157697
236,2024-05-15 21:10:07.960325,-2.8658118,-0.24332508,0.4458926,1.0738248,-1.6670512,4.482835
237,2024-05-15 21:10:07.977183,-2.9339037,-0.4283205,0.33899552,1.3554336,-1.3909402,5.283679
238,2024-05-15 21:10:07.993900,-2.926094,-0.5127948,0.30385128,1.3792573,-1.4752395,5.641646
239,2024-05-15 21:10:08.005547,-2.8745978,-0.6340912,0.29823795,1.3010666,-1.7079792,6.0051107
240,2024-05-15 21:10:08.018647,-2.8492157,-0.66777116,0.33997175,1.1141418,-2.2797492,6.5762696
241,2024-05-15 21:10:08.043610,-2.7916183,-0.82323563,0.5391529,1.335275,-2.9700267,7.012428
242,2024-05-15 21:10:08.060261,-2.7620873,-0.91792977,0.6414129,1.9485837,-3.0940325,7.2360044
243,2024-05-15 21:10:08.076921,-2.7972317,-0.999933,0.5364683,2.464154,-2.8710666,7.4033813
244,2024-05-15 21:10:08.093580,-2.7357292,-1.0165288,0.52499765,2.5789967,-2.7043004,7.590917
245,2024-05-15 21:10:08.110199,-2.6505532,-0.9987128,0.50620526,2.7750845,-2.3671029,7.9739294
246,2024-05-15 21:10:08.127272,-2.6044264,-1.0319046,0.2894519,2.782415,-2.393981,8.047234
247,2024-05-15 21:10:08.143567,-2.6012535,-1.0619236,0.25284332,2.5411232,-2.8124237,8.1742935
248,2024-05-15 21:10:08.160197,-2.335933,-1.101949,0.36047253,2.4537694,-2.8735101,8.377711
249,2024-05-15 21:10:08.176995,-2.2988362,-1.0851091,0.4249037,2.5783858,-2.6151142,8.394815
250,2024-05-15 21:10:08.193546,-2.371077,-1.0873055,0.4842096,3.2918766,-1.4288138,8.87801
251,2024-05-15 21:10:08.210211,-1.9766805,-1.1092707,0.23087814,3.5692093,-0.79290307,9.119302
252,2024-05-15 21:10:08.226864,-1.5212698,-1.0426431,-0.05759751,3.211853,-0.6713409,8.705746
253,2024-05-15 21:10:08.243533,-1.4973217,-0.9716224,-0.183287,2.8685467,-0.6395759,8.424748
254,2024-05-15 21:10:08.260181,-1.4033597,-0.98577774,-0.2328306,2.1355085,-0.3811799,8.125424
255,2024-05-15 21:10:08.276845,-1.0743705,-1.0614355,-0.09615856,1.7696003,0.3359759,7.7460766
256,2024-05-15 21:10:08.293509,-1.0282438,-1.0541137,-0.102259986,1.7011833,0.48930305,7.6367316
257,2024-05-15 21:10:08.310161,-0.7849186,-1.1305037,-0.15302388,1.399416,0.3475823,7.3105297
258,2024-05-15 21:10:08.326817,-0.5926015,-1.1614989,-0.15546446,1.027399,0.06291912,6.6416326
259,2024-05-15 21:10:08.343509,-0.59284556,-1.2083579,-0.17620933,0.8844565,-0.05497787,6.436382
260,2024-05-15 21:10:08.360378,-0.44467232,-1.3743168,-0.17108414,0.5545893,-0.19242255,6.1059036
261,2024-05-15 21:10:08.376910,-0.094206095,-1.5996122,-0.06955632,0.41531202,-0.08735373,5.9330287
262,2024-05-15 21:10:08.387172,0.09664667,-1.6486678,-0.010738519,0.44035748,0.12034045,5.727778
263,2024-05-15 21:10:08.403297,0.09664667,-1.6486678,-0.010738519,0.5063309,0.35002577,5.4730473
264,2024-05-15 21:10:08.426802,0.89718497,-2.361559,0.25040275,1.1031463,0.8313876,5.110804
265,2024-05-15 21:10:08.442818,1.2186084,-2.4997258,0.25748038,1.2998449,1.0977248,4.9403725
266,2024-05-15 21:10:08.493718,3.3636887,-3.0647182,0.30507156,2.1727712,-0.7984009,-1.6129897
267,2024-05-15 21:10:08.509563,3.2851021,-3.1364713,0.08175918,1.943086,-1.427592,-3.388164
268,2024-05-15 21:10:08.527172,2.6954596,-3.0708199,-0.1901206,1.0823768,-2.2864685,-6.778466
269,2024-05-15 21:10:08.543608,2.1931593,-2.9465947,-0.26504618,0.6847036,-2.5717428,-7.856643
270,2024-05-15 21:10:08.560108,0.94453204,-2.6693456,-0.4720067,-0.49732068,-3.3896914,-9.249416
271,2024-05-15 21:10:08.577049,0.17987019,-2.3261707,-0.383658,-1.6188693,-3.5198054,-9.320888
272,2024-05-15 21:10:08.592713,0.014643434,-2.093584,-0.30116665,-1.9224693,-3.263853,-9.223149
273,2024-05-15 21:10:08.610136,-0.16473864,-1.7426299,-0.06613952,-2.4148266,-1.8723019,-9.235366
274,2024-05-15 21:10:08.627032,-0.52499765,-1.5979038,0.6238408,-1.4808137,-0.20891592,-9.226203
275,2024-05-15 21:10:08.642669,-0.5979708,-1.4743804,0.841784,-0.24869852,0.8900307,-9.201769
276,2024-05-15 21:10:08.660213,-1.1346527,-1.4851189,0.49985978,1.8361846,1.7030923,-9.0967
277,2024-05-15 21:10:08.676924,-1.5234663,-1.2239777,-0.20696054,2.3254876,0.75747293,-8.344113
278,2024-05-15 21:10:08.694403,-1.5429909,-1.1368492,-0.43613032,1.9070449,0.14477506,-8.020967
279,2024-05-15 21:10:08.711963,-1.2327636,-1.0582627,-0.52890253,0.30657798,-0.7464773,-7.709425
280,2024-05-15 21:10:08.727594,-0.9704022,-1.1680884,0.009274175,-0.13507758,-0.33841935,-8.524319
281,2024-05-15 21:10:08.741429,-0.9601517,-1.2962185,0.018792408,-0.0397826,-0.3109304,-9.538966
282,2024-05-15 21:10:08.759815,-2.3376412,-1.8961419,-0.3917119,-0.4191299,-1.890628,-11.001988
283,2024-05-15 21:10:08.770668,-3.037872,-1.9188391,-0.58698815,-0.91026556,-2.8533516,-10.698388
284,2024-05-15 21:10:08.794048,-3.037628,-1.8446457,-0.61114985,-3.528434,-1.9474384,-9.074098
285,2024-05-15 21:10:08.826600,-3.1501384,-2.0189025,0.11690342,-2.0898464,2.2638667,-9.348988
286,2024-05-15 21:10:08.842998,-3.2284808,-1.9937646,-0.0046370877,-2.3800073,2.1423044,-9.347155
287,2024-05-15 21:10:08.858604,-3.3961482,-1.8182874,0.0656514,-3.7251327,0.2144137,-9.2066555
288,2024-05-15 21:10:08.876400,-3.220427,-1.2849919,0.60895336,-4.45756,-1.8771889,-8.491943
289,2024-05-15 21:10:08.892075,-3.1413524,-1.1422184,0.8537427,-4.4141884,-2.1025982,-7.922006
290,2024-05-15 21:10:08.910646,-2.7184012,-0.54330194,1.3977463,-3.1649692,-0.72692966,-6.9800515
291,2024-05-15 21:10:08.926995,-2.9109623,-0.48835856,1.1961551,-2.7966175,-0.44104472,-6.8364983
292,2024-05-15 21:10:08.942838,-3.310972,-0.2767609,1.2757177,-2.4612525,-1.0958922,-6.0692515
293,2024-05-15 21:10:08.959633,-3.306579,-0.2506468,1.3777337,-2.0470858,-2.4831672,-3.7974439
294,2024-05-15 21:10:08.976507,-2.794791,-0.23429495,1.5749625,-0.5449681,-1.3206906,-1.7363845
295,2024-05-15 21:10:08.993281,-2.5219352,-0.24796216,1.3501551,0.2888629,-0.20952678,-1.2421945
296,2024-05-15 21:10:09.010122,-2.1809566,-0.19060871,0.61188203,1.0414488,1.609019,-0.7870999
297,2024-05-15 21:10:09.027728,-2.1221387,-0.15326795,0.4249037,0.9327149,1.8393153,-0.7993172
298,2024-05-15 21:10:09.043779,-2.5541506,0.050763905,0.3526627,0.17951803,1.0891727,-0.91782504
299,2024-05-15 21:10:09.059966,-2.8450668,0.15619664,0.36388937,-0.05261077,0.38789943,-0.7516697
300,2024-05-15 21:10:09.076479,-3.1987057,0.39415246,0.5054731,-0.48693597,-1.0323622,0.12003502
301,2024-05-15 21:10:09.093310,-3.2541068,0.44784504,0.6045603,-0.61705023,-1.4770721,0.65209866
302,2024-05-15 21:10:09.109905,-3.199194,0.41343296,0.8032229,-0.59444827,-1.9278907,1.7369953
303,2024-05-15 21:10:09.126418,-2.9046168,0.14423785,1.234228,0.87101746,-1.2180653,3.2947018
304,2024-05-15 21:10:09.143138,-2.8357928,0.063943,1.2169,1.3749813,-0.8943067,3.6074648
305,2024-05-15 21:10:09.160700,-2.7315803,-0.27407628,0.7419645,2.5105798,-0.6035349,4.647768
306,2024-05-15 21:10:09.176343,-2.6058908,-0.4131889,0.5037647,2.7030025,-1.2852604,5.2629094
307,2024-05-15 21:10:09.192976,-2.6058908,-0.4131889,0.5037647,2.7030025,-1.2852604,5.2629094
308,2024-05-15 21:10:09.209746,-2.3361769,-0.51743186,0.23014598,2.233247,-2.1508565,5.323996
309,2024-05-15 21:10:09.226598,-2.4247699,-0.45419052,0.27846932,1.9351448,-1.4001031,5.272683
310,2024-05-15 21:10:09.243856,-2.5326736,-0.4510178,0.35315084,1.8991036,-1.0677924,5.433341
311,2024-05-15 21:10:09.259616,-2.5880747,-0.49104318,0.4510178,1.9143753,-0.6640105,6.1517186
312,2024-05-15 21:10:09.276668,-2.632981,-0.52890253,0.38487828,1.6584228,-1.1123856,6.5555005
313,2024-05-15 21:10:09.292745,-2.627856,-0.57917833,0.46322066,1.3499359,-2.126422,7.0545774
314,2024-05-15 21:10:09.310118,-2.6415231,-0.6472703,0.6553242,1.4892131,-2.5045476,7.2586064
315,2024-05-15 21:10:09.325998,-2.3830361,-0.70315945,0.77442414,2.1855996,-2.417194,7.3386297
316,2024-05-15 21:10:09.336828,-2.3430107,-0.7073084,0.77271575,2.4525476,-2.257147,7.3160276
317,2024-05-15 21:10:09.349965,-2.233917,-0.70218325,0.7280533,3.1232777,-1.6303993,7.240891
318,2024-05-15 21:10:09.360586,-2.246608,-0.6907125,0.57746994,3.429321,-1.1264355,7.263493
319,2024-05-15 21:10:09.376520,-2.153134,-0.71218956,0.2277054,3.4641404,-0.50579643,7.5151696
320,2024-05-15 21:10:09.393200,-2.1316571,-0.7234162,0.14863087,3.3547955,-0.462425,7.5835867
321,2024-05-15 21:10:09.409830,-1.8055965,-0.6746047,-0.055400997,2.600988,-0.698219,7.7283616
322,2024-05-15 21:10:09.426099,-1.8512352,-0.6223765,-0.047103047,1.8380171,-0.9798279,7.513948
323,2024-05-15 21:10:09.442775,-1.910297,-0.5835714,-0.029774986,1.7103463,-0.98532563,7.5121155
324,2024-05-15 21:10:09.459828,-2.4108584,-0.6401926,0.13545178,1.3835335,-0.6933321,8.130922
325,2024-05-15 21:10:09.476463,-1.9349468,-0.9296446,0.3829258,1.892995,0.5149594,9.604939
326,2024-05-15 21:10:09.493164,-1.662823,-1.0743705,0.37633628,2.1013,0.752586,9.790031
327,2024-05-15 21:10:09.509796,-1.0399585,-1.2561932,0.05344854,2.2674553,1.0793989,9.611659
328,2024-05-15 21:10:09.526439,-0.8073719,-1.3503993,-0.29262465,1.2418127,0.46486846,8.947038
329,2024-05-15 21:10:09.542629,-0.7016951,-1.3523518,-0.30848834,0.76289433,0.13561209,8.628166
330,2024-05-15 21:10:09.559810,-0.5557489,-1.3616259,-0.020500809,-0.098425664,-0.24617869,7.7570724
331,2024-05-15 21:10:09.576421,-0.45126185,-1.4450935,0.20793676,-0.14973834,-0.15088372,6.9189653
332,2024-05-15 21:10:09.592583,-0.43417785,-1.4531473,0.21184167,-0.07887798,-0.20341812,6.719212
333,2024-05-15 21:10:09.609648,-0.38951537,-1.4807258,0.17620933,0.017027868,-0.68844515,6.20914
334,2024-05-15 21:10:09.626380,-0.16034561,-1.641102,0.23697957,0.25831965,-0.84116143,5.692348
335,2024-05-15 21:10:09.643122,-0.114218794,-1.7209086,0.19109683,0.47578767,-0.68416905,5.5524597
336,2024-05-15 21:10:09.660234,0.044662476,-1.9095649,0.12471326,0.7769442,-0.40194935,5.4980927
337,2024-05-15 21:10:09.675842,0.43027294,-2.2236667,0.11031388,1.25403,0.33292156,5.292231
338,2024-05-15 21:10:09.692546,0.9147571,-2.769409,0.097134784,1.6987399,0.98471475,5.1444016
339,2024-05-15 21:10:09.709218,1.3799303,-3.148186,0.09835507,2.0573177,1.8747455,4.987409
340,2024-05-15 21:10:09.725860,1.9417806,-4.113219,0.23380683,2.5588381,3.4642167,4.639216
341,2024-05-15 21:10:09.742476,1.9417806,-4.113219,0.23380683,2.5588381,3.4642167,4.639216
342,2024-05-15 21:10:09.759180,1.9417806,-4.113219,0.23380683,2.5588381,3.4642167,4.639216
343,2024-05-15 21:10:09.775852,1.9417806,-4.113219,0.23380683,2.5588381,3.4642167,4.639216
344,2024-05-15 21:10:09.792530,1.9417806,-4.113219,0.23380683,2.5588381,3.4642167,4.639216
345,2024-05-15 21:10:09.809936,1.9417806,-4.113219,0.23380683,2.5588381,3.4642167,4.639216
346,2024-05-15 21:10:09.825788,1.9417806,-4.113219,0.23380683,2.5588381,3.4642167,4.639216
347,2024-05-15 21:10:09.842484,1.9417806,-4.113219,0.23380683,2.5588381,3.4642167,4.639216
348,2024-05-15 21:10:09.859199,1.9417806,-4.113219,0.23380683,2.5588381,3.4642167,4.639216
349,2024-05-15 21:10:09.876706,1.9417806,-4.113219,0.23380683,2.5588381,3.4642167,4.639216
350,2024-05-15 21:10:09.892456,1.9417806,-4.113219,0.23380683,2.5588381,3.4642167,4.639216
351,2024-05-15 21:10:09.908409,-1.5896058,-1.046792,0.87546384,2.233247,1.427592,-7.2469997
352,2024-05-15 21:10:09.924403,-1.2949983,-0.74538136,0.03465613,3.0664673,1.8961257,-6.4779205
353,2024-05-15 21:10:09.942464,-1.2949983,-0.74538136,0.03465613,3.5075119,2.166739,-5.794362
354,2024-05-15 21:10:09.959122,-0.67972994,-0.7016951,-0.22233616,3.511788,2.2149973,-5.5133643
355,2024-05-15 21:10:09.975724,-0.57869023,-0.82909304,-0.26284966,3.307759,1.0146471,-6.4895267
356,2024-05-15 21:10:09.992880,-0.9394069,-0.961372,-0.33777523,2.9094748,-0.72204274,-7.4461417
357,2024-05-15 21:10:10.010140,-1.1234261,-0.99187917,-0.43124917,2.6431375,-1.2095132,-7.755851
358,2024-05-15 21:10:10.025741,-1.8202399,-1.063388,-0.6248171,1.752496,-1.582141,-8.121148
359,2024-05-15 21:10:10.046005,-2.071375,-0.9606398,-0.5835714,1.1709523,-1.4318681,-8.304407
360,2024-05-15 21:10:10.061413,-2.1299486,-0.9855337,-0.41587353,1.1740067,-1.4184291,-8.411309
361,2024-05-15 21:10:10.077276,-2.1340976,-1.0860853,-0.20085911,1.5924493,-1.042747,-8.772942
362,2024-05-15 21:10:10.092446,-2.293955,-1.2498477,-0.39317623,1.929647,-0.70188415,-9.548129
363,2024-05-15 21:10:10.109012,-2.883872,-1.2622945,-0.9716224,0.98097324,-1.3768903,-9.986119
364,2024-05-15 21:10:10.126601,-3.1550195,-1.2322756,-1.1295274,-1.9249127,-2.361605,-9.517586
365,2024-05-15 21:10:10.143488,-3.2106647,-1.102193,-0.9071913,-2.6921594,-2.417194,-9.292788
366,2024-05-15 21:10:10.159021,-3.2231114,-1.0887699,-0.47493544,-3.0873892,-1.1814134,-8.586627
367,2024-05-15 21:10:10.175729,-3.0203001,-0.67899776,0.7671024,-1.3977361,1.0280862,-8.127256
368,2024-05-15 21:10:10.193967,-2.9578214,-0.4888467,0.6526396,0.23571762,1.0720685,-8.044179
369,2024-05-15 21:10:10.209523,-3.3380625,-0.41465324,0.3653537,0.4873941,0.408058,-7.6025233
370,2024-05-15 21:10:10.225704,-3.425435,0.028798755,-0.22404456,-0.50098586,-1.5931365,-5.3863044
371,2024-05-15 21:10:10.242372,-3.1935806,0.077122085,-0.14277348,-0.9139308,-1.6914859,-4.934264
372,2024-05-15 21:10:10.259017,-2.8511682,-0.03099527,0.20915705,-1.2529609,-1.4575244,-4.459622
373,2024-05-15 21:10:10.275675,-2.4418538,-0.043198135,0.6421451,-0.15706873,0.5332854,-3.5042286
374,2024-05-15 21:10:10.292330,-2.4765098,0.014887493,0.5923574,0.39209914,0.9596693,-3.53355
375,2024-05-15 21:10:10.309013,-2.6849651,0.088104665,0.45907167,0.6792058,1.0665708,-3.4907894
376,2024-05-15 21:10:10.325695,-3.2912035,0.56624335,-0.08932495,-0.044058654,-0.29749137,-2.5121834
377,2024-05-15 21:10:10.342352,-3.3905346,0.6872957,-0.065407336,-0.3946953,-0.7800749,-2.1456642
378,2024-05-15 21:10:10.358991,-3.356855,0.8061516,0.09200958,-1.1356748,-1.6664404,-1.0363328
379,2024-05-15 21:10:10.375616,-3.2826617,0.7365953,0.5105983,-1.13934,-1.5662584,0.07360926
380,2024-05-15 21:10:10.392313,-3.2231114,0.7102371,0.939895,-0.29940033,-0.9083566,0.9166033
381,2024-05-15 21:10:10.408977,-3.139644,0.58576787,0.86570156,1.2271519,-0.19853121,1.9776763
382,2024-05-15 21:10:10.425638,-3.0095615,0.4334457,0.3572998,1.8215238,-0.30787608,2.9275718
383,2024-05-15 21:10:10.442279,-2.9558687,0.3277689,0.14350566,1.7415005,-0.55771995,3.3582318
384,2024-05-15 21:10:10.458920,-2.8055296,0.14960709,-0.13911264,1.1391873,-1.0085385,3.954436
385,2024-05-15 21:10:10.475645,-2.8631272,-0.01854835,-0.1261776,0.5264895,-1.391551,4.5653014
386,2024-05-15 21:10:10.493184,-2.6761792,-0.23795582,0.122760795,0.19540052,-1.8002199,5.2592444
387,2024-05-15 21:10:10.508961,-2.6444519,-0.32215557,0.26406994,0.26687175,-1.9333885,5.4675493
388,2024-05-15 21:10:10.526597,-2.6551905,-0.41807005,0.3699908,0.5271003,-1.9847012,5.774204
389,2024-05-15 21:10:10.542223,-2.692531,-0.46297657,0.4166057,0.78427464,-1.9205604,6.031378
390,2024-05-15 21:10:10.559788,-2.820661,-0.5567251,0.37243137,1.0921507,-1.9058995,6.5585546
391,2024-05-15 21:10:10.575565,-2.8436027,-0.5813749,0.35583547,1.1972195,-1.9761491,6.8523808
392,2024-05-15 21:10:10.590417,-2.735485,-0.66777116,0.3863426,1.3248904,-2.1911736,7.229285
393,2024-05-15 21:10:10.608576,-2.6903346,-0.73000574,0.41148052,1.4140767,-2.2204952,7.2812085
394,2024-05-15 21:10:10.625720,-2.619314,-0.74001205,0.40049794,1.9369774,-2.1093178,7.382001
395,2024-05-15 21:10:10.642366,-2.6163852,-0.75294715,0.30800024,2.0218875,-2.1526892,7.4296484
396,2024-05-15 21:10:10.658951,-2.7081506,-0.7871151,0.2294138,2.0286071,-2.2058344,7.612297
397,2024-05-15 21:10:10.675599,-2.2824843,-0.92037046,0.24064046,2.020666,-2.0983222,8.389929
398,2024-05-15 21:10:10.692196,-1.9093208,-0.9704022,0.30385128,2.124513,-1.8362609,8.564025
399,2024-05-15 21:10:10.708830,-1.5498245,-0.96210414,0.2894519,2.3151028,-1.5760323,8.374657
400,2024-05-15 21:10:10.726060,-1.4155625,-0.9303767,0.24918245,2.3658047,-1.5100589,8.121758
401,2024-05-15 21:10:10.742731,-1.2200727,-0.8959646,0.22502078,2.4024568,-1.4446963,7.8016653
402,2024-05-15 21:10:10.759022,-1.1285512,-0.8500819,0.20159128,2.446439,-1.1264355,7.2537193
403,2024-05-15 21:10:10.776017,-1.0836447,-0.8493497,0.19085276,2.4843125,-0.9755518,7.1535373
404,2024-05-15 21:10:10.792700,-0.9725986,-0.8427602,0.08346757,2.550286,-0.51068336,7.0319753
405,2024-05-15 21:10:10.809182,-0.8913276,-0.8742436,-0.07736614,2.315714,-0.3109304,6.9220195
406,2024-05-15 21:10:10.826035,-0.7793053,-0.8703387,-0.107873306,2.0744221,-0.21319197,6.7980137
407,2024-05-15 21:10:10.842683,-0.63628775,-0.88327366,-0.044174362,1.6339881,0.0018325958,6.475477
408,2024-05-15 21:10:10.859808,-0.586256,-0.9030423,-0.053692598,1.4366786,0.03481932,6.2604523
409,2024-05-15 21:10:10.875989,-0.57673776,-0.8957206,-0.079318605,1.322447,0.025045475,6.1413336
410,2024-05-15 21:10:10.892651,-0.63043034,-0.9735749,-0.13081467,0.62911487,-0.36468655,5.96907
411,2024-05-15 21:10:10.910235,-0.33509058,-1.0772992,-0.010494461,0.46601382,-0.5907067,5.8609467
412,2024-05-15 21:10:10.925589,-0.08419975,-1.0973119,0.08517598,0.8252026,-0.18509217,5.3533177
413,2024-05-15 21:10:10.942118,0.039537273,-1.1807795,0.043930303,1.0487792,0.039095376,5.048496
414,2024-05-15 21:10:10.958754,0.15229172,-1.2788905,-0.082247294,1.3169491,0.073303826,4.710687
415,2024-05-15 21:10:10.975445,0.2848148,-1.3291663,-0.12154051,1.3462707,0.20525073,4.4645085
416,2024-05-15 21:10:10.992270,0.27407628,-1.5415266,-0.29555333,1.186224,0.10445796,4.212832
417,2024-05-15 21:10:11.008937,0.42368335,-1.8260972,-0.5359802,0.5136613,-0.20891592,4.704579
418,2024-05-15 21:10:11.025464,0.67069983,-2.097489,-0.4807928,0.012751812,0.09407325,5.3533177
419,2024-05-15 21:10:11.042581,1.4963455,-2.6756911,-0.23551524,0.0603993,0.9334021,5.6312613
420,2024-05-15 21:10:11.059241,2.6979003,-3.5445657,0.06711575,0.76717037,2.8441887,5.206099
421,2024-05-15 21:10:11.075917,3.3392828,-3.6370633,0.17376876,1.1624002,3.5277467,4.0894375
422,2024-05-15 21:10:11.092289,4.044883,-3.2455647,0.32337585,1.4250723,3.8319576,2.7522533
423,2024-05-15 21:10:11.109227,3.190408,-2.6022298,-0.17718557,2.1037436,0.5815437,-5.0918674
424,2024-05-15 21:10:11.126026,2.3212895,-2.5451205,-0.47981656,1.6590337,-0.9034697,-6.9177437
425,2024-05-15 21:10:11.142575,0.6685033,-2.6266356,-0.9406271,-0.43073636,-2.4825563,-8.413141
426,2024-05-15 21:10:11.184854,0.3968371,-2.1128647,0.4327135,-2.4881306,-0.7464773,-7.91773
427,2024-05-15 21:10:11.209488,0.07687803,-1.858557,0.40269446,-0.16378824,0.97494096,-8.58846
428,2024-05-15 21:10:11.225114,-0.19597797,-1.7858279,0.25528386,0.7702247,0.9053023,-8.82853
429,2024-05-15 21:10:11.242206,-0.718291,-1.4319144,-0.033191785,0.96509075,0.8228355,-8.718575
430,2024-05-15 21:10:11.258681,-0.98382527,-1.1134197,-0.23161033,0.6175084,0.784351,-7.8664174
431,2024-05-15 21:10:11.275276,-0.9652769,-0.99700433,-0.16937573,0.44035748,0.7819075,-7.499287
432,2024-05-15 21:10:11.292174,-0.69095653,-0.9564909,0.073461235,0.5979607,1.1325442,-7.2934256
433,2024-05-15 21:10:11.310186,-0.48396555,-1.1744341,0.25772443,1.8257998,1.5522085,-8.133976
434,2024-05-15 21:10:11.325099,-0.6658187,-1.2518002,0.15741692,2.2778401,1.486846,-8.463233
435,2024-05-15 21:10:11.335923,-1.4511949,-1.2374008,-0.57405317,2.350533,0.43066,-8.751561
436,2024-05-15 21:10:11.358809,-2.1043227,-1.1246463,-0.88107723,0.28580856,-1.1099422,-8.895725
437,2024-05-15 21:10:11.375679,-2.2993245,-1.0428871,-0.5372005,-0.46738827,-1.3054191,-8.803485
438,2024-05-15 21:10:11.392187,-2.2793117,-1.0092071,0.52572984,0.03596469,-0.33536503,-8.570134
439,2024-05-15 21:10:11.409161,-2.5753837,-1.1512486,0.84666514,2.4073436,0.59498274,-9.104641
440,2024-05-15 21:10:11.425777,-2.883628,-1.0790076,0.7649059,3.66145,0.37323865,-9.515754
441,2024-05-15 21:10:11.442436,-4.416582,-0.9184179,-0.0021965152,4.1434226,-1.201572,-9.085704
442,2024-05-15 21:10:11.458840,-4.691421,0.13398743,-0.41684976,1.1801153,-3.7592647,-5.209153
443,2024-05-15 21:10:11.475385,-3.6004546,0.4991276,-0.09737884,-7.6358156e-05,-4.2021422,-3.9251146
444,2024-05-15 21:10:11.492029,-2.0730834,0.4807928,0.37267542,-0.62376976,-3.7256672,-3.5475998
445,2024-05-15 21:10:11.509126,-1.6086423,0.27993366,0.35632357,-0.007406741,-2.079996,-4.322177
446,2024-05-15 21:10:11.525735,-1.6252382,0.24015234,0.2757847,0.028634308,-1.6432275,-4.40892
447,2024-05-15 21:10:11.542395,-1.7977866,0.13154685,-0.06711575,-0.7538841,-0.35002577,-4.243986
448,2024-05-15 21:10:11.559089,-1.7279862,0.13789235,-0.2323425,-2.0568597,-1.16492,-4.142583
449,2024-05-15 21:10:11.575681,-1.7306709,0.07224095,-0.19548985,-3.0806699,-2.0934353,-4.363105
450,2024-05-15 21:10:11.592452,-1.8060846,-0.01854835,0.032215554,-3.7159696,-2.7281241,-4.6550984
451,2024-05-15 21:10:11.608932,-2.1797361,0.11275445,0.9076794,-2.595032,-1.0305296,-4.8334713
452,2024-05-15 21:10:11.625658,-2.6256592,0.40952805,0.6558123,-1.6390278,-0.055588737,-4.727792
453,2024-05-15 21:10:11.643444,-2.7767308,0.5462307,0.42685616,-1.5003614,-0.06780604,-4.3802094
454,2024-05-15 21:10:11.659043,-2.9446423,0.9076794,0.1164153,-2.2987623,-1.001819,-3.3832772
455,2024-05-15 21:10:11.675438,-2.905349,1.1461233,0.2545517,-3.1649692,-1.7299703,-2.4346035
456,2024-05-15 21:10:11.692365,-2.943178,1.2393532,0.45858356,-3.4166458,-1.772731,-1.8237382
457,2024-05-15 21:10:11.709040,-2.926826,1.4336227,1.0999964,-3.1075478,-0.8863655,-0.5109888
458,2024-05-15 21:10:11.726396,-2.8572698,1.3464943,1.5642239,-1.4948636,0.34147367,0.71868294
459,2024-05-15 21:10:11.742356,-2.8514123,1.2671757,1.5276153,-0.60788727,0.47219884,1.2861768
460,2024-05-15 21:10:11.758998,-2.7420747,1.127575,1.1600347,0.5350416,0.23457226,2.2409592
461,2024-05-15 21:10:11.775662,-2.69668,1.0521613,0.9545384,0.75006616,0.08002335,2.5470026
462,2024-05-15 21:10:11.791856,-2.7235262,0.8320217,0.6262814,1.027399,-0.24617869,3.3270776
463,2024-05-15 21:10:11.809664,-2.6932633,0.6306744,0.41099238,0.9528734,-0.4654793,4.0356812
464,2024-05-15 21:10:11.826350,-2.5421917,0.50718147,0.38853914,0.6773732,-0.42210788,4.5146
465,2024-05-15 21:10:11.843172,-2.538287,0.40781966,0.43515408,0.5350416,-0.40011674,4.7143526
466,2024-05-15 21:10:11.858800,-2.6237068,0.24503349,0.51474726,0.44096833,-0.6236934,5.0894237
467,2024-05-15 21:10:11.875094,-2.663,0.11006982,0.60041136,0.55336756,-1.0005972,5.6447005
468,2024-05-15 21:10:11.891744,-2.6041822,0.076633975,0.64556193,0.7213555,-1.069625,5.9195895
469,2024-05-15 21:10:11.908409,-2.4718728,-0.017084008,0.60163164,1.0524445,-1.1007792,6.134614
470,2024-05-15 21:10:11.925057,-2.451128,-0.0370967,0.5889406,1.0945941,-1.102001,6.1413336
471,2024-05-15 21:10:11.940641,-2.3925543,-0.1147069,0.5032766,1.2894602,-1.1313224,6.18104
472,2024-05-15 21:10:11.958236,-2.2156126,-0.054424766,0.46151224,1.4684436,-0.906524,6.353304
473,2024-05-15 21:10:11.975141,-2.230012,-0.08956901,0.2997023,1.426294,-0.7855727,6.352693
474,2024-05-15 21:10:11.992687,-2.2192736,-0.11568313,0.30165476,1.0121274,-0.97005403,6.4840293
475,2024-05-15 21:10:12.008375,-2.220982,-0.18157859,0.3687705,0.82031566,-1.2516629,6.628804
476,2024-05-15 21:10:12.026297,-2.0555112,-0.22990192,0.46322066,0.8844565,-1.3933836,6.720434
477,2024-05-15 21:10:12.041696,-2.0396473,-0.27187976,0.4937278,0.9834167,-1.3561208,6.7350945
478,2024-05-15 21:10:12.058371,-2.0147536,-0.41245672,0.4927516,1.3908638,-1.2125676,6.8853674
479,2024-05-15 21:10:12.076292,-1.8856474,-0.51621157,0.439059,1.6883552,-1.0873401,6.9818845
480,2024-05-15 21:10:12.092775,-1.6108389,-0.5799105,0.26675457,1.9394208,-0.8240572,7.009984
481,2024-05-15 21:10:12.108385,-1.3996987,-0.70218325,0.049299564,1.8404607,-0.5338962,6.9910474
482,2024-05-15 21:10:12.125606,-1.2147034,-0.70999306,0.00048811449,1.5979471,-0.56505036,6.9623365
483,2024-05-15 21:10:12.141292,-1.1685766,-0.7080406,0.021232981,1.4061354,-0.5742133,6.8994174
484,2024-05-15 21:10:12.157163,-0.9562468,-0.7832102,0.0776102,1.3328316,-0.5369505,6.8755937
485,2024-05-15 21:10:12.175183,-0.697058,-0.7888235,0.08542004,1.4537829,-0.14782938,6.592152
486,2024-05-15 21:10:12.192958,-0.6326269,-0.79150814,0.017572122,1.4629459,0.09101892,6.389956
487,2024-05-15 21:10:12.208464,-0.61017364,-0.82958114,-0.18938842,1.1489612,0.17531833,6.144999
488,2024-05-15 21:10:12.220195,-0.5830833,-0.8176223,-0.26870704,0.9211084,0.09712757,6.049704
489,2024-05-15 21:10:12.242127,-0.6135904,-0.8534987,-0.36291313,0.17585284,-0.35185838,5.922644
490,2024-05-15 21:10:12.258445,-0.44784504,-0.9289124,-0.36047253,-0.53336173,-0.7837401,5.79986
491,2024-05-15 21:10:12.275167,-0.38829508,-0.94233555,-0.28920785,-0.94080883,-0.8350528,5.4632735
492,2024-05-15 21:10:12.290697,-0.46444094,-0.9994449,-0.42783237,-1.0550406,-1.0360274,5.454721
493,2024-05-15 21:10:12.308601,-0.6148107,-1.2112865,-1.1602787,-2.4032202,-2.955977,6.214027
494,2024-05-15 21:10:12.323939,-0.29994637,-1.2708366,-1.0214101,-2.9701033,-3.3383787,6.402173
495,2024-05-15 21:10:12.342796,0.375116,-1.2942661,-0.34241232,-3.0409636,-2.8777862,5.932418
496,2024-05-15 21:10:12.358464,0.56819576,-1.5525092,-0.23575929,-1.6219236,-2.389705,5.0601025
497,2024-05-15 21:10:12.375033,0.67631316,-1.9979136,-0.45589894,-0.33299792,-1.717753,4.8475213
498,2024-05-15 21:10:12.392794,0.7588045,-2.2937112,-0.5376886,0.99441224,-0.14905111,5.2458053
499,2024-05-15 21:10:12.408275,1.3003676,-3.0444615,-0.6172513,1.6901878,0.8246681,5.459608
500,2024-05-15 21:10:12.420592,1.6306075,-3.4483764,-0.53402776,2.301053,1.8063285,5.5274143
501,2024-05-15 21:10:12.441670,2.7830763,-3.8796563,-0.33411437,3.7249799,3.8527272,4.495052
502,2024-05-15 21:10:12.458284,3.5916684,-3.0100496,-0.6028519,3.8544834,4.627304,0.51343226
503,2024-05-15 21:10:12.474916,2.7454915,-2.6856976,-0.90645915,2.3303745,2.234545,-3.9171734
504,2024-05-15 21:10:12.492424,2.302253,-2.6373742,-0.93062085,1.4666111,0.7141015,-5.4669385
505,2024-05-15 21:10:12.508258,1.2735213,-2.4486873,-0.65215147,-0.21143574,-1.3133603,-7.8328195
506,2024-05-15 21:10:12.524904,0.46932206,-2.217565,-0.44442827,-1.2004266,-1.509448,-8.912829
507,2024-05-15 21:10:12.541581,0.23356278,-2.1343417,-0.36681804,-1.447827,-1.4220943,-9.044776
508,2024-05-15 21:10:12.558253,-0.16888762,-1.9298216,-0.0690682,-1.5877151,-0.7996226,-8.931155
509,2024-05-15 21:10:12.574911,-0.3065359,-1.6508642,0.084687866,-0.97562814,0.07086037,-8.672759
510,2024-05-15 21:10:12.591544,-0.33460248,-1.6108389,0.123004854,-0.8241336,0.23396139,-8.631831
511,2024-05-15 21:10:12.608228,-0.66777116,-1.3889602,0.16693515,0.4733442,1.1148291,-8.130922
512,2024-05-15 21:10:12.624892,-0.72829735,-1.1214736,0.09030118,1.3334424,1.6646078,-7.677049
513,2024-05-15 21:10:12.641545,-0.799318,-1.0258032,-0.011470691,1.6547576,1.9370537,-7.4528613
514,2024-05-15 21:10:12.658213,-0.71048117,-0.90743536,-0.090789296,2.1306217,2.288912,-7.21157
515,2024-05-15 21:10:12.674854,-0.66069347,-0.92134666,-0.059794027,2.7237718,2.276084,-7.4705763
516,2024-05-15 21:10:12.691488,-0.78931165,-0.9469726,-0.13593988,3.0701323,2.108096,-7.6507816
517,2024-05-15 21:10:12.706651,-1.1881012,-0.94257957,-0.6050484,2.9962177,1.3536774,-7.717366
518,2024-05-15 21:10:12.724510,-1.234472,-0.94599634,-0.90841156,1.7445548,0.3933972,-8.016079
519,2024-05-15 21:10:12.741474,-1.2920696,-0.9962722,-0.85447496,1.1953869,0.21930063,-8.275086
520,2024-05-15 21:10:12.758119,-1.6445189,-1.0411787,-0.5628265,0.15752688,-0.06963864,-9.429622
521,2024-05-15 21:10:12.774780,-2.3293433,-1.0145764,-0.547695,-0.6097199,-0.84971356,-10.250625
522,2024-05-15 21:10:12.790355,-3.0212762,-0.99187917,-0.34290043,-0.98479116,-1.2534955,-10.394789
523,2024-05-15 21:10:12.807811,-3.4439833,-0.84446853,0.17620933,-0.5406921,-0.77518797,-9.499871
524,2024-05-15 21:10:12.825627,-3.07204,-0.82982516,0.21891935,0.57291526,1.0732902,-8.840137
525,2024-05-15 21:10:12.841418,-3.07204,-0.82982516,0.21891935,0.57291526,1.0732902,-8.840137
526,2024-05-15 21:10:12.858072,-2.72133,-0.85789174,-0.22428861,0.673708,1.6212363,-8.678868
527,2024-05-15 21:10:12.874753,-2.72133,-0.85789174,-0.22428861,0.673708,1.6212363,-8.678868
528,2024-05-15 21:10:12.892702,-2.72133,-0.85789174,-0.22428861,0.673708,1.6212363,-8.678868
529,2024-05-15 21:10:12.907375,-2.72133,-0.85789174,-0.22428861,0.673708,1.6212363,-8.678868
530,2024-05-15 21:10:12.924494,-2.72133,-0.85789174,-0.22428861,0.673708,1.6212363,-8.678868
531,2024-05-15 21:10:12.941343,-2.72133,-0.85789174,-0.22428861,0.673708,1.6212363,-8.678868
532,2024-05-15 21:10:12.958156,-2.72133,-0.85789174,-0.22428861,0.673708,1.6212363,-8.678868
533,2024-05-15 21:10:12.974841,-2.72133,-0.85789174,-0.22428861,0.673708,1.6212363,-8.678868
534,2024-05-15 21:10:12.991675,-2.72133,-0.85789174,-0.22428861,0.673708,1.6212363,-8.678868
535,2024-05-15 21:10:13.006839,-2.72133,-0.85789174,-0.22428861,0.673708,1.6212363,-8.678868
536,2024-05-15 21:10:13.028045,-3.5553038,-0.8261643,-0.1769415,-2.0941224,-1.8619173,-8.719185
537,2024-05-15 21:10:13.049660,-2.8379893,-0.17742962,-0.2362474,-0.71539956,-0.8399397,-2.997821
538,2024-05-15 21:10:13.060705,-2.940493,0.19109683,0.49079913,-1.2321916,-0.6310238,-1.3399329
539,2024-05-15 21:10:13.074788,-2.9165757,0.200371,0.60895336,-0.9994519,-0.5503896,-0.9691377
540,2024-05-15 21:10:13.091546,-3.0932732,0.2796896,0.7087728,-0.48388162,-0.743423,-0.08032878
541,2024-05-15 21:10:13.109334,-3.1120656,0.37072295,0.7063322,0.21250474,-1.4318681,1.4095715
542,2024-05-15 21:10:13.125150,-3.1120656,0.37072295,0.7063322,0.21250474,-1.4318681,1.4095715
543,2024-05-15 21:10:13.136775,-3.008341,0.1969542,0.4724948,0.5606979,-1.5693128,2.3735168
544,2024-05-15 21:10:13.158647,-2.9973586,0.04515059,0.51865214,0.8056549,-1.3316863,3.457192
545,2024-05-15 21:10:13.174996,-2.7057102,-0.24186075,0.49299565,1.2717451,-1.1410962,4.5109344
546,2024-05-15 21:10:13.191613,-2.606623,-0.30116665,0.44735694,1.321836,-1.1136073,4.6202793
547,2024-05-15 21:10:13.209110,-2.534626,-0.37291947,0.37804466,1.3077861,-1.1117748,4.835304
548,2024-05-15 21:10:13.224710,-2.65397,-0.48787045,0.3397277,1.1300243,-1.7055358,5.4034085
549,2024-05-15 21:10:13.241885,-2.679108,-0.52621794,0.3590082,1.0762682,-1.9572122,5.678298
550,2024-05-15 21:10:13.258105,-2.674959,-0.6343353,0.456143,1.045114,-2.6627617,6.281222
551,2024-05-15 21:10:13.275984,-2.6481125,-0.79565716,0.5657552,1.2363149,-3.2223141,6.744258
552,2024-05-15 21:10:13.293928,-2.594664,-0.8688744,0.71438605,1.6266578,-2.987131,6.951341
553,2024-05-15 21:10:13.307933,-2.594664,-0.8688744,0.71438605,1.6266578,-2.987131,6.951341
554,2024-05-15 21:10:13.325349,-2.3825479,-0.9428237,0.6526396,2.4354434,-2.298075,7.5389934
555,2024-05-15 21:10:13.341248,-2.2983482,-0.935502,0.6248171,2.536847,-2.2424862,7.586641
556,2024-05-15 21:10:13.356383,-2.199261,-0.91622144,0.4588276,2.5539513,-2.2547035,7.5585413
557,2024-05-15 21:10:13.374841,-2.0406237,-0.7639297,0.4756676,2.5289059,-2.2033908,7.4614134
558,2024-05-15 21:10:13.391500,-2.037207,-0.7285414,0.46541715,2.4904213,-2.1429152,7.3881097
559,2024-05-15 21:10:13.407998,-2.0511181,-0.6999867,0.50669336,2.3425918,-2.0482311,7.3520684
560,2024-05-15 21:10:13.424821,-1.8112098,-0.7685668,0.5618503,2.7488172,-2.1013765,7.5334954
561,2024-05-15 21:10:13.441609,-1.6620909,-0.78247803,0.5381767,2.9076421,-2.1093178,7.504174
562,2024-05-15 21:10:13.458494,-1.4358193,-0.8256762,0.51865214,3.220405,-2.0525072,7.36734
563,2024-05-15 21:10:13.474720,-1.3330712,-0.83080137,0.34290043,3.4452035,-1.7427986,6.925685
564,2024-05-15 21:10:13.491721,-1.2259301,-0.863505,0.26284966,3.5753179,-1.4862351,6.9391236
565,2024-05-15 21:10:13.509027,-0.90792346,-0.8598442,0.0046370877,3.365791,-1.0885619,6.848716
566,2024-05-15 21:10:13.524618,-0.7446492,-0.84812945,-0.07516963,2.8233428,-0.8979719,6.660569
567,2024-05-15 21:10:13.541362,-0.7446492,-0.84812945,-0.07516963,2.6938393,-0.8436049,6.6397996
568,2024-05-15 21:10:13.558971,-0.42905265,-0.8625288,-0.047347106,2.4891994,-0.45814893,6.3416977
569,2024-05-15 21:10:13.574687,-0.32728076,-0.8896192,-0.091033354,2.2833378,-0.10323623,6.072306
570,2024-05-15 21:10:13.591380,-0.18841219,-0.88522613,-0.09445015,2.0090594,0.28405234,5.690515
571,2024-05-15 21:10:13.608020,-0.1718163,-0.9335495,-0.11373068,1.6358207,0.4025602,5.3130007
572,2024-05-15 21:10:13.623448,0.015375607,-1.0184815,-0.15668476,1.4702762,0.40561453,5.1266866
573,2024-05-15 21:10:13.641312,0.41587353,-1.1719935,-0.17889395,1.2405909,0.39706242,4.6954155
574,2024-05-15 21:10:13.658404,0.41587353,-1.1719935,-0.17889395,1.145296,0.36285394,4.4437394
575,2024-05-15 21:10:13.674605,0.8017586,-1.4314263,-0.3499781,0.7763334,0.7806858,3.8945713
576,2024-05-15 21:10:13.691737,0.97333086,-1.513216,-0.37121108,0.42569673,1.210124,3.7131443
577,2024-05-15 21:10:13.709351,1.4333787,-1.7160275,-0.2550398,0.39026654,1.5076154,3.6233473
578,2024-05-15 21:10:13.724860,1.8915048,-1.901023,-0.077122085,0.71463597,2.3267858,3.2666018
579,2024-05-15 21:10:13.741236,2.0811372,-1.9329944,-0.04637088,0.9180541,2.698192,2.96178
580,2024-05-15 21:10:13.758995,2.4989936,-2.0777202,0.016107777,1.2662473,3.2119296,1.8487836
581,2024-05-15 21:10:13.774943,2.6822808,-1.9676505,0.18206671,1.611997,3.1062498,-0.18051068
582,2024-05-15 21:10:13.792679,2.6822808,-1.9676505,0.18206671,1.611997,3.1062498,-0.18051068
583,2024-05-15 21:10:13.808277,2.1597235,-1.8683193,0.18816814,2.0634265,1.6303993,-3.1505375
584,2024-05-15 21:10:13.824892,1.5617833,-1.8732004,-0.016107777,1.756772,0.03970624,-5.3496523
585,2024-05-15 21:10:13.841785,1.3760253,-1.8666108,-0.029286869,1.5185347,-0.35796702,-5.8737745
586,2024-05-15 21:10:13.857841,1.0931629,-1.862706,-0.0012202862,1.1184179,-0.91751957,-6.6220846
587,2024-05-15 21:10:13.874823,0.60065544,-1.8492827,0.21257387,0.447077,-1.8380935,-7.780896
588,2024-05-15 21:10:13.891686,0.47810817,-1.8012035,0.27480847,0.50083315,-1.9663752,-8.079609
589,2024-05-15 21:10:13.908830,0.10714114,-1.7926615,0.19890666,0.65660375,-1.9437732,-8.559138
590,2024-05-15 21:10:13.924520,-0.13667206,-1.8212161,0.07224095,0.4366923,-1.890017,-8.676425
591,2024-05-15 21:10:13.941623,-0.4612682,-1.7658151,-0.13545178,0.10865766,-1.8881844,-8.604342
592,2024-05-15 21:10:13.959289,-0.5750294,-1.5947311,-0.010006348,-0.16012305,-1.6334536,-8.678257
593,2024-05-15 21:10:13.974446,-0.8017586,-1.460225,-0.010982576,0.4770094,-0.76174897,-9.055772
594,2024-05-15 21:10:13.991596,-1.1224499,-1.4136101,-0.174745,0.7360163,-0.4251622,-9.1748905
595,2024-05-15 21:10:14.008142,-1.6845442,-1.3926212,-0.5528202,0.5826891,-0.25045475,-9.02645
596,2024-05-15 21:10:14.024824,-2.2654004,-1.2503358,-0.7170707,-0.7709883,0.14355333,-9.439395
597,2024-05-15 21:10:14.041348,-2.4755337,-1.2615625,-0.5703923,-1.2920563,0.12034045,-9.638537
598,2024-05-15 21:10:14.058645,-2.9485471,-1.3677273,0.30092257,-1.1210141,0.34330627,-9.796751
599,2024-05-15 21:10:14.074407,-3.2216473,-1.4304501,0.6977902,0.0035888334,0.75991637,-9.760711
600,2024-05-15 21:10:14.091580,-3.592157,-1.5066264,0.05051985,2.2589033,1.3585643,-9.742384
601,2024-05-15 21:10:14.108625,-3.687827,-1.494393,-0.6665509,1.6199383,0.8216137,-9.333715
602,2024-05-15 21:10:14.124405,-3.1896758,-1.2261741,-0.6404367,-1.0434341,0.049480084,-9.017899
603,2024-05-15 21:10:14.141573,-3.0786297,-1.2432581,-0.3372871,-1.8583285,-0.26267207,-8.953147
604,2024-05-15 21:10:14.158775,-2.9641669,-1.2051852,0.21501444,-2.4429264,-0.6786713,-8.70147
605,2024-05-15 21:10:14.175170,-2.897295,-1.0516732,0.41172457,-2.426433,-0.8405506,-8.4192505
606,2024-05-15 21:10:14.192119,-2.8526325,-0.83275384,0.55086774,-2.1155026,-0.88270026,-7.168198
607,2024-05-15 21:10:14.208093,-2.628832,-0.6816824,0.6580089,-1.6952274,-0.5186246,-6.207918
608,2024-05-15 21:10:14.224623,-2.7847848,-0.5054731,0.6218884,-1.0947468,-0.24007004,-5.088813
609,2024-05-15 21:10:14.241519,-2.752813,-0.41221267,0.5782021,-0.9389762,-0.20219639,-4.4095306
610,2024-05-15 21:10:14.257817,-2.4716287,-0.3192269,0.5296347,-0.65919995,-0.22968534,-3.442531
611,2024-05-15 21:10:14.274331,-2.2182972,-0.32337585,0.3807293,-0.66042167,-0.30543262,-2.9239066
612,2024-05-15 21:10:14.291496,-2.2075589,-0.33582276,0.4046469,-0.7074583,-0.29871312,-2.8115072
613,2024-05-15 21:10:14.307938,-2.2751627,-0.22062775,0.39415246,-0.73189294,-0.5412266,-2.554333
614,2024-05-15 21:10:14.324814,-2.3691247,-0.15741692,0.38487828,-0.8058076,-0.79168135,-2.4071145
615,2024-05-15 21:10:14.342518,-2.4540567,0.08590815,0.4322254,-1.0116692,-1.3133603,-2.0399845
616,2024-05-15 21:10:14.358734,-2.6827688,0.4097721,0.5835714,-1.1594986,-1.3652838,-1.756543
617,2024-05-15 21:10:14.374347,-2.9419577,0.5523321,0.7797934,-1.1509465,-1.210124,-1.3918564
618,2024-05-15 21:10:14.391490,-3.2633808,0.6565445,1.1168364,-0.47594038,-0.8246681,-0.17073683
619,2024-05-15 21:10:14.407639,-3.3334255,0.6323828,1.1500282,0.687147,-0.73364913,1.3790283
620,2024-05-15 21:10:14.424401,-3.1984618,0.5023003,0.9601517,1.2051607,-0.7812967,2.1084013
621,2024-05-15 21:10:14.441720,-2.8475075,0.2562601,0.6992545,1.9046015,-0.9786061,3.1053336
622,2024-05-15 21:10:14.457382,-2.84946,0.18255483,0.5979708,1.9913443,-1.0580186,3.3166928
623,2024-05-15 21:10:14.474299,-2.9629467,0.059305906,0.4724948,2.034716,-1.4715744,4.4437394
624,2024-05-15 21:10:14.491852,-2.9963825,-0.111046046,0.41416514,2.006005,-1.4770721,4.8701234
625,2024-05-15 21:10:14.507616,-2.9939418,-0.28701133,0.38731885,1.897882,-1.4801265,5.5848355
626,2024-05-15 21:10:14.524764,-2.948059,-0.3968371,0.40733153,1.7506634,-1.4556919,5.927531
627,2024-05-15 21:10:14.542383,-2.9766138,-0.5206046,0.46029195,1.5362498,-1.5436565,6.389956
628,2024-05-15 21:10:14.558289,-2.9485471,-0.6262814,0.522069,1.3731487,-1.7348573,6.7668595
629,2024-05-15 21:10:14.575021,-2.9790542,-0.67728937,0.6131023,1.3737596,-1.9413297,7.0478578
630,2024-05-15 21:10:14.592008,-3.0212762,-0.7861389,0.64360946,1.4513395,-2.175902,7.1578135
631,2024-05-15 21:10:14.608688,-2.9641669,-0.86740994,0.6113939,1.5191455,-2.624888,7.3447385
632,2024-05-15 21:10:14.625067,-2.8780146,-0.93159705,0.7180469,1.6736944,-2.6945267,7.3422947
633,2024-05-15 21:10:14.640889,-2.854097,-0.97552735,0.7876032,1.8716147,-2.5082128,7.405214
634,2024-05-15 21:10:14.658240,-2.781368,-1.0897461,0.95160973,2.6217573,-1.9981402,7.613519
635,2024-05-15 21:10:14.674170,-2.6490889,-1.1512486,0.95136565,3.1721468,-1.6444492,7.7191987
636,2024-05-15 21:10:14.690803,-2.3830361,-1.1649158,0.6848551,4.015141,-1.0836749,7.8010545
637,2024-05-15 21:10:14.707445,-2.3249505,-1.1795592,0.52548575,4.133649,-0.9627236,7.8236566
638,2024-05-15 21:10:14.724191,-2.2366016,-1.2147034,0.358032,3.9308414,-0.85154617,7.975151
639,2024-05-15 21:10:14.741360,-1.6215774,-1.1890775,0.22282428,3.5038466,-0.711658,8.013636
640,2024-05-15 21:10:14.773007,-1.0912105,-1.0724181,0.119099945,3.434819,-0.20097467,7.568315
641,2024-05-15 21:10:14.792007,-0.999689,-0.97235465,0.030019043,2.8667142,0.047647487,7.0118165
642,2024-05-15 21:10:14.807002,-0.9811407,-0.9215907,0.026846299,2.360307,0.051923547,6.857268
643,2024-05-15 21:10:14.822040,-0.9865099,-0.9159773,0.011958805,2.0988567,-0.0030543262,6.8493266
644,2024-05-15 21:10:14.837378,-0.6921768,-1.0136002,0.0,1.4629459,-0.26206118,6.721045
645,2024-05-15 21:10:14.852742,-0.5064493,-0.9982247,0.11031388,1.2888494,-0.14966199,6.5793242
646,2024-05-15 21:10:14.867758,-0.21452633,-0.9992009,0.30677995,1.3768139,0.64568454,5.9849524
647,2024-05-15 21:10:14.883745,-0.23746772,-0.9901707,0.2762728,1.4824936,1.3677273,5.2360315
648,2024-05-15 21:10:14.898746,-0.29897013,-1.0033498,0.264314,1.4751632,1.3884968,5.0937
649,2024-05-15 21:10:14.914966,-0.33582276,-1.0985322,0.19426957,1.3590988,0.80878556,4.8994446
650,2024-05-15 21:10:14.930014,-0.30946457,-1.1331884,0.17620933,1.3090079,0.6621779,4.9000554
651,2024-05-15 21:10:14.946700,-0.19475769,-1.2161677,0.06833603,1.1190288,0.3915646,4.9568663
652,2024-05-15 21:10:14.958920,0.23966423,-1.3999429,0.0046370877,0.7720573,0.24556783,4.893947
653,2024-05-15 21:10:14.979310,0.8964527,-1.6015648,0.00073217176,0.5234352,0.48747048,4.407698
654,2024-05-15 21:10:14.994804,1.2410617,-1.7926615,0.014399378,0.36522105,0.6200282,3.8292089
655,2024-05-15 21:10:15.010053,1.4206878,-1.922744,-0.04002539,0.37377316,0.42760566,3.5439348
656,2024-05-15 21:10:15.025054,1.8326868,-2.2273273,-0.14863087,0.33406693,0.3036,3.1908545
657,2024-05-15 21:10:15.040514,2.3042057,-2.435264,-0.18816814,0.34445164,0.5479461,2.9965994
658,2024-05-15 21:10:15.056510,3.0061445,-2.607355,-0.0056133163,0.5606979,1.6896533,1.8634444
659,2024-05-15 21:10:15.072511,3.1662462,-2.6429875,0.088836834,0.9516517,2.2785273,0.5653558
660,2024-05-15 21:10:15.087739,3.1686866,-2.615165,0.07468152,1.6462054,2.3005185,-2.0350976
661,2024-05-15 21:10:15.104478,2.696436,-2.5053391,-0.07614586,1.6944638,1.1215485,-5.0784283
662,2024-05-15 21:10:15.137100,1.3508874,-2.4040248,-0.2323425,0.71524686,-1.4947872,-8.243321
663,2024-05-15 21:10:15.166910,0.27602875,-2.1548424,-0.10079564,-1.3329843,-3.1661146,-9.172447
664,2024-05-15 21:10:15.197792,-0.08151512,-1.9005347,0.39366436,-1.8204548,-2.4868324,-9.143737
665,2024-05-15 21:10:15.215947,-0.37096703,-1.6730734,0.61237013,-0.95791304,-1.577254,-9.250027
666,2024-05-15 21:10:15.235374,-0.7170707,-1.5129719,0.50840175,0.5448154,-0.52778757,-9.163284
667,2024-05-15 21:10:15.250563,-0.88205343,-1.4626656,0.40440285,0.95043,-0.23884831,-9.018509
668,2024-05-15 21:10:15.266562,-1.362114,-1.2847478,-0.08908089,1.4458417,0.10262536,-8.083274
669,2024-05-15 21:10:15.283169,-1.3106179,-1.1095147,-0.52597386,0.6052911,0.032986723,-7.453472
670,2024-05-15 21:10:15.297168,-1.2776701,-1.1449031,-0.67948586,-0.21082486,-0.3744604,-7.6837683
671,2024-05-15 21:10:15.312340,-1.2613183,-1.2098223,-0.6987664,-1.1430053,-0.89675015,-8.127868
672,2024-05-15 21:10:15.332022,-1.5954633,-1.4297179,-0.24405725,-2.5247824,-1.4483615,-8.989799
673,2024-05-15 21:10:15.346023,-2.0262241,-1.5481162,0.24845028,-2.5205064,-1.1704178,-9.088758
674,2024-05-15 21:10:15.361331,-2.2563703,-1.4946371,0.5118186,-2.0360901,-0.5204572,-9.102198
675,2024-05-15 21:10:15.382424,-3.5675068,-0.99090296,-0.30848834,-1.6597972,0.29626966,-7.9959207
676,2024-05-15 21:10:15.395428,-3.4125001,-0.92695993,-0.25748038,-2.2169063,0.014049901,-7.612908
677,2024-05-15 21:10:15.412223,-3.036896,-0.96259224,0.20940112,-2.9652162,-0.12156218,-6.9800515
678,2024-05-15 21:10:15.431500,-2.5016785,-0.9296446,0.74879813,-2.3738987,0.5674938,-6.5555005
679,2024-05-15 21:10:15.446020,-2.2102435,-0.90743536,0.56624335,-1.3305409,1.5015068,-6.5506134
680,2024-05-15 21:10:15.468174,-2.2954195,-0.978212,0.33313814,-1.4576008,1.7550159,-6.586044
681,2024-05-15 21:10:15.502715,-2.4455147,-0.756608,0.60724497,-1.0464885,0.18692477,-6.112623
682,2024-05-15 21:10:15.525075,-2.4318473,-0.71194553,0.51011014,-0.8516225,0.004886922,-5.94097
683,2024-05-15 21:10:15.542796,-2.4660153,-0.5708804,0.36755022,-0.9524153,-0.028099801,-5.4754906
684,2024-05-15 21:10:15.556473,-2.467968,-0.3829258,0.5386648,-0.98234767,-0.1001819,-4.884173
685,2024-05-15 21:10:15.571474,-2.4921296,-0.35168648,0.60089946,-0.76121444,-0.20097467,-4.624555
686,2024-05-15 21:10:15.601447,-2.6522617,-0.23942018,0.4271002,-0.4105778,-0.6169739,-3.2556064
687,2024-05-15 21:10:15.616753,-2.72133,0.059305906,0.36169282,-0.37942368,-0.6243043,-2.8249464
688,2024-05-15 21:10:15.635317,-2.7030256,0.24161668,0.38439015,-0.45028403,-0.49663344,-2.3038783
689,2024-05-15 21:10:15.649318,-2.7159605,0.30433938,0.456143,-0.37881282,-0.35918877,-2.047315
690,2024-05-15 21:10:15.662421,-2.8133395,0.4195344,0.54915935,-0.18028161,-0.16982053,-1.7143933
691,2024-05-15 21:10:15.677431,-2.9536724,0.55916566,0.5201165,0.1923462,-0.12950343,-0.93676186
692,2024-05-15 21:10:15.693424,-3.0066328,0.6087093,0.45370242,0.29497156,-0.28221974,-0.39187005
693,2024-05-15 21:10:15.709407,-3.0046802,0.6475144,0.3526627,0.31390837,-0.86132,0.8145888
694,2024-05-15 21:10:15.724756,-2.973441,0.6162751,0.34168017,0.3029128,-1.1050552,1.3057245
695,2024-05-15 21:10:15.742458,-2.840674,0.46810177,0.39927766,0.46601382,-1.1209377,2.1768184
696,2024-05-15 21:10:15.757971,-2.7579386,0.27944556,0.41343296,0.84169596,-0.8026769,3.0381384
697,2024-05-15 21:10:15.773972,-2.6900907,0.102504045,0.35241866,1.0347294,-0.65301496,3.4565809
698,2024-05-15 21:10:15.789162,-2.6683693,0.01952458,0.32972133,1.1874456,-0.6389651,4.162741
699,2024-05-15 21:10:15.804540,-2.6166294,-0.12764193,0.2945771,1.0970377,-1.0891727,4.9373183
700,2024-05-15 21:10:15.820537,-2.5822172,-0.21403822,0.28432667,0.9705885,-1.3939945,5.225647
701,2024-05-15 21:10:15.835718,-2.5319414,-0.2716357,0.30433938,0.7867181,-1.9596558,5.606827
702,2024-05-15 21:10:15.850847,-2.4872484,-0.33265,0.35119838,0.7867181,-1.9596558,5.606827
703,2024-05-15 21:10:15.866276,-2.4872484,-0.33265,0.35119838,0.7867181,-1.9596558,5.606827
704,2024-05-15 21:10:15.881720,-2.4255018,-0.44613665,0.53280747,1.2027173,-1.6481144,6.049704
705,2024-05-15 21:10:15.897718,-2.391578,-0.4544346,0.505229,1.3554336,-1.455081,6.2054744
706,2024-05-15 21:10:15.913718,-2.5004275,-0.4583395,0.44149956,1.3212252,-1.5705346,6.2964935
707,2024-05-15 21:10:15.927650,-2.6002774,-0.42514774,0.37877685,1.2644147,-1.6621643,6.3630776
708,2024-05-15 21:10:15.943026,-2.6188257,-0.44516042,0.4271002,0.9076694,-2.1905627,6.862155
709,2024-05-15 21:10:15.962349,-2.5238876,-0.5381767,0.5511118,0.86613053,-2.4868324,7.2268414
710,2024-05-15 21:10:15.994584,-2.4494195,-0.57844615,0.6218884,1.0035752,-2.4966063,7.30381
711,2024-05-15 21:10:16.010937,-2.4494195,-0.57844615,0.6218884,1.0035752,-2.4966063,7.30381
712,2024-05-15 21:10:16.031150,-2.4494195,-0.57844615,0.6218884,1.0035752,-2.4966063,7.30381
713,2024-05-15 21:10:16.044151,-2.4494195,-0.57844615,0.6218884,1.0035752,-2.4966063,7.30381
714,2024-05-15 21:10:16.060143,-2.4494195,-0.57844615,0.6218884,1.0035752,-2.4966063,7.30381
715,2024-05-15 21:10:16.077147,-2.4494195,-0.57844615,0.6218884,1.0035752,-2.4966063,7.30381
716,2024-05-15 21:10:16.091148,-2.4494195,-0.57844615,0.6218884,1.0035752,-2.4966063,7.30381
717,2024-05-15 21:10:16.106144,-2.4494195,-0.57844615,0.6218884,1.0035752,-2.4966063,7.30381
718,2024-05-15 21:10:16.122141,-2.4494195,-0.57844615,0.6218884,1.0035752,-2.4966063,7.30381
719,2024-05-15 21:10:16.137144,-2.4494195,-0.57844615,0.6218884,1.0035752,-2.4966063,7.30381
720,2024-05-15 21:10:16.152142,-0.81420547,-1.0179932,0.054668825,2.6987262,-0.8943067,6.8994174
721,2024-05-15 21:10:16.173332,-0.55648106,-1.1048776,-0.11275445,1.9052123,-0.6536258,6.485251
722,2024-05-15 21:10:16.190269,-0.4932397,-1.114884,-0.06296677,1.6236035,-0.5723807,6.320928
723,2024-05-15 21:10:16.207558,-0.29774985,-1.1800473,-0.008542004,1.267469,-0.71776664,5.9660153
724,2024-05-15 21:10:16.223649,-0.064919226,-1.2549728,0.10958171,1.2894602,-0.752586,5.4217343
725,2024-05-15 21:10:16.241007,0.0134231495,-1.2820632,0.13691612,1.403081,-0.7318166,5.206099
726,2024-05-15 21:10:16.257473,0.24649782,-1.3992107,0.11690342,1.8123609,-0.60048056,4.798041
727,2024-05-15 21:10:16.273611,0.5184081,-1.5581225,-0.039781332,2.056707,-0.2883284,4.4645085
728,2024-05-15 21:10:16.290345,0.7414764,-1.6515964,-0.15180361,2.0438788,-0.21930063,4.299575
729,2024-05-15 21:10:16.307431,1.2142153,-1.7882686,-0.29018408,1.8203021,-0.25473082,3.7815614
730,2024-05-15 21:10:16.324138,1.7536124,-1.9844904,-0.43930307,1.5955037,-0.31948254,3.0925052
731,2024-05-15 21:10:16.340758,1.9061482,-2.028909,-0.46761367,1.5331954,-0.29077184,2.8817568
732,2024-05-15 21:10:16.356922,2.6017418,-2.2785795,-0.56087404,1.4024702,0.26633725,1.4162911
733,2024-05-15 21:10:16.373644,2.735485,-2.2788234,-0.5437901,1.435457,0.44226643,0.9966267
734,2024-05-15 21:10:16.390269,2.8765502,-2.0777202,-0.41758195,1.9320904,1.3903292,-1.1071932
735,2024-05-15 21:10:16.400408,2.5934439,-1.9339706,-0.59357774,2.0732002,1.3817772,-2.7852402
736,2024-05-15 21:10:16.417570,2.0459929,-1.7767979,-0.77344793,1.6113862,0.77763146,-4.303851
737,2024-05-15 21:10:16.440182,1.3047606,-1.807061,-0.9564909,-0.072158456,-0.4465425,-5.6764655
738,2024-05-15 21:10:16.456513,1.0636319,-1.8273177,-0.57746994,-1.9976057,-1.2205088,-6.2787786
739,2024-05-15 21:10:16.474267,1.0406905,-1.8417171,-0.041733786,-2.390392,-1.069625,-7.061908
740,2024-05-15 21:10:16.489936,0.95868737,-1.8400086,0.06199054,-2.309147,-0.9126327,-7.430259
741,2024-05-15 21:10:16.507565,0.60382813,-1.7594697,0.1483868,-1.8485546,-0.5693264,-8.435743
742,2024-05-15 21:10:16.523519,-0.23722363,-1.5754505,0.022209208,-1.6530777,-0.65057147,-9.201769
743,2024-05-15 21:10:16.540796,-0.59333366,-1.4987861,-0.03807293,-1.8613827,-0.73548174,-9.081429
744,2024-05-15 21:10:16.556422,-0.91109616,-1.2774261,0.058085624,-2.2382867,-0.65484756,-8.275086
745,2024-05-15 21:10:16.574304,-0.76148915,-1.1563737,0.30458343,-1.9139172,0.13439035,-7.8193808
746,2024-05-15 21:10:16.590194,-0.6977902,-1.1539332,0.36388937,-1.5345699,0.5699373,-7.835874
747,2024-05-15 21:10:16.606822,-0.67021173,-1.2535084,0.08297946,-0.5803983,1.3976597,-8.610451
748,2024-05-15 21:10:16.619015,-0.74416107,-1.378954,-0.033435844,-0.5089271,1.3457361,-9.080817
749,2024-05-15 21:10:16.634166,-1.670877,-1.5427469,-0.16620298,-0.7074583,1.187522,-9.93725
750,2024-05-15 21:10:16.650166,-2.4106145,-1.5393301,-0.29384494,-1.1417835,0.88331115,-9.848675
751,2024-05-15 21:10:16.673678,-2.948303,-1.4465579,0.11519502,-1.9890536,0.2742785,-9.091813
752,2024-05-15 21:10:16.690829,-2.9448862,-1.4438732,0.5274382,-1.6023759,1.1038336,-8.77233
753,2024-05-15 21:10:16.706784,-3.0752127,-1.3291663,0.31483385,-0.22853996,2.4483478,-9.3441
754,2024-05-15 21:10:16.723448,-3.2504458,-1.4165387,0.051740136,-0.55168766,1.7061466,-9.302562
755,2024-05-15 21:10:16.734444,-3.3883383,-1.4123898,-0.06760386,-1.0324386,1.1942415,-9.0551605
756,2024-05-15 21:10:16.754317,-3.3668613,-0.8669218,0.054912884,-2.9139035,-0.23884831,-7.4033813
757,2024-05-15 21:10:16.774298,-2.8348165,-0.58381546,0.38902727,-4.1014256,-1.0494665,-6.466314
758,2024-05-15 21:10:16.790111,-2.7113235,-0.5310991,0.5481831,-4.4068584,-1.3274102,-6.211583
759,2024-05-15 21:10:16.801123,-2.581485,-0.45321432,0.7422086,-4.7367253,-1.4514158,-5.8872137
760,2024-05-15 21:10:16.824064,-2.3879173,-0.49128726,1.2015243,-4.4966555,-0.97066486,-4.744896
761,2024-05-15 21:10:16.840091,-2.6378622,-0.43661842,1.8424491,-3.5589774,-0.6957755,-4.0973787
762,2024-05-15 21:10:16.856735,-2.5070474,-0.17206036,1.876373,-0.6659195,-0.22968534,-2.4010057
763,2024-05-15 21:10:16.872807,-2.2539296,-0.16547081,1.5810639,0.6016259,0.36651915,-1.8335121
764,2024-05-15 21:10:16.888295,-1.8570925,-0.2443013,0.8703387,1.7867045,1.3023647,-1.50731
765,2024-05-15 21:10:16.906478,-1.6806393,-0.08542004,0.31947094,1.7903696,2.0451767,-1.779145
766,2024-05-15 21:10:16.924073,-1.7423856,-0.043930303,0.21208574,1.5637387,1.926669,-1.9019289
767,2024-05-15 21:10:16.939698,-1.9854666,0.14472595,-0.009274175,0.7940485,1.2040154,-2.0314324
768,2024-05-15 21:10:16.956662,-2.216101,0.311173,0.13374338,-0.40263656,-0.02565634,-1.9178114
769,2024-05-15 21:10:16.974214,-2.4442945,0.41221267,0.23551524,-0.84001607,-0.42149702,-1.7223345
770,2024-05-15 21:10:16.989851,-2.6634881,0.46444094,0.41123646,-1.2187525,-0.7360926,-1.1420126
771,2024-05-15 21:10:17.006655,-2.8301795,0.52572984,0.8959646,-1.1680508,-0.5222898,0.09132435
772,2024-05-15 21:10:17.023394,-2.8819194,0.5098661,1.0482564,-0.58406353,-0.34513888,1.1316279
773,2024-05-15 21:10:17.040845,-2.8289592,0.3968371,1.1778508,-0.117362484,-0.39522982,1.7675385
774,2024-05-15 21:10:17.056718,-2.5609844,0.12935033,1.1036574,0.90828025,-0.77213365,2.8591547
775,2024-05-15 21:10:17.074449,-2.4645512,-0.0034168016,0.9215907,1.7476091,-1.2241739,3.493233
776,2024-05-15 21:10:17.090064,-2.4428298,-0.049299564,0.8430042,1.9052123,-1.3127494,3.6337318
777,2024-05-15 21:10:17.106102,-2.459426,-0.10909359,0.6736285,2.1935408,-1.5070046,4.0265183
778,2024-05-15 21:10:17.123314,-2.5002139,-0.1666911,0.5206046,2.227749,-1.6920967,4.647768
779,2024-05-15 21:10:17.135092,-2.455277,-0.16986385,0.4876264,2.1935408,-1.6804903,4.9483137
780,2024-05-15 21:10:17.149940,-2.455277,-0.16986385,0.4876264,2.1636083,-1.6762142,5.088202
781,2024-05-15 21:10:17.169838,-2.3456953,-0.14765464,0.42368335,1.7335593,-1.9150625,5.7265563
782,2024-05-15 21:10:17.184043,-2.3752263,-0.051496077,0.42051062,1.575956,-2.175902,5.758932
783,2024-05-15 21:10:17.201694,-2.6007657,-0.16107778,0.42417148,1.4653894,-2.293188,5.9647937
784,2024-05-15 21:10:17.216623,-2.5204706,-0.23673552,0.5025444,1.3248904,-2.0146337,6.43516
785,2024-05-15 21:10:17.233613,-2.4093943,-0.2831064,0.5640468,1.2833515,-1.6914859,6.625139
786,2024-05-15 21:10:17.248641,-2.2951753,-0.43149322,0.684123,1.4433982,-1.3115277,6.5811567
787,2024-05-15 21:10:17.265677,-2.3125033,-0.5296347,0.75465554,1.9180405,-1.1099422,6.67523
788,2024-05-15 21:10:17.280315,-2.2529535,-0.5938218,0.7158504,2.2265275,-1.0671816,6.807177
789,2024-05-15 21:10:17.290713,-2.2058504,-0.6001673,0.6648424,2.4293346,-1.0439687,6.90125
790,2024-05-15 21:10:17.302164,-2.156795,-0.58479166,0.5127948,2.5985444,-1.0396926,7.058853
791,2024-05-15 21:10:17.316230,-1.9493462,-0.5747853,0.34460884,2.59549,-1.0341948,7.0979486
792,2024-05-15 21:10:17.332791,-1.8278058,-0.6048044,0.29555333,2.5325708,-1.1636983,7.1535373
793,2024-05-15 21:10:17.350053,-1.552265,-0.62091213,0.20354374,2.6132052,-0.9682214,7.027699
794,2024-05-15 21:10:17.365354,-1.1949348,-0.66142565,0.16717921,2.8062387,-0.3659083,6.960504
795,2024-05-15 21:10:17.382970,-1.0587507,-0.6480025,0.1147069,2.8428905,-0.11728613,6.784575
796,2024-05-15 21:10:17.398836,-1.1041455,-0.675581,-0.119343996,2.4922538,-0.016493361,6.582989
797,2024-05-15 21:10:17.417215,-1.1353848,-0.6850992,-0.26480213,1.5478562,-0.3475823,6.779077
798,2024-05-15 21:10:17.432894,-1.0314164,-0.6965699,-0.16742326,1.1288027,-0.4831944,6.900639
799,2024-05-15 21:10:17.449430,-0.8010264,-0.7075525,0.05759751,0.73235106,-0.43554693,6.80229
800,2024-05-15 21:10:17.461662,-0.80371106,-0.7475779,0.12910628,0.682871,-0.41233405,6.7088275
801,2024-05-15 21:10:17.473942,-0.5313431,-0.8281168,0.22575295,0.864298,-0.552833,6.6654563
802,2024-05-15 21:10:17.485128,-0.5313431,-0.8281168,0.22575295,0.864298,-0.552833,6.6654563
803,2024-05-15 21:10:17.499250,-0.19402552,-0.841784,0.16010156,1.0982593,-0.32559118,6.2329636
804,2024-05-15 21:10:17.516936,-0.10714114,-0.7932165,0.057109397,1.0127382,-0.047647487,5.474269
805,2024-05-15 21:10:17.538848,-0.20525214,-0.8510581,-0.07809832,0.6474408,-0.2669481,5.0955324
806,2024-05-15 21:10:17.556233,-0.061502427,-0.89620876,-0.08590815,0.13920091,-0.72509706,4.8737884
807,2024-05-15 21:10:17.573621,0.07028849,-0.9252516,-0.00976229,-0.00496328,-0.93951076,4.757113
808,2024-05-15 21:10:17.587723,0.20793676,-0.94819295,0.024405725,0.05062546,-1.1325442,4.499939
809,2024-05-15 21:10:17.606460,0.64385355,-1.1793152,0.04807928,0.32001704,-0.95233893,4.0210204
810,2024-05-15 21:10:17.623171,0.77222764,-1.3028082,0.022941383,0.6138432,-0.8552113,3.791335
811,2024-05-15 21:10:17.633273,0.8666778,-1.4453375,-0.012690976,0.8111527,-0.7910705,3.719864
812,2024-05-15 21:10:17.656429,1.5383539,-1.935191,-0.13325526,1.4525611,0.028710667,3.7265835
813,2024-05-15 21:10:17.673326,1.8849151,-2.1502054,-0.15692882,1.7127898,0.53878313,3.6141841
814,2024-05-15 21:10:17.690531,2.481879,-2.5690382,-0.12593354,2.301053,2.1203132,3.0405817
815,2024-05-15 21:10:17.706157,2.9368324,-2.577092,0.038561042,2.690174,3.259577,2.1175644
816,2024-05-15 21:10:17.723828,3.0964458,-2.2693055,0.12007617,2.9919417,2.8991663,-1.0644327
817,2024-05-15 21:10:17.739894,2.5822172,-1.9859549,-0.10128376,2.9919417,2.8991663,-1.0644327
818,2024-05-15 21:10:17.756451,2.2959075,-1.9112732,-0.28261828,2.2851706,0.51007247,-3.588528
819,2024-05-15 21:10:17.774027,1.747755,-1.7184682,-0.2762728,1.0744356,-1.4153748,-5.7125063
820,2024-05-15 21:10:17.785889,1.1436827,-1.6462271,-0.2865232,-0.04100433,-2.1355848,-7.1028357
821,2024-05-15 21:10:17.806058,0.6819264,-1.5322524,-0.12520137,-0.68241286,-2.2608123,-7.600691
822,2024-05-15 21:10:17.823076,0.22355644,-1.4475341,0.05198419,-1.0135018,-1.8112154,-7.568926
823,2024-05-15 21:10:17.835020,0.22355644,-1.4475341,0.05198419,-1.0135018,-1.8112154,-7.568926
824,2024-05-15 21:10:17.856390,0.15912533,-1.3994548,0.099575356,-1.0080041,-1.1215485,-7.455305
825,2024-05-15 21:10:17.873081,-0.22990192,-1.0450836,0.4085518,0.7964919,0.30115658,-7.444309
826,2024-05-15 21:10:17.889721,-0.3141017,-0.98358124,0.3328941,1.2747995,0.5314528,-7.4070463
827,2024-05-15 21:10:17.906378,-0.43832684,-0.8742436,0.15497635,2.1843777,0.88331115,-7.3514576
828,2024-05-15 21:10:17.923852,-0.55965376,-0.88205343,-0.058085624,2.645581,1.0629056,-7.3447385
829,2024-05-15 21:10:17.939059,-0.86838615,-0.85813576,-0.42148685,2.5576165,0.8045095,-7.1853023
830,2024-05-15 21:10:17.956114,-0.9128046,-0.9045067,-0.5415935,1.5448018,-0.19486602,-7.3306885
831,2024-05-15 21:10:17.973988,-0.9633245,-0.9372103,-0.42587993,0.9479865,-0.68844515,-8.091215
832,2024-05-15 21:10:17.989460,-0.9633245,-0.9372103,-0.42587993,0.7024187,-0.88514376,-8.614117
833,2024-05-15 21:10:18.005445,-1.8958976,-1.1305037,-0.353883,0.4751768,-1.087951,-9.187108
834,2024-05-15 21:10:18.023074,-2.4103703,-1.0189695,-0.45736328,0.5246569,-1.0641272,-9.564623
835,2024-05-15 21:10:18.039635,-2.6383502,-1.0946273,-0.6907125,0.1923462,-1.2675453,-9.752769
836,2024-05-15 21:10:18.057131,-3.0390923,-1.2269063,-0.89718497,-1.0800861,-1.7195857,-9.868222
837,2024-05-15 21:10:18.073777,-3.1198752,-1.0309283,-0.06418706,-1.9994383,-0.90408057,-9.281181
838,2024-05-15 21:10:18.089401,-2.9448862,-0.9328173,-0.009274175,-2.1210005,-0.48502702,-9.25919
839,2024-05-15 21:10:18.106340,-2.8182206,-0.8644812,-0.0026846298,-2.9358947,-0.3915646,-9.234144
840,2024-05-15 21:10:18.123013,-2.9578214,-0.70193917,0.12715383,-3.954818,-1.2486086,-8.684977
841,2024-05-15 21:10:18.139668,-3.2350705,-0.6492228,0.1598575,-4.497877,-2.0824397,-7.761959
842,2024-05-15 21:10:18.157207,-3.0957136,-0.46370876,0.7234162,-4.711069,-2.4856107,-5.4467797
843,2024-05-15 21:10:18.173677,-2.633469,-0.3162982,1.2659554,-3.9804742,-1.5100589,-4.2824707
844,2024-05-15 21:10:18.189668,-2.0586839,-0.23893206,1.5271271,-1.411786,1.0977248,-3.2763758
845,2024-05-15 21:10:18.206292,-1.7887566,-0.24454537,1.1427065,0.8038223,2.7043004,-3.2073479
846,2024-05-15 21:10:18.223870,-1.8402526,-0.31434575,0.45370242,1.6333773,3.0628784,-3.2647693
847,2024-05-15 21:10:18.239648,-2.0154858,-0.3236199,0.119588055,1.9693532,2.3671029,-3.292869
848,2024-05-15 21:10:18.256296,-2.109936,-0.31312546,-0.05344854,1.7176768,1.6438384,-3.2085698
849,2024-05-15 21:10:18.273792,-2.0477014,-0.09396204,-0.3243521,0.6517169,0.19792034,-3.1914654
850,2024-05-15 21:10:18.290441,-2.1489851,0.01952458,-0.08419975,-1.0293843,-0.7012733,-3.4223726
851,2024-05-15 21:10:18.307035,-2.1489851,0.01952458,-0.08419975,-1.0293843,-0.7012733,-3.4223726
852,2024-05-15 21:10:18.323667,-2.2351372,0.08127106,0.036852647,-1.479592,-0.88514376,-3.2580497
853,2024-05-15 21:10:18.339291,-2.5761156,0.16766733,0.34924594,-1.4869224,-0.9334021,-3.1535919
854,2024-05-15 21:10:18.357680,-3.1628294,0.4229512,0.8022467,-0.94264144,-1.2363913,-0.9288206
855,2024-05-15 21:10:18.373567,-3.1882112,0.46761367,1.0060345,0.19967657,-0.70066243,0.7626653
856,2024-05-15 21:10:18.389583,-3.153311,0.40489095,0.957223,0.7793877,-0.5045747,1.5720617
857,2024-05-15 21:10:18.400749,-3.0229845,0.29164842,0.83324194,1.3035101,-0.42394048,2.2953262
858,2024-05-15 21:10:18.423550,-2.6815486,0.018304294,0.52670604,1.6052775,-0.3933972,2.7143798
859,2024-05-15 21:10:18.439685,-2.5956402,-0.065407336,0.32069123,2.1849887,-0.46914452,3.800498
860,2024-05-15 21:10:18.456736,-2.649577,-0.1444819,0.21965154,2.2008712,-0.52656585,4.0717225
861,2024-05-15 21:10:18.467396,-2.6903346,-0.18645974,0.16229807,2.0078378,-0.9077458,4.830417
862,2024-05-15 21:10:18.489574,-2.556591,-0.38316986,0.059305906,1.5270867,-1.5234979,5.540242
863,2024-05-15 21:10:18.506921,-2.3986557,-0.46273252,0.09054524,1.226541,-1.6811012,5.795584
864,2024-05-15 21:10:18.522593,-2.3722975,-0.45809543,0.19231711,1.1850022,-1.7018706,5.836512
865,2024-05-15 21:10:18.540194,-2.4733372,-0.42612398,0.28676724,1.2185998,-1.3817772,6.102238
866,2024-05-15 21:10:18.555867,-2.5614722,-0.43637437,0.28554696,1.2967906,-1.5515977,6.2995477
867,2024-05-15 21:10:18.573515,-2.615165,-0.48274526,0.10689708,1.231428,-2.2131648,6.8328333
868,2024-05-15 21:10:18.589553,-2.5036309,-0.51425916,0.12593354,1.0304533,-2.8753426,7.209126
869,2024-05-15 21:10:18.606205,-2.311283,-0.500836,0.21965154,1.0176251,-2.8997774,7.277543
870,2024-05-15 21:10:18.622862,-1.999622,-0.42441553,0.44101146,1.8545105,-1.8264871,6.902472
871,2024-05-15 21:10:18.639519,-1.8505032,-0.28579104,0.5040087,2.2405775,-1.2980887,6.7833533
872,2024-05-15 21:10:18.657023,-1.9942529,-0.27261195,0.34924594,2.527684,-0.8558222,6.779688
873,2024-05-15 21:10:18.672861,-1.9810737,-0.27822527,0.18231077,2.6290877,-0.56077427,6.9947124
874,2024-05-15 21:10:18.689513,-1.9859549,-0.3568117,-0.013911263,1.8917733,-1.0042624,7.12727
875,2024-05-15 21:10:18.706136,-1.8004713,-0.43808278,0.10933765,1.2491431,-1.3988814,7.322747
876,2024-05-15 21:10:18.721682,-1.6320719,-0.4932397,0.21403822,1.1715631,-1.491122,7.3386297
877,2024-05-15 21:10:18.739189,-1.473404,-0.5984589,0.24820623,1.2094368,-1.4129313,7.110777
878,2024-05-15 21:10:18.756106,-1.31916,-0.6145667,0.29091623,1.3383294,-1.2498302,7.0796227
879,2024-05-15 21:10:18.772755,-1.2647351,-0.61578697,0.25528386,1.3334424,-1.1374311,7.0197577
880,2024-05-15 21:10:18.788667,-1.2671757,-0.7358631,0.15790504,1.122694,-1.0732902,7.090618
881,2024-05-15 21:10:18.806128,-1.2237335,-0.7617332,0.15619664,0.96203643,-1.1447614,7.2170672
882,2024-05-15 21:10:18.823091,-1.0140883,-0.8525225,0.13911264,0.6810384,-1.328021,7.2616606
883,2024-05-15 21:10:18.839420,-0.7580723,-0.9664972,0.277005,0.46051604,-1.5882497,6.805955
884,2024-05-15 21:10:18.856051,-0.66996765,-1.0101835,0.34338856,0.8001571,-1.4391985,6.3966756
885,2024-05-15 21:10:18.872725,-0.6994986,-1.0655844,0.29555333,0.96631247,-1.328021,6.2305202
886,2024-05-15 21:10:18.888419,-0.6314066,-1.0885259,0.10177187,1.0554988,-1.5222762,6.0350432
887,2024-05-15 21:10:18.905757,-0.48542988,-1.1449031,0.07468152,0.98097324,-1.7922786,5.741217
888,2024-05-15 21:10:18.922708,-0.37194324,-1.1607667,0.08566409,1.036562,-1.7507398,5.5268035
889,2024-05-15 21:10:18.939931,-0.23014598,-1.24277,0.017816179,1.1752284,-1.5088371,5.1615057
890,2024-05-15 21:10:18.956783,-0.034168016,-1.5249307,-0.1483868,1.3804791,-1.0323622,5.0900345
891,2024-05-15 21:10:18.971981,0.17547716,-1.7440941,-0.23405088,1.5130368,-0.90224797,5.211597
892,2024-05-15 21:10:18.989391,0.89938146,-2.3815715,-0.4829893,1.8679496,-0.9621128,5.4522777
893,2024-05-15 21:10:19.006023,1.8019358,-3.2833939,-0.7971215,2.4806473,-0.022602014,5.7980275
894,2024-05-15 21:10:19.023668,2.5138812,-3.635599,-0.94087124,2.654133,1.0201449,5.490762
895,2024-05-15 21:10:19.039290,3.5274816,-3.8303564,-0.8349504,2.881375,3.3347135,3.411377
896,2024-05-15 21:10:19.055997,3.8979602,-3.4351974,-0.83885527,2.6443594,3.4336736,-0.12980886
897,2024-05-15 21:10:19.072648,3.8733106,-3.054956,-0.7815018,2.2472968,2.4911084,-2.3985624
898,2024-05-15 21:10:19.089294,2.9827151,-2.4704084,-0.7195113,1.1489612,0.21930063,-6.9568386
899,2024-05-15 21:10:19.105973,2.9827151,-2.4704084,-0.7195113,1.1489612,0.21930063,-6.9568386
900,2024-05-15 21:10:19.122654,2.9827151,-2.4704084,-0.7195113,1.1489612,0.21930063,-6.9568386
901,2024-05-15 21:10:19.139306,2.9827151,-2.4704084,-0.7195113,1.1489612,0.21930063,-6.9568386
902,2024-05-15 21:10:19.155922,2.9827151,-2.4704084,-0.7195113,1.1489612,0.21930063,-6.9568386
903,2024-05-15 21:10:19.172623,2.9827151,-2.4704084,-0.7195113,1.1489612,0.21930063,-6.9568386
904,2024-05-15 21:10:19.190327,2.9827151,-2.4704084,-0.7195113,1.1489612,0.21930063,-6.9568386
905,2024-05-15 21:10:19.207126,2.9827151,-2.4704084,-0.7195113,1.1489612,0.21930063,-6.9568386
906,2024-05-15 21:10:19.222599,2.9827151,-2.4704084,-0.7195113,1.1489612,0.21930063,-6.9568386
907,2024-05-15 21:10:19.239805,2.9827151,-2.4704084,-0.7195113,1.1489612,0.21930063,-6.9568386
908,2024-05-15 21:10:19.256887,2.9827151,-2.4704084,-0.7195113,1.1489612,0.21930063,-6.9568386
909,2024-05-15 21:10:19.272533,-0.7512387,-0.85593927,-0.077122085,3.112282,2.9987376,-6.425997
910,2024-05-15 21:10:19.290104,-0.51865214,-0.812009,-0.27334413,3.0976212,2.5961773,-6.776023
911,2024-05-15 21:10:19.305966,-0.61114985,-1.072174,-0.15961345,2.7799714,1.9113973,-8.001418
912,2024-05-15 21:10:19.322606,-0.81664604,-1.2320315,0.16425052,3.002937,1.8270979,-8.554862
913,2024-05-15 21:10:19.339265,-2.1128647,-1.4655943,0.31312546,4.6736536,1.4434745,-8.967196
914,2024-05-15 21:10:19.355920,-2.789178,-1.3933533,-0.17816179,6.185545,0.3811799,-7.4351463
915,2024-05-15 21:10:19.373199,-2.5251079,-1.3318509,-0.5298788,6.3822436,0.12217305,-7.214624
916,2024-05-15 21:10:19.389276,-2.2617395,-1.3440537,-1.2600981,6.164165,-0.015882496,-7.542048
917,2024-05-15 21:10:19.405951,-2.649821,-1.3093976,-1.3555244,2.89909,-1.2431108,-8.622668
918,2024-05-15 21:10:19.422604,-2.6075993,-1.2766939,-1.1263547,2.0664809,-1.7867808,-8.6526
919,2024-05-15 21:10:19.439242,-2.683745,-1.2334958,-0.6338472,0.9217193,-2.6755898,-8.576854
920,2024-05-15 21:10:19.456334,-2.751349,-1.0248269,-0.67924184,0.1306488,-2.4226916,-7.867639
921,2024-05-15 21:10:19.472602,-2.7296276,-0.9157333,-0.60382813,-0.41118866,-2.1227567,-7.3429055
922,2024-05-15 21:10:19.489244,-2.4186683,-0.7234162,-0.1867038,-0.74533194,-1.4996742,-6.5909305
923,2024-05-15 21:10:19.505891,-2.2378218,-0.5303669,0.088348724,0.12515102,-0.9578367,-6.476699
924,2024-05-15 21:10:19.521725,-2.425746,-0.5445222,0.12593354,0.74334663,-0.72509706,-6.3716297
925,2024-05-15 21:10:19.536802,-3.0227406,-0.39830142,-0.058085624,1.2473105,-0.59803706,-5.857892
926,2024-05-15 21:10:19.554420,-2.917796,-0.21721096,-0.27139166,1.9351448,-0.13988814,-3.5903604
927,2024-05-15 21:10:19.572544,-2.52584,-0.20842488,-0.7685668,1.6853008,-0.2443461,-3.215289
928,2024-05-15 21:10:19.589654,-2.2624717,-0.22013964,-0.8564274,1.072603,-0.71593404,-2.9367347
929,2024-05-15 21:10:19.605830,-2.3517966,-0.15229172,-0.8073719,0.72990763,-1.0910053,-2.7143798
930,2024-05-15 21:10:19.620829,-2.4130552,-0.10884953,-0.86618966,0.53198725,-1.3255776,-2.4798074
931,2024-05-15 21:10:19.635865,-2.4735813,0.1044565,-1.0524054,-0.07338019,-1.8747455,-1.997224
932,2024-05-15 21:10:19.655702,-2.632493,0.23429495,-1.2564372,-1.161942,-2.8166997,-1.6233743
933,2024-05-15 21:10:19.672519,-2.7637959,0.277005,-1.2232454,-1.6536885,-3.3023374,-1.4107933
934,2024-05-15 21:10:19.689643,-2.819929,0.32386398,-1.0650963,-2.372677,-4.0604215,-0.895223
935,2024-05-15 21:10:19.705838,-2.7369494,0.24820623,-0.25381953,-2.6420686,-4.1636577,0.6844745
936,2024-05-15 21:10:19.723295,-2.6342013,0.23307467,0.118855886,-1.3024411,-2.6798658,1.5647314
937,2024-05-15 21:10:19.739143,-2.6471364,0.14814276,0.025626011,-0.545579,-1.8332067,2.032654
938,2024-05-15 21:10:19.755784,-2.6429875,0.12715383,-0.012690976,-0.28168523,-1.5216653,2.2574525
939,2024-05-15 21:10:19.772607,-2.5631807,0.017572122,-0.21477039,0.2485458,-0.80756384,3.2647693
940,2024-05-15 21:10:19.789150,-2.3759582,-0.14692247,-0.33411437,0.098883815,-1.0384709,4.1877866
941,2024-05-15 21:10:19.805823,-2.0660055,-0.36901456,-0.4502856,-0.3543782,-1.3884968,4.267199
942,2024-05-15 21:10:19.822460,-2.0286648,-0.39634898,-0.41343296,-0.4844925,-1.3243558,4.2305474
943,2024-05-15 21:10:19.838045,-2.2131722,-0.32557237,-0.15936938,-0.45578182,-0.51007247,4.6025643
944,2024-05-15 21:10:19.855647,-2.41696,-0.26284966,-0.25992095,-0.73189294,-0.59131753,5.2622986
945,2024-05-15 21:10:19.872489,-2.41696,-0.26284966,-0.25992095,-0.73189294,-0.59131753,5.2622986
946,2024-05-15 21:10:19.889387,-2.4345322,-0.29726174,-0.110801995,-2.0525837,-2.6364944,6.1663795
947,2024-05-15 21:10:19.905784,-2.468212,-0.39659303,0.2208718,-2.508289,-4.2174134,6.4235535
948,2024-05-15 21:10:19.922456,-2.5036309,-0.42270714,0.513527,-2.2627213,-4.5845437,6.6648455
949,2024-05-15 21:10:19.939061,-2.5841696,-0.5184081,1.0694894,-0.90537864,-3.7751472,7.206072
950,2024-05-15 21:10:19.955698,-2.696192,-0.654348,1.1427065,0.85696757,-2.6053402,7.620849
951,2024-05-15 21:10:19.973203,-2.7882016,-0.73195815,1.0433753,1.5093716,-2.2229385,7.8028874
952,2024-05-15 21:10:19.987952,-3.0134664,-0.9372103,0.6206681,1.9834031,-2.3359487,8.174904
953,2024-05-15 21:10:20.006566,-2.8289592,-1.1002406,0.340948,1.6614771,-3.386637,8.53165
954,2024-05-15 21:10:20.022354,-2.6637323,-1.0902342,0.328257,1.68469,-3.780034,8.542645
955,2024-05-15 21:10:20.037308,-2.1074953,-1.0009092,0.30873242,2.2711205,-4.1825943,8.1779585
956,2024-05-15 21:10:20.055395,-1.8751528,-0.91060805,0.255772,2.9113073,-3.1532865,7.8645844
957,2024-05-15 21:10:20.072383,-1.6276788,-0.884738,0.12813005,3.3951128,-2.1978931,7.799833
958,2024-05-15 21:10:20.087248,-1.5720338,-0.8625288,0.016351834,3.4952946,-1.9969184,7.8028874
959,2024-05-15 21:10:20.105364,-1.1915181,-0.87253517,-0.25870067,3.4372623,-1.9168952,7.7796745
960,2024-05-15 21:10:20.122296,-1.0607033,-0.8447127,-0.36755022,3.198414,-1.745242,7.5609846
961,2024-05-15 21:10:20.138969,-1.0182374,-0.8325098,-0.40635532,2.6516898,-1.215011,7.341073
962,2024-05-15 21:10:20.155629,-0.98992676,-0.8964527,-0.39024755,2.101911,-0.7965683,7.4724092
963,2024-05-15 21:10:20.172302,-0.897429,-0.9252516,-0.302631,2.0328832,-0.6963864,7.527998
964,2024-05-15 21:10:20.188922,-0.6343353,-1.0184815,-0.18597162,1.9968421,-0.15088372,7.5121155
965,2024-05-15 21:10:20.205607,-0.4046469,-1.0916985,-0.3355787,1.7017943,0.1777618,7.133379
966,2024-05-15 21:10:20.222252,-0.379509,-1.1180567,-0.36974674,1.5356388,0.22602014,7.00693
967,2024-05-15 21:10:20.237524,-0.33313814,-1.2117747,-0.40440285,0.73112935,0.106901415,6.5597763
968,2024-05-15 21:10:20.255589,-0.05662128,-1.4731601,-0.23429495,-0.13324498,-0.5882632,5.935472
969,2024-05-15 21:10:20.272375,0.039781332,-1.5359132,-0.21232979,-0.20715968,-0.7098254,5.7931404
970,2024-05-15 21:10:20.288928,0.21672285,-1.760934,-0.08859278,-0.32322407,-0.8857546,5.2684073
971,2024-05-15 21:10:20.305567,0.40903994,-1.9273812,-0.04783522,-0.1680643,-0.829555,5.105306
972,2024-05-15 21:10:20.323083,1.0924308,-2.6422553,0.024161667,0.75373137,-0.34147367,4.810869
973,2024-05-15 21:10:20.338045,1.4070204,-2.9810066,0.012690976,1.2650256,0.0421497,4.685642
974,2024-05-15 21:10:20.355552,2.1797361,-3.5511549,-0.06296677,2.332818,1.2760975,4.0485096
975,2024-05-15 21:10:20.372232,2.5109525,-3.5963056,-0.11226633,2.8288405,1.981036,3.274543
976,2024-05-15 21:10:20.388873,3.049831,-3.2648454,-0.22477673,3.15321,2.5039365,1.5274686
977,2024-05-15 21:10:20.404533,3.1559958,-3.1093807,-0.234539,3.1770337,2.4917192,0.8378017
978,2024-05-15 21:10:20.422194,2.1672895,-2.3151882,-0.5950421,2.2778401,-0.22113322,-5.628818
979,2024-05-15 21:10:20.438872,1.1161042,-2.2358694,-0.6907125,0.55275667,-1.6853772,-8.220719
980,2024-05-15 21:10:20.455517,0.24942651,-2.1736348,-0.6167632,-1.3464234,-2.098933,-8.929323
981,2024-05-15 21:10:20.472172,0.008297946,-2.1094477,-0.51694375,-1.6689602,-2.1019874,-8.895725
982,2024-05-15 21:10:20.488835,-0.19158493,-1.8675871,-0.13398743,-2.263943,-1.6114625,-8.55975
983,2024-05-15 21:10:20.505579,-0.11373068,-1.6118151,0.15082738,-1.9670625,-0.21197024,-8.504161
984,2024-05-15 21:10:20.522123,-0.18401916,-1.5896058,0.2689511,-1.6738471,0.18325958,-8.576242
985,2024-05-15 21:10:20.538784,-0.46151224,-1.387496,0.37072295,-0.35254562,1.0940597,-8.596401
986,2024-05-15 21:10:20.555454,-0.7617332,-1.1900537,0.25748038,0.7787768,1.4373659,-8.349001
987,2024-05-15 21:10:20.572140,-0.8200629,-1.1136637,0.11983211,1.181337,1.4789047,-8.216443
988,2024-05-15 21:10:20.588864,-0.94209146,-1.093651,0.03636453,2.034716,1.6334536,-8.1461935
989,2024-05-15 21:10:20.605453,-1.0345892,-1.0431311,-0.20134723,2.5380688,1.5827519,-8.126646
990,2024-05-15 21:10:20.622128,-1.1029252,-1.0453277,-0.40220633,2.5399013,1.3884968,-8.319679
991,2024-05-15 21:10:20.638125,-1.2420379,-1.0860853,-0.9362341,1.7977,0.54367006,-9.067378
992,2024-05-15 21:10:20.654125,-1.4931728,-1.225686,-1.1239141,0.49533537,-0.2950479,-9.893879
993,2024-05-15 21:10:20.671901,-2.4098823,-1.4499747,-0.79102004,-1.2065352,-0.81489426,-10.352639
994,2024-05-15 21:10:20.688815,-2.8914378,-1.3816385,-0.1300825,-1.2865585,-0.2773328,-10.482753
995,2024-05-15 21:10:20.705513,-3.2057836,-1.4180031,-0.39366436,-1.2108113,-0.3933972,-11.064908
996,2024-05-15 21:10:20.722187,-3.2301893,-1.5212698,-0.38683072,-1.3904057,-0.4868596,-11.209682
997,2024-05-15 21:10:20.739750,-3.411768,-1.6984553,-0.2967736,-2.009823,-0.23762658,-11.334299
998,2024-05-15 21:10:20.755452,-4.070265,-1.5810639,-0.39659303,-3.9120574,-0.18448131,-8.851132
999,2024-05-15 21:10:20.772130,-3.6417005,-1.289629,-0.08786061,-4.4740534,-0.122783914,-8.05212
