id,timestamp,acc_x,acc_y,acc_z,gyro_x,gyro_y,gyro_z
0,2024-05-15 22:16:04.612684,-0.19939478,0.076633975,1.1446589,0.22907446,0.061621033,0.20150918
1,2024-05-15 22:16:04.628761,-0.2328306,0.08517598,1.16638,0.2669481,-0.0538325,0.25526533
2,2024-05-15 22:16:04.639468,-0.25821257,0.084687866,1.1563737,0.38728857,-0.28107437,0.39820778
3,2024-05-15 22:16:04.655025,-0.14350566,0.11861181,1.0023736,0.37140608,-0.19372064,0.50266576
4,2024-05-15 22:16:04.676867,-0.05051985,0.11617125,0.8730233,0.18203785,-0.0129045285,0.40614903
5,2024-05-15 22:16:04.690353,0.007321717,0.12739788,0.8984052,-0.013439035,0.10560333,0.23388503
6,2024-05-15 22:16:04.706226,-0.004148973,0.13374338,0.95185375,-0.054367006,0.17524196,0.15997034
7,2024-05-15 22:16:04.727469,-0.18865626,0.0959145,1.1214736,0.17959438,0.39332086,0.1379792
8,2024-05-15 22:16:04.740532,-0.2660224,0.08517598,1.1200093,0.30726522,0.36033413,0.3468951
9,2024-05-15 22:16:04.756649,-0.29726174,0.05906185,1.0792516,0.32620203,0.30230194,0.6999752
10,2024-05-15 22:16:04.774358,-0.28213018,0.035632357,1.0948713,0.31337386,0.274813,0.85452414
11,2024-05-15 22:16:04.789517,-0.118855886,-0.011958805,1.1812676,0.44104472,0.4385249,0.83436555
12,2024-05-15 22:16:04.810978,-0.17132819,-0.036608588,1.0792516,0.38056904,0.6724863,0.5063309
13,2024-05-15 22:16:04.824463,-0.2723679,-0.059305906,1.0873055,0.27000242,0.71035993,0.42386413
14,2024-05-15 22:16:04.840336,-0.48689422,-0.10030753,1.0040821,0.22113322,0.71402514,0.49900055
15,2024-05-15 22:16:04.860304,-0.58527976,-0.24234885,1.1344086,0.089186326,0.9363801,1.0597749
16,2024-05-15 22:16:04.876333,-0.6816824,-0.3951287,1.003838,0.025045475,0.8392525,1.5063174
17,2024-05-15 22:16:04.893509,-0.6919328,-0.7507506,0.92329913,-0.7086037,0.6443865,2.2253058
18,2024-05-15 22:16:04.910256,-0.65068716,-0.9489251,0.9757714,-1.042747,0.62483877,2.4110088
19,2024-05-15 22:16:04.925790,-0.47591165,-1.0880377,1.1239141,-1.4538593,0.7952702,2.4775932
20,2024-05-15 22:16:04.943454,-0.26480213,-1.2073817,1.5576344,-1.0586295,2.1978168,2.0499873
21,2024-05-15 22:16:04.959877,-0.24332508,-1.2112865,1.5456756,-0.70921457,2.7072785,1.7641025
22,2024-05-15 22:16:04.975790,-0.31995904,-1.0492326,1.2664436,-0.30726522,3.2698853,1.2442561
23,2024-05-15 22:16:04.993414,-0.41684976,-0.8532546,0.97430706,-0.4538729,3.0249283,0.97975147
24,2024-05-15 22:16:05.008621,-0.53622425,-0.65239555,0.70999306,-1.087951,2.4207826,0.7909941
25,2024-05-15 22:16:05.025756,-0.5696601,-0.5013241,0.6140785,-1.4758505,2.079309,0.80321145
26,2024-05-15 22:16:05.041436,-0.5721007,-0.37584817,0.5789343,-2.0463986,1.6865226,0.8667414
27,2024-05-15 22:16:05.057105,-0.5721007,-0.37584817,0.5789343,-2.0463986,1.6865226,0.8667414
28,2024-05-15 22:16:05.076771,-0.5721007,-0.37584817,0.5789343,-2.0463986,1.6865226,0.8667414
29,2024-05-15 22:16:05.092382,-0.5721007,-0.37584817,0.5789343,-2.0463986,1.6865226,0.8667414
30,2024-05-15 22:16:05.110040,-0.5721007,-0.37584817,0.5789343,-2.0463986,1.6865226,0.8667414
31,2024-05-15 22:16:05.125818,-0.5721007,-0.37584817,0.5789343,-2.0463986,1.6865226,0.8667414
32,2024-05-15 22:16:05.140889,-0.5721007,-0.37584817,0.5789343,-2.0463986,1.6865226,0.8667414
33,2024-05-15 22:16:05.156018,-0.23575929,1.0492326,1.1812676,-3.0439415,1.7427222,0.30413455
34,2024-05-15 22:16:05.176684,-0.23575929,1.0492326,1.1812676,-3.0439415,1.7427222,0.30413455
35,2024-05-15 22:16:05.190164,0.37243137,1.6489117,2.174123,-2.5674667,0.83314383,1.1843914
36,2024-05-15 22:16:05.207153,0.5369564,2.025004,2.147765,-0.70188415,-0.083764896,0.6162867
37,2024-05-15 22:16:05.225733,0.48103684,2.1306808,2.0447726,-0.095294975,-0.14912748,0.51793736
38,2024-05-15 22:16:05.243367,-0.17669745,2.063321,1.5781351,2.1905627,0.22716552,1.213102
39,2024-05-15 22:16:05.259940,-0.40293851,1.9200593,1.4629096,2.565634,0.054901514,1.8844429
40,2024-05-15 22:16:05.275700,-0.47151858,1.3892044,1.0524054,2.7226264,-1.2932781,3.293709
41,2024-05-15 22:16:05.291375,-0.25845662,1.1153722,0.8927919,2.5234842,-2.2486713,3.348076
42,2024-05-15 22:16:05.309991,0.010738519,0.794925,0.9730868,2.288912,-3.2407165,2.292501
43,2024-05-15 22:16:05.325639,-0.19890666,0.5528202,1.5032096,2.6132815,-2.5522714,0.9125563
44,2024-05-15 22:16:05.343850,-0.7429407,0.10836142,2.0628328,3.9260309,-1.5382351,1.181337
45,2024-05-15 22:16:05.359044,-0.7785731,-0.029042812,2.0154858,4.6126432,-1.3616949,1.2473105
46,2024-05-15 22:16:05.374662,-0.7785731,-0.029042812,2.0154858,4.6126432,-1.3616949,1.2473105
47,2024-05-15 22:16:05.393278,-0.794925,-0.51791996,1.6364648,4.3493605,-0.8259662,0.90828025
48,2024-05-15 22:16:05.408780,-1.255217,-1.199816,1.6982114,3.1581733,-0.7147887,0.008475755
49,2024-05-15 22:16:05.426612,-1.9315301,-1.6821035,1.72701,2.641992,-0.8516225,-0.26885706
50,2024-05-15 22:16:05.443273,-2.332028,-2.3952389,1.1876131,1.3946054,-1.0092257,0.35239288
51,2024-05-15 22:16:05.458483,-2.1384907,-2.6937513,1.2686402,0.83077675,-1.0165561,0.64255387
52,2024-05-15 22:16:05.475913,-1.7848517,-2.8572698,1.4526592,0.7648033,-0.9878455,0.6712645
53,2024-05-15 22:16:05.491776,-0.9538062,-2.5936878,1.0541137,2.2724187,-1.4857006,-0.6139959
54,2024-05-15 22:16:05.509621,-0.91622144,-2.2007253,-0.14008886,2.3463335,-1.5119679,-1.5486197
55,2024-05-15 22:16:05.526582,-0.92476344,-1.6784426,-1.0045701,0.8686504,-1.5394567,-1.6982818
56,2024-05-15 22:16:05.543277,-0.58772033,-1.0929189,-1.3831029,-1.4611896,-1.3067172,-1.805794
57,2024-05-15 22:16:05.559688,-0.5298788,-0.9787001,-1.3181837,-2.8044822,-1.0147235,-1.9841666
58,2024-05-15 22:16:05.575562,-0.7597807,-0.88839895,-0.84129584,-4.5130725,0.021303926,-2.0855703
59,2024-05-15 22:16:05.587329,-0.97284275,-0.84861755,-0.60846525,-5.194798,0.6694319,-1.9719493
60,2024-05-15 22:16:05.604373,-1.3142787,-0.7712514,-0.13716017,-6.536869,1.4366786,-1.4142294
61,2024-05-15 22:16:05.623018,-1.4714516,-0.53451586,1.2078698,-6.980357,2.060983,-0.7233408
62,2024-05-15 22:16:05.643069,-1.4060442,-0.3802412,1.6332921,-6.64377,2.3138812,-0.45700356
63,2024-05-15 22:16:05.658634,-1.2249539,-0.118855886,1.8839389,-6.2039475,2.5930467,-0.4020257
64,2024-05-15 22:16:05.674536,-1.2169,0.042221904,2.0445285,-6.1850104,2.6480246,-0.43440154
65,2024-05-15 22:16:05.690162,-1.2169,0.042221904,2.0445285,-6.1850104,2.6480246,-0.43440154
66,2024-05-15 22:16:05.709882,-1.2169,0.042221904,2.0445285,-6.1850104,2.6480246,-0.43440154
67,2024-05-15 22:16:05.725551,-1.2169,0.042221904,2.0445285,-6.1850104,2.6480246,-0.43440154
68,2024-05-15 22:16:05.742873,-1.2169,0.042221904,2.0445285,-6.1850104,2.6480246,-0.43440154
69,2024-05-15 22:16:05.758833,-1.2169,0.042221904,2.0445285,-6.1850104,2.6480246,-0.43440154
70,2024-05-15 22:16:05.776511,-1.2169,0.042221904,2.0445285,-6.1850104,2.6480246,-0.43440154
71,2024-05-15 22:16:05.792157,-1.2169,0.042221904,2.0445285,-6.1850104,2.6480246,-0.43440154
72,2024-05-15 22:16:05.809442,0.03465613,2.6859415,3.1323223,-1.1820242,-0.9591348,1.5539649
73,2024-05-15 22:16:05.824998,-0.067847915,1.3425895,2.4970107,4.341419,-1.7239381,0.8252026
74,2024-05-15 22:16:05.843169,-0.31873876,1.089258,2.1929154,4.9168544,-1.855885,0.7720573
75,2024-05-15 22:16:05.858524,-0.67899776,0.6726523,1.7860719,5.4812937,-2.1833088,1.1208614
76,2024-05-15 22:16:05.876470,-0.603096,0.15912533,1.722861,5.9718184,-2.277993,1.2570844
77,2024-05-15 22:16:05.893669,-0.6255492,-0.24723,1.772893,6.572299,-2.246228,0.9815841
78,2024-05-15 22:16:05.909587,-0.6296982,-0.5118186,1.6332921,7.11658,-2.0947332,0.75984
79,2024-05-15 22:16:05.925009,-0.32947728,-0.6143226,1.3401489,7.2155404,-1.3054954,0.21128301
80,2024-05-15 22:16:05.943157,-0.2779812,-0.6172513,1.4097052,6.894225,-0.47594038,-0.14362969
81,2024-05-15 22:16:05.958577,-0.6131023,-1.2942661,1.7897328,6.5435886,1.2277628,-0.9664652
82,2024-05-15 22:16:05.976079,-1.3565006,-1.7663033,1.1412421,5.2241197,0.99746656,-1.52052
83,2024-05-15 22:16:05.993117,-1.6384172,-1.8575808,1.0314164,4.0860777,0.8655197,-1.352532
84,2024-05-15 22:16:06.008530,-1.8980943,-2.3647318,1.5725219,1.6969837,0.610178,-0.40569088
85,2024-05-15 22:16:06.026425,-1.6984553,-2.7418306,1.8034,1.3860532,0.53931767,-0.020845776
86,2024-05-15 22:16:06.043104,-1.5608071,-2.987108,1.2493596,1.3530666,-0.055665094,-0.050778173
87,2024-05-15 22:16:06.059483,-1.012868,-2.5561032,0.0102504045,-0.06963864,-2.4734697,-0.3311653
88,2024-05-15 22:16:06.075360,-0.49104318,-2.0569754,-0.2945771,-1.4764613,-2.853428,-1.0135018
89,2024-05-15 22:16:06.093081,-0.4588276,-1.8514794,-0.3995217,-1.8142698,-2.2621105,-1.3091606
90,2024-05-15 22:16:06.108730,-0.5228011,-1.4331347,-0.6465382,-2.9626966,-0.4893794,-2.0983984
91,2024-05-15 22:16:06.126223,-0.71096927,-1.2354482,-0.65288365,-4.338976,0.09521862,-2.4490352
92,2024-05-15 22:16:06.143531,-0.8664337,-1.1646717,-0.47078642,-5.1202726,0.25282186,-2.5137868
93,2024-05-15 22:16:06.159319,-1.2879206,-1.0502088,0.108117364,-6.597345,0.8514698,-2.277382
94,2024-05-15 22:16:06.176396,-1.4970777,-0.78101367,1.1754103,-7.294953,1.5826755,-1.7721964
95,2024-05-15 22:16:06.193037,-1.5586106,-0.56063,1.747755,-7.1116934,1.9259818,-1.4991397
96,2024-05-15 22:16:06.209671,-1.5600749,-0.041001618,2.284925,-6.4299674,1.7995327,-1.189431
97,2024-05-15 22:16:06.224883,-1.434355,0.49006698,2.72133,-5.883854,1.2149346,-0.9957867
98,2024-05-15 22:16:06.241003,-1.3679714,0.78174585,2.819685,-5.551543,1.0426706,-0.85773116
99,2024-05-15 22:16:06.259423,-1.3338034,1.4812139,2.9256058,-4.918076,0.728075,-0.32566753
100,2024-05-15 22:16:06.276156,-1.3555244,2.0093844,2.9109623,-4.4947467,-0.40813434,0.6932557
101,2024-05-15 22:16:06.293017,-1.0575305,2.3166523,2.8902175,-4.103182,-1.3946817,1.4653894
102,2024-05-15 22:16:06.309428,-0.63750803,2.3730295,2.9197483,-3.5430183,-1.9994383,1.9834031
103,2024-05-15 22:16:06.325336,-0.63750803,2.3730295,2.9197483,-3.5430183,-1.9994383,1.9834031
104,2024-05-15 22:16:06.342954,-0.63750803,2.3730295,2.9197483,-3.5430183,-1.9994383,1.9834031
105,2024-05-15 22:16:06.358658,-0.63750803,2.3730295,2.9197483,-3.5430183,-1.9994383,1.9834031
106,2024-05-15 22:16:06.376297,-0.63750803,2.3730295,2.9197483,-3.5430183,-1.9994383,1.9834031
107,2024-05-15 22:16:06.391968,-0.63750803,2.3730295,2.9197483,-3.5430183,-1.9994383,1.9834031
108,2024-05-15 22:16:06.409599,-0.63750803,2.3730295,2.9197483,-3.5430183,-1.9994383,1.9834031
109,2024-05-15 22:16:06.426324,-0.63750803,2.3730295,2.9197483,-3.5430183,-1.9994383,1.9834031
110,2024-05-15 22:16:06.441969,-0.63750803,2.3730295,2.9197483,-3.5430183,-1.9994383,1.9834031
111,2024-05-15 22:16:06.459640,-0.63750803,2.3730295,2.9197483,-3.5430183,-1.9994383,1.9834031
112,2024-05-15 22:16:06.475688,-0.5130389,-0.36437747,1.602785,6.2790837,-0.7050148,0.024358252
113,2024-05-15 22:16:06.491010,-0.4790844,-0.48396555,1.6864966,6.4409633,-0.13629931,-0.23037256
114,2024-05-15 22:16:06.509086,-0.7087728,-0.85960007,1.7433618,6.6419377,0.83803076,-0.6934084
115,2024-05-15 22:16:06.525197,-1.0355655,-1.3882282,1.3472265,6.142861,1.7867045,-1.0342712
116,2024-05-15 22:16:06.540790,-1.3150109,-1.6249942,1.0758349,5.429981,2.3291528,-1.2871695
117,2024-05-15 22:16:06.559121,-2.2036538,-1.7623985,0.9081675,3.287066,2.8514426,-0.95791304
118,2024-05-15 22:16:06.576250,-2.3520408,-2.3598506,1.3308747,1.5467108,2.6895633,0.46784642
119,2024-05-15 22:16:06.593140,-2.242947,-2.4997258,1.4104373,1.3683381,2.4018457,0.81909394
120,2024-05-15 22:16:06.608003,-1.2742534,-2.7423186,0.8608204,1.4636332,0.55275667,1.1953869
121,2024-05-15 22:16:06.618346,-1.2742534,-2.7423186,0.8608204,1.4636332,0.55275667,1.1953869
122,2024-05-15 22:16:06.643422,-0.20696054,-1.8771054,-0.5916253,-1.1044444,-1.6469691,-0.727006
123,2024-05-15 22:16:06.658628,-0.16742326,-1.6694126,-0.64385355,-1.930945,-1.4508814,-1.2963324
124,2024-05-15 22:16:06.675687,-0.19597797,-1.5710576,-0.65459204,-2.320677,-1.2163091,-1.5486197
125,2024-05-15 22:16:06.689788,-0.40000984,-1.4053122,-0.64434165,-3.4110715,-0.2596941,-2.0556378
126,2024-05-15 22:16:06.705015,-0.79077595,-1.2183642,-0.27505252,-5.2503867,1.3554336,-2.1564307
127,2024-05-15 22:16:06.724709,-1.1073182,-1.0160408,0.5213368,-6.580851,2.1202369,-2.3060927
128,2024-05-15 22:16:06.740347,-1.4407004,-0.829337,1.1761423,-6.732957,2.573499,-2.1491003
129,2024-05-15 22:16:06.758925,-1.5232222,-0.28554696,1.8522114,-6.101933,2.9754481,-1.8668805
130,2024-05-15 22:16:06.787249,-1.4228842,0.21135357,2.0401356,-5.9510493,1.9711858,-1.9688951
131,2024-05-15 22:16:06.806000,-1.4350871,1.1100029,2.602474,-5.6083536,1.6590337,-1.6274214
132,2024-05-15 22:16:06.821711,-1.468279,1.4568082,2.8008926,-5.327356,1.566793,-1.2731196
133,2024-05-15 22:16:06.841483,-1.4070204,2.0074317,2.9575772,-4.591874,0.8673523,-0.4997641
134,2024-05-15 22:16:06.860558,-0.95575863,2.5082679,2.607111,-3.186273,-1.5779413,1.1703415
135,2024-05-15 22:16:06.873283,-0.7361072,2.5207148,2.4806588,-2.9064968,-2.0525837,1.5386932
136,2024-05-15 22:16:06.888751,-0.22746135,2.4799266,2.3349566,-2.2351558,-2.6884942,2.0658698
137,2024-05-15 22:16:06.909774,0.25772443,1.9861989,2.4672356,-0.29626966,-2.2920427,1.9461403
138,2024-05-15 22:16:06.925082,-0.039537273,1.3989667,2.374982,1.9730947,-1.7343228,1.1825588
139,2024-05-15 22:16:06.942791,-0.40049794,1.1876131,2.0791848,2.7794368,-1.8858174,0.9363801
140,2024-05-15 22:16:06.959431,-0.6638662,1.0082309,1.8234128,3.1673362,-2.2847123,0.86613053
141,2024-05-15 22:16:06.976070,-0.6638662,1.0082309,1.8234128,3.1673362,-2.2847123,0.86613053
142,2024-05-15 22:16:06.991731,-0.6638662,1.0082309,1.8234128,3.1673362,-2.2847123,0.86613053
143,2024-05-15 22:16:07.009404,-0.6638662,1.0082309,1.8234128,3.1673362,-2.2847123,0.86613053
144,2024-05-15 22:16:07.026054,-1.0978,0.38585448,1.6442746,4.4031167,-2.7740154,0.7867181
145,2024-05-15 22:16:07.041899,-1.1744341,0.27432033,1.6733174,4.912578,-2.3427446,0.5979607
146,2024-05-15 22:16:07.061569,-1.1744341,0.27432033,1.6733174,4.912578,-2.3427446,0.5979607
147,2024-05-15 22:16:07.076412,-1.1744341,0.27432033,1.6733174,4.912578,-2.3427446,0.5979607
148,2024-05-15 22:16:07.087270,-1.778506,-1.400431,1.4245927,6.2485404,-0.5987243,0.19356793
149,2024-05-15 22:16:07.109062,-2.0638092,-1.9722877,0.918662,5.427538,0.12942708,0.08972083
150,2024-05-15 22:16:07.123486,-2.148253,-2.1470327,0.73903584,4.7268753,0.19845484,0.30535626
151,2024-05-15 22:16:07.139488,-2.1387346,-2.5285246,0.41611758,3.2314773,0.24915667,0.88873255
152,2024-05-15 22:16:07.158491,-1.4641299,-2.8531206,0.15790504,0.8875872,-0.23525947,1.462335
153,2024-05-15 22:16:07.174084,-0.4949481,-2.547317,-0.3248402,-0.7623598,-1.4600443,0.8783479
154,2024-05-15 22:16:07.192624,-0.29652956,-2.3967032,-0.40489095,-1.219287,-1.7294359,0.542372
155,2024-05-15 22:16:07.208340,0.08712844,-2.0201228,-0.5823511,-2.062892,-1.552285,-0.36537376
156,2024-05-15 22:16:07.226023,0.08712844,-2.0201228,-0.5823511,-2.062892,-1.552285,-0.36537376
157,2024-05-15 22:16:07.242670,-0.51474726,-1.426301,-0.6165191,-4.0732493,2.0182223,-1.747151
158,2024-05-15 22:16:07.259533,-0.7087728,-1.3782218,-0.41172457,-5.3835554,2.9442942,-2.0220404
159,2024-05-15 22:16:07.274860,-1.1546654,-1.2276385,0.60382813,-6.477615,3.765297,-2.3598487
160,2024-05-15 22:16:07.292130,-1.3281901,-1.1507604,0.92476344,-6.5625253,4.0340776,-2.3684008
161,2024-05-15 22:16:07.308125,-1.65843,-0.5445222,2.140443,-6.274197,4.8868456,-2.3256404
162,2024-05-15 22:16:07.325974,-1.6432984,0.003172744,2.3713212,-5.3316317,3.189862,-2.436207
163,2024-05-15 22:16:07.342057,-1.5903381,0.17035197,2.3713212,-5.244889,2.6535223,-2.4239895
164,2024-05-15 22:16:07.358324,-1.2915815,0.80786,2.403781,-5.031697,1.3658184,-2.1509328
165,2024-05-15 22:16:07.376726,-1.3425895,1.3206244,2.7191334,-4.6205845,1.1611785,-1.5852717
166,2024-05-15 22:16:07.391869,-1.3179396,1.5276153,2.844823,-4.3084326,1.013349,-1.3091606
167,2024-05-15 22:16:07.409282,-1.115128,1.9981577,2.88436,-2.9810224,-0.06116288,-0.3665955
168,2024-05-15 22:16:07.425972,-0.8913276,2.1087155,2.5790443,-1.9724839,-1.2401328,0.46051604
169,2024-05-15 22:16:07.442779,-0.7836983,2.12824,2.504851,-1.6969837,-1.4948636,0.6914231
170,2024-05-15 22:16:07.458065,-0.55745727,1.965698,2.3564336,-0.46914452,-1.8986455,1.2057717
171,2024-05-15 22:16:07.475716,-0.4790844,1.6594063,2.2224462,0.93034774,-2.004936,1.1929435
172,2024-05-15 22:16:07.491452,-0.49226347,1.5661764,2.2102435,1.3701707,-1.987221,1.1019245
173,2024-05-15 22:16:07.509644,-0.89913744,1.212995,2.0779645,2.8918362,-1.7593683,0.85574585
174,2024-05-15 22:16:07.524937,-1.119033,1.0724181,1.990348,3.3438764,-1.7221055,0.9290497
175,2024-05-15 22:16:07.542589,-1.3845673,0.8447127,1.8814982,3.8197403,-1.9334649,1.217378
176,2024-05-15 22:16:07.559275,-1.4502187,0.49641246,1.8209721,4.192979,-2.3176992,1.4666111
177,2024-05-15 22:16:07.575907,-1.4243486,0.06760386,1.9019992,5.02681,-2.617023,1.3419946
178,2024-05-15 22:16:07.592679,-1.4233724,-0.08932495,1.8317106,5.4507504,-2.5327237,1.2638038
179,2024-05-15 22:16:07.608250,-1.4233724,-0.08932495,1.8317106,5.4507504,-2.5327237,1.2638038
180,2024-05-15 22:16:07.624274,-1.4233724,-0.08932495,1.8317106,5.4507504,-2.5327237,1.2638038
181,2024-05-15 22:16:07.642577,-1.4233724,-0.08932495,1.8317106,5.4507504,-2.5327237,1.2638038
182,2024-05-15 22:16:07.673296,-1.4233724,-0.08932495,1.8317106,5.4507504,-2.5327237,1.2638038
183,2024-05-15 22:16:07.692967,-1.4233724,-0.08932495,1.8317106,5.4507504,-2.5327237,1.2638038
184,2024-05-15 22:16:07.711004,-1.4233724,-0.08932495,1.8317106,5.4507504,-2.5327237,1.2638038
185,2024-05-15 22:16:07.726375,-1.4233724,-0.08932495,1.8317106,5.4507504,-2.5327237,1.2638038
186,2024-05-15 22:16:07.739593,-1.4233724,-0.08932495,1.8317106,5.4507504,-2.5327237,1.2638038
187,2024-05-15 22:16:07.755651,-0.41343296,-2.283949,0.13252309,0.1142318,0.4440227,1.1165853
188,2024-05-15 22:16:07.771682,-0.01513155,-2.1367822,-0.3277689,-0.79290307,-0.4881577,0.21250474
189,2024-05-15 22:16:07.787106,0.03465613,-2.0533147,-0.522069,-1.2822062,-0.69646275,-0.062384613
190,2024-05-15 22:16:07.803659,0.051740136,-1.78656,-0.69559366,-3.3896914,-0.26580274,-0.89071786
191,2024-05-15 22:16:07.825469,-0.20476402,-1.6657517,-0.2716357,-4.65968,0.8966738,-1.5480089
192,2024-05-15 22:16:07.836170,-0.20476402,-1.6657517,-0.2716357,-5.099503,1.2760211,-1.9016999
193,2024-05-15 22:16:07.847463,-0.53573614,-1.624018,0.110557936,-5.7201424,1.9443077,-2.6665032
194,2024-05-15 22:16:07.860233,-0.6589851,-1.5947311,0.22355644,-5.805663,2.1666627,-2.8155544
195,2024-05-15 22:16:07.875612,-1.3328272,-1.1297716,0.87448764,-6.134309,3.6474,-3.1222086
196,2024-05-15 22:16:07.891051,-1.6501321,-0.86863023,1.3389286,-6.390872,4.253989,-3.1643584
197,2024-05-15 22:16:07.909130,-2.0474572,-0.47786412,2.268085,-6.3481116,4.188016,-3.2602642
198,2024-05-15 22:16:07.925919,-2.1763196,-0.10640897,2.6561666,-5.825211,2.5484533,-3.2480469
199,2024-05-15 22:16:07.941456,-2.0054793,0.51743186,2.8738656,-5.0475793,0.7439575,-3.2987487
200,2024-05-15 22:16:07.959108,-2.2141483,1.183464,2.9583094,-4.034154,0.23816109,-2.5253932
201,2024-05-15 22:16:07.975756,-1.9300656,1.7172477,2.684477,-2.9852984,-0.39958224,-1.3280973
202,2024-05-15 22:16:07.992410,-1.9300656,1.7172477,2.684477,-2.6120598,-0.8839984,-0.8821658
203,2024-05-15 22:16:08.008078,-1.5259069,1.9508107,2.1987727,-2.0335703,-1.5040265,-0.21693352
204,2024-05-15 22:16:08.025765,-1.3552804,1.999378,1.9666743,-1.6676621,-1.6878971,0.39515346
205,2024-05-15 22:16:08.040988,-1.3552804,1.999378,1.9666743,-1.6676621,-1.6878971,0.39515346
206,2024-05-15 22:16:08.058619,-0.88205343,1.7379928,1.9576442,-0.5626069,-1.6005433,1.589395
207,2024-05-15 22:16:08.075745,-0.67802155,1.4692552,2.305426,0.7648033,-1.4624877,1.5258651
208,2024-05-15 22:16:08.092381,-0.7502625,1.3357558,2.39109,1.6719382,-1.279839,1.3829225
209,2024-05-15 22:16:08.109050,-0.9811407,1.084621,2.220738,2.7910433,-1.4685965,1.3444381
210,2024-05-15 22:16:08.124720,-1.1519806,0.8693625,2.0684462,3.3970215,-1.9652299,1.4562263
211,2024-05-15 22:16:08.140218,-1.2107985,0.4881145,1.8431814,4.166101,-2.7660742,1.6443729
212,2024-05-15 22:16:08.159065,-1.1688206,0.15497635,1.7982749,4.860044,-2.7611873,1.5869515
213,2024-05-15 22:16:08.174675,-1.1483198,-0.264314,1.6223094,5.90218,-2.3176992,1.2344823
214,2024-05-15 22:16:08.191874,-1.1483198,-0.264314,1.6223094,5.90218,-2.3176992,1.2344823
215,2024-05-15 22:16:08.209047,-1.1436827,-0.7265889,1.3216006,6.721961,-1.8265635,0.87346095
216,2024-05-15 22:16:08.225675,-1.0753468,-0.9603958,1.1673564,6.814202,-1.6323082,0.7879398
217,2024-05-15 22:16:08.241315,-1.0333688,-1.0626557,1.1505164,6.827641,-1.4679855,0.7268533
218,2024-05-15 22:16:08.258988,-1.0333688,-1.0626557,1.1505164,6.827641,-1.4679855,0.7268533
219,2024-05-15 22:16:08.275702,-1.0333688,-1.0626557,1.1505164,6.827641,-1.4679855,0.7268533
220,2024-05-15 22:16:08.291314,-1.0333688,-1.0626557,1.1505164,6.827641,-1.4679855,0.7268533
221,2024-05-15 22:16:08.308973,-1.0333688,-1.0626557,1.1505164,6.827641,-1.4679855,0.7268533
222,2024-05-15 22:16:08.324628,-1.0333688,-1.0626557,1.1505164,6.827641,-1.4679855,0.7268533
223,2024-05-15 22:16:08.342302,-1.0333688,-1.0626557,1.1505164,6.827641,-1.4679855,0.7268533
224,2024-05-15 22:16:08.358991,-1.0333688,-1.0626557,1.1505164,6.827641,-1.4679855,0.7268533
225,2024-05-15 22:16:08.374437,0.13520771,-1.8722242,-0.6538599,-2.71102,-0.5968917,-1.5773305
226,2024-05-15 22:16:08.386317,0.13520771,-1.8722242,-0.6538599,-2.71102,-0.5968917,-1.5773305
227,2024-05-15 22:16:08.410731,-0.47127452,-1.6342684,-0.71243364,-4.810564,0.9846384,-2.4698045
228,2024-05-15 22:16:08.426503,-0.769543,-1.628655,-0.5633146,-5.759238,1.607721,-2.5321128
229,2024-05-15 22:16:08.442239,-1.1546654,-1.6459831,0.026358182,-6.860017,2.5160775,-2.4068854
230,2024-05-15 22:16:08.456402,-1.4809699,-1.4550998,0.7597807,-7.1862187,3.9357283,-2.340301
231,2024-05-15 22:16:08.471579,-1.8529437,-1.0062785,1.3667511,-7.184997,4.920443,-2.3378577
232,2024-05-15 22:16:08.492237,-2.713764,-0.34558508,2.0147536,-7.439728,5.5172586,-2.2016346
233,2024-05-15 22:16:08.506429,-2.9412253,-0.08590815,2.5016785,-7.475158,4.5563674,-1.6469691
234,2024-05-15 22:16:08.521590,-1.9173747,0.5188962,3.5584767,-6.05062,1.9632446,-1.8186222
235,2024-05-15 22:16:08.542218,-1.969603,1.131968,3.6177826,-3.8374555,0.6840927,-2.1222222
236,2024-05-15 22:16:08.556280,-2.097733,1.4045799,3.3644204,-2.823419,0.26565003,-1.6457473
237,2024-05-15 22:16:08.571589,-1.5759387,1.8295141,2.468456,-1.9071213,-0.7868708,-0.39408445
238,2024-05-15 22:16:08.592064,-0.86570156,1.9949849,1.982538,-1.9749273,-1.8711566,0.37071884
239,2024-05-15 22:16:08.606389,-0.7231721,1.9608169,2.0286648,-1.8228219,-2.0660226,0.5997933
240,2024-05-15 22:16:08.621538,-0.61920375,1.7885126,2.2412388,-0.49113566,-1.7593683,0.90461504
241,2024-05-15 22:16:08.642122,-0.54964745,1.5878975,2.0779645,1.1136073,-1.1570551,1.0689378
242,2024-05-15 22:16:08.656395,-0.55648106,1.5273713,1.9744841,1.4935656,-1.1118511,1.0781008
243,2024-05-15 22:16:08.671532,-0.7832102,1.2518002,1.8082812,2.2369885,-1.3977361,1.1666763
244,2024-05-15 22:16:08.692203,-0.99309945,0.9333054,1.8900403,2.928488,-1.7691422,1.3804791
245,2024-05-15 22:16:08.706345,-1.068025,0.7595367,1.8958976,3.2882876,-2.0183752,1.4934891
246,2024-05-15 22:16:08.721568,-1.1207414,0.44394013,1.9364113,4.0084977,-2.3262513,1.6064992
247,2024-05-15 22:16:08.742200,-1.169797,0.073217176,1.9046837,4.904026,-2.3604596,1.5686256
248,2024-05-15 22:16:08.756281,-1.1754103,-0.057109397,1.7963223,5.3481255,-2.299984,1.4690546
249,2024-05-15 22:16:08.767220,-1.2561932,-0.37194324,1.6132795,5.6553903,-2.213241,1.2760211
250,2024-05-15 22:16:08.782844,-1.2696164,-0.5025444,1.5698372,5.7720656,-2.209576,1.1697305
251,2024-05-15 22:16:08.803451,-1.2820632,-0.78198993,1.5617833,5.9736514,-2.1564307,0.9669233
252,2024-05-15 22:16:08.820470,-1.3569888,-1.4326465,1.4468019,6.6016207,-1.5394567,0.37194058
253,2024-05-15 22:16:08.841120,-1.7216408,-1.9005347,1.0719299,6.75617,-0.82291186,-0.2523637
254,2024-05-15 22:16:08.856211,-1.9613051,-1.956424,0.23502712,6.464176,-0.58406353,-0.34155002
255,2024-05-15 22:16:08.871450,-1.9339706,-1.8988264,-0.094206095,4.344474,-0.2664136,0.37377316
256,2024-05-15 22:16:08.892601,-1.9339706,-1.8988264,-0.094206095,4.344474,-0.2664136,0.37377316
257,2024-05-15 22:16:08.907834,-1.9339706,-1.8988264,-0.094206095,4.344474,-0.2664136,0.37377316
258,2024-05-15 22:16:08.923459,-1.9339706,-1.8988264,-0.094206095,4.344474,-0.2664136,0.37377316
259,2024-05-15 22:16:08.942093,-1.9339706,-1.8988264,-0.094206095,4.344474,-0.2664136,0.37377316
260,2024-05-15 22:16:08.957746,-1.9339706,-1.8988264,-0.094206095,4.344474,-0.2664136,0.37377316
261,2024-05-15 22:16:08.975412,-1.9339706,-1.8988264,-0.094206095,4.344474,-0.2664136,0.37377316
262,2024-05-15 22:16:08.991109,-1.9339706,-1.8988264,-0.094206095,4.344474,-0.2664136,0.37377316
263,2024-05-15 22:16:09.008237,-1.9339706,-1.8988264,-0.094206095,4.344474,-0.2664136,0.37377316
264,2024-05-15 22:16:09.023558,-1.9339706,-1.8988264,-0.094206095,4.344474,-0.2664136,0.37377316
265,2024-05-15 22:16:09.036984,0.029530926,-1.6745377,-1.0260471,-2.4294112,0.03718642,-1.7746398
266,2024-05-15 22:16:09.048243,-1.6996757,-0.99798054,1.4358193,-6.2485404,4.145255,-3.1002176
267,2024-05-15 22:16:09.058983,-1.94837,-0.78003746,1.9019992,-6.0976567,4.476955,-3.0983849
268,2024-05-15 22:16:09.074386,-2.088703,-0.5364683,2.2356255,-5.765346,4.0579014,-3.0812807
269,2024-05-15 22:16:09.091743,-1.9901037,0.014399378,2.4438062,-5.2962017,1.6413186,-3.0812807
270,2024-05-15 22:16:09.107461,-1.9181069,0.24454537,2.5019224,-5.1752505,1.0225121,-3.0537918
271,2024-05-15 22:16:09.125358,-2.0020628,0.69046843,2.6827688,-4.4806967,0.14958562,-2.327473
272,2024-05-15 22:16:09.142067,-1.5510448,1.1766305,2.4003642,-3.5821137,-0.2523637,-1.3103824
273,2024-05-15 22:16:09.157391,-1.1727256,1.456076,2.1455681,-3.3066137,-0.7581601,-0.7001279
274,2024-05-15 22:16:09.175327,-1.110491,1.5642239,2.1938915,-3.0250046,-0.8937722,-0.3910301
275,2024-05-15 22:16:09.190731,-0.9530741,1.6806393,2.1763196,-2.1728477,-1.0874165,0.20639609
276,2024-05-15 22:16:09.208262,-0.8395874,1.7026043,2.067714,-1.2589933,-1.4441618,0.610178
277,2024-05-15 22:16:09.224327,-0.8491057,1.6679484,2.059172,-0.7324274,-1.5168548,0.7812203
278,2024-05-15 22:16:09.241921,-0.824944,1.552021,1.9654541,0.37751472,-1.5803847,0.99929917
279,2024-05-15 22:16:09.258662,-0.84983784,1.3767574,1.9332385,1.5234979,-1.4734833,1.068327
280,2024-05-15 22:16:09.275800,-0.9225669,1.2549728,1.922744,2.0292943,-1.384297,1.0719922
281,2024-05-15 22:16:09.291589,-1.1405101,1.0145764,1.892725,2.8722885,-1.529072,1.1514046
282,2024-05-15 22:16:09.307640,-1.2842598,0.722684,1.7916852,3.653585,-2.0751855,1.3969724
283,2024-05-15 22:16:09.325311,-1.2737653,0.55989784,1.6906456,3.9724567,-2.2902102,1.5020412
284,2024-05-15 22:16:09.341581,-1.2132391,0.24991462,1.6005884,4.543616,-2.2828798,1.5594627
285,2024-05-15 22:16:09.357569,-1.221293,-0.11177822,1.7311591,5.252219,-1.5180765,1.4232397
286,2024-05-15 22:16:09.375212,-1.2664436,-0.3141017,1.7487313,5.5906386,-1.2156982,1.3255012
287,2024-05-15 22:16:09.391936,-1.2918255,-0.7597807,1.568861,6.210667,-0.87300277,1.1850022
288,2024-05-15 22:16:09.408604,-1.1939586,-1.144415,1.2989032,6.137363,-0.8778897,0.9834167
289,2024-05-15 22:16:09.424316,-1.2154356,-1.3608937,1.2688842,6.0359597,-0.78809255,0.8264243
290,2024-05-15 22:16:09.441795,-1.3965261,-1.7958342,1.0458158,5.7781744,-0.24930938,0.44280094
291,2024-05-15 22:16:09.457330,-1.5783793,-1.8749088,0.30726805,4.5020766,-0.15951219,0.7494553
292,2024-05-15 22:16:09.474253,-1.5200496,-1.8397646,0.035144243,3.1215215,-0.41118866,1.222265
293,2024-05-15 22:16:09.491857,-1.1131755,-2.1589913,0.22502078,0.77274454,-1.0953578,2.0255527
294,2024-05-15 22:16:09.507022,-0.21501444,-2.3549695,0.48738232,0.027488936,-1.6823993,1.5698473
295,2024-05-15 22:16:09.525238,-0.21501444,-2.3549695,0.48738232,0.027488936,-1.6823993,1.5698473
296,2024-05-15 22:16:09.540959,-0.21501444,-2.3549695,0.48738232,0.027488936,-1.6823993,1.5698473
297,2024-05-15 22:16:09.558587,-0.21501444,-2.3549695,0.48738232,0.027488936,-1.6823993,1.5698473
298,2024-05-15 22:16:09.575202,-0.21501444,-2.3549695,0.48738232,0.027488936,-1.6823993,1.5698473
299,2024-05-15 22:16:09.591876,-0.21501444,-2.3549695,0.48738232,0.027488936,-1.6823993,1.5698473
300,2024-05-15 22:16:09.607567,-0.21501444,-2.3549695,0.48738232,0.027488936,-1.6823993,1.5698473
301,2024-05-15 22:16:09.623251,-0.21501444,-2.3549695,0.48738232,0.027488936,-1.6823993,1.5698473
302,2024-05-15 22:16:09.641855,-0.04905551,-1.5764267,-0.880345,-2.4672847,-0.25663975,-1.1179597
303,2024-05-15 22:16:09.658530,-1.7062652,-0.33777523,1.8832067,-5.2070155,3.035924,-2.513176
304,2024-05-15 22:16:09.675202,-1.8963859,0.16693515,2.669834,-4.663956,1.0023535,-2.6390142
305,2024-05-15 22:16:09.691861,-1.8085252,0.45980385,2.7271872,-3.9694023,0.20334177,-2.554715
306,2024-05-15 22:16:09.707509,-1.6579418,1.0006652,2.1243353,-2.9486465,-0.32200235,-2.2114086
307,2024-05-15 22:16:09.723205,-1.6401258,1.2149475,1.799007,-2.7085764,-0.29023734,-1.7227163
308,2024-05-15 22:16:09.741870,-1.3926212,1.5417707,1.3889602,-2.8252518,-0.3018438,-0.6445392
309,2024-05-15 22:16:09.757529,-1.1893214,1.7680118,1.624262,-2.850908,-0.05749769,0.04390594
310,2024-05-15 22:16:09.775201,-1.0355655,2.0018184,2.0091403,-2.2162192,-0.26335928,0.92843884
311,2024-05-15 22:16:09.791804,-0.939895,2.0423322,2.1009057,-1.7318029,-0.5901722,1.263193
312,2024-05-15 22:16:09.808580,-0.58698815,1.935923,2.204142,-0.602924,-0.96524346,1.6883552
313,2024-05-15 22:16:09.824163,-0.46029195,1.8331751,2.3095748,-0.24129178,-0.94203055,1.6828574
314,2024-05-15 22:16:09.842235,-0.5037647,1.5678847,2.199261,1.7599027,-0.64148486,1.3517684
315,2024-05-15 22:16:09.857482,-0.7849186,1.3120823,1.94837,2.787989,-0.82474446,1.226541
316,2024-05-15 22:16:09.874781,-0.9308648,1.0089632,1.6679484,3.3560936,-1.3152692,1.3645966
317,2024-05-15 22:16:09.890321,-1.0055463,0.79590124,1.6608706,3.517362,-1.6048193,1.4470634
318,2024-05-15 22:16:09.908082,-0.9994449,0.48152497,1.7367723,4.1911464,-1.6756797,1.5655713
319,2024-05-15 22:16:09.925009,-0.8739995,0.15424417,1.4958574,4.955339,-1.279839,1.4635568
320,2024-05-15 22:16:09.941749,-0.84861755,0.01952458,1.3618699,5.090951,-1.062371,1.3334424
321,2024-05-15 22:16:09.958303,-0.8693625,-0.22160399,1.2305671,5.145929,-0.67874765,1.113531
322,2024-05-15 22:16:09.975133,-0.8942563,-0.5957743,1.2757177,5.0145926,-0.5968917,1.0121274
323,2024-05-15 22:16:09.991748,-0.88620234,-0.9189061,1.3118382,5.024367,-0.522977,0.90522593
324,2024-05-15 22:16:10.008360,-1.0643642,-1.7316471,1.08096,5.1074443,-0.47838384,0.56986094
325,2024-05-15 22:16:10.025093,-1.221049,-2.2829726,0.47103047,4.4299946,0.30596712,0.71524686
326,2024-05-15 22:16:10.041755,-1.1200093,-2.529989,0.18304294,3.5143077,0.85513496,1.050001
327,2024-05-15 22:16:10.057131,-0.7575842,-3.0481224,-0.077122085,2.7525587,1.0487792,1.2619712
328,2024-05-15 22:16:10.074948,-0.12568948,-3.1730797,0.099575356,-1.3200798,-1.3916274,0.5252678
329,2024-05-15 22:16:10.091697,0.04002539,-2.9744172,0.0993313,-1.7568485,-1.8228983,-0.24442245
330,2024-05-15 22:16:10.107056,-0.0319715,-2.555127,-0.38268176,-2.610227,-1.099023,-1.4417183
331,2024-05-15 22:16:10.125035,-0.5515999,-2.0796728,-0.3961049,-4.0292673,0.71707946,-2.086792
332,2024-05-15 22:16:10.141964,-0.7553877,-1.9451972,-0.27261195,-4.618141,1.3981942,-2.3012056
333,2024-05-15 22:16:10.158406,-0.7553877,-1.9451972,-0.27261195,-4.9913797,1.6956855,-2.4398723
334,2024-05-15 22:16:10.190111,-0.7553877,-1.9451972,-0.27261195,-4.9913797,1.6956855,-2.4398723
335,2024-05-15 22:16:10.202780,-0.7553877,-1.9451972,-0.27261195,-4.9913797,1.6956855,-2.4398723
336,2024-05-15 22:16:10.226215,-0.7553877,-1.9451972,-0.27261195,-4.9913797,1.6956855,-2.4398723
337,2024-05-15 22:16:10.238860,-0.7553877,-1.9451972,-0.27261195,-4.9913797,1.6956855,-2.4398723
338,2024-05-15 22:16:10.254908,-0.7553877,-1.9451972,-0.27261195,-4.9913797,1.6956855,-2.4398723
339,2024-05-15 22:16:10.272193,-0.7553877,-1.9451972,-0.27261195,-4.9913797,1.6956855,-2.4398723
340,2024-05-15 22:16:10.287326,-0.7553877,-1.9451972,-0.27261195,-4.9913797,1.6956855,-2.4398723
341,2024-05-15 22:16:10.308816,-2.21244,0.803467,2.9539163,-4.4098363,1.3047318,-2.268219
342,2024-05-15 22:16:10.322243,-0.67777747,2.0164618,1.9403161,-2.071444,-0.6683629,0.19295706
343,2024-05-15 22:16:10.337457,-0.52768224,2.0979772,1.6742936,-0.48747048,-0.41118866,0.44463354
344,2024-05-15 22:16:10.358337,-0.6943734,2.0145094,1.4638858,0.4184427,-0.5437464,0.6810384
345,2024-05-15 22:16:10.372411,-0.7578283,1.7189562,1.4197116,1.2321151,-0.84062696,1.0799334
346,2024-05-15 22:16:10.388478,-0.7343987,1.5676408,1.4621775,1.5839735,-0.917596,1.1678979
347,2024-05-15 22:16:10.407221,-0.79102004,1.2949983,1.5920464,2.4483478,-0.6457609,1.1581241
348,2024-05-15 22:16:10.423961,-0.9225669,1.1246463,1.6218214,3.028059,-0.39408445,1.231428
349,2024-05-15 22:16:10.442195,-1.012868,1.0460598,1.65843,3.378085,-0.35559994,1.4134659
350,2024-05-15 22:16:10.458831,-1.2178762,0.9154892,1.6581861,3.5057557,-0.8778897,1.8685604
351,2024-05-15 22:16:10.474394,-1.2432581,0.6697236,1.9083446,3.694513,-1.2963324,2.2363014
352,2024-05-15 22:16:10.491391,-1.1885893,0.51767594,2.0201228,3.962072,-1.339093,2.2320251
353,2024-05-15 22:16:10.506762,-1.1954229,0.16937573,2.1899867,4.8356094,-1.1558334,2.034716
354,2024-05-15 22:16:10.525525,-1.2823073,-0.20598431,2.106519,5.128214,-1.0568732,1.9553033
355,2024-05-15 22:16:10.540542,-1.3848114,-0.41587353,2.012069,5.9852576,-0.55413115,1.7097355
356,2024-05-15 22:16:10.557816,-1.3760253,-0.9362341,1.7306709,6.119037,-0.25297457,1.6101644
357,2024-05-15 22:16:10.573891,-1.4511949,-1.5500686,1.641346,5.7586265,0.16241379,1.0597749
358,2024-05-15 22:16:10.591930,-1.6735615,-1.8597772,1.4814581,5.413488,0.34261903,0.8270352
359,2024-05-15 22:16:10.607263,-1.8932132,-2.0740595,0.9874862,4.030489,0.101938136,1.208826
360,2024-05-15 22:16:10.624852,-1.4375277,-2.6388385,0.8710708,2.1148155,-0.21143574,2.133065
361,2024-05-15 22:16:10.641603,-0.9286684,-2.9544046,0.8393434,1.382999,-0.6194937,2.1361194
362,2024-05-15 22:16:10.656762,0.00073217176,-3.0049243,0.50010383,0.60048056,-1.7135534,0.78183115
363,2024-05-15 22:16:10.675047,0.14570218,-2.8665438,0.2596769,-0.35185838,-2.0195968,-0.81924665
364,2024-05-15 22:16:10.691035,0.16791138,-2.493838,-0.383658,-0.35185838,-2.0195968,-0.81924665
365,2024-05-15 22:16:10.707926,-0.39268813,-1.8980943,-0.7170707,-3.2766812,-0.2596941,-1.5871043
366,2024-05-15 22:16:10.723330,-0.5638028,-1.6625789,-0.14594623,-4.514905,1.2430344,-1.9407952
367,2024-05-15 22:16:10.741802,-0.598947,-1.5820401,0.039537273,-4.731151,1.4922675,-2.160096
368,2024-05-15 22:16:10.756979,-0.99139106,-1.4214199,0.30433938,-5.539937,1.3181708,-2.8601475
369,2024-05-15 22:16:10.774941,-1.4519271,-1.0389823,0.80541945,-5.9192843,2.1275673,-2.58648
370,2024-05-15 22:16:10.790428,-1.5822842,-0.81689006,1.0587507,-5.9162297,3.0182087,-2.2920427
371,2024-05-15 22:16:10.808171,-1.5822842,-0.81689006,1.0587507,-5.9162297,3.0182087,-2.2920427
372,2024-05-15 22:16:10.823814,-1.5822842,-0.81689006,1.0587507,-5.9162297,3.0182087,-2.2920427
373,2024-05-15 22:16:10.841446,-1.5822842,-0.81689006,1.0587507,-5.9162297,3.0182087,-2.2920427
374,2024-05-15 22:16:10.858106,-1.5822842,-0.81689006,1.0587507,-5.9162297,3.0182087,-2.2920427
375,2024-05-15 22:16:10.873806,-1.5822842,-0.81689006,1.0587507,-5.9162297,3.0182087,-2.2920427
376,2024-05-15 22:16:10.889462,-1.5822842,-0.81689006,1.0587507,-5.9162297,3.0182087,-2.2920427
377,2024-05-15 22:16:10.908086,-1.5822842,-0.81689006,1.0587507,-5.9162297,3.0182087,-2.2920427
378,2024-05-15 22:16:10.923745,-1.6757581,0.08419975,1.9883955,-5.8129935,3.8673115,-2.4502568
379,2024-05-15 22:16:10.941833,-1.1966431,2.6390824,2.0189025,-0.04153884,-0.8638398,-0.24686591
380,2024-05-15 22:16:10.959637,-1.0885259,2.332272,1.5505568,0.90102625,-1.3684145,0.8704066
381,2024-05-15 22:16:10.972036,-1.012868,2.1672895,1.4875594,1.0940597,-1.380021,1.1251374
382,2024-05-15 22:16:10.988122,-0.9948079,1.8465983,1.5969275,1.6249015,-1.3610841,1.4501177
383,2024-05-15 22:16:11.007610,-1.0643642,1.2632707,1.7589816,3.1264083,-1.1521682,1.7329483
384,2024-05-15 22:16:11.024708,-1.1595465,0.9391628,1.5666645,3.921144,-1.107575,1.8716147
385,2024-05-15 22:16:11.042415,-1.2422819,0.81420547,1.4621775,4.0378194,-1.2413546,1.9797379
386,2024-05-15 22:16:11.058123,-1.3784659,0.5413495,1.4924406,4.1825943,-1.6769015,2.4525476
387,2024-05-15 22:16:11.074767,-1.3196481,0.3922,1.5495806,4.235129,-1.710499,2.5380688
388,2024-05-15 22:16:11.090394,-1.2134831,0.13740423,1.8138945,4.5277333,-1.5602262,2.4446063
389,2024-05-15 22:16:11.107740,-1.221049,-0.27456442,2.1543543,5.5649824,-0.90721124,1.9137645
390,2024-05-15 22:16:11.123440,-1.2867004,-0.45419052,2.1631403,5.987701,-0.5577963,1.6834682
391,2024-05-15 22:16:11.140877,-1.5454315,-0.85496306,2.0796728,6.372546,-0.20715968,1.3810899
392,2024-05-15 22:16:11.157681,-2.059172,-1.6003444,1.6911337,6.3621616,-0.13507758,0.9718102
393,2024-05-15 22:16:11.174319,-2.2800438,-1.8753968,1.2539966,6.030462,-0.28535044,0.9376018
394,2024-05-15 22:16:11.190011,-2.4403894,-2.1475208,0.35998443,4.117232,-0.4967098,1.5380824
395,2024-05-15 22:16:11.207987,-1.7499515,-2.7925944,0.2277054,1.6597209,-0.7050148,2.4757605
396,2024-05-15 22:16:11.224766,-0.5803986,-3.2092004,0.5879644,0.30543262,-0.94752836,1.9155971
397,2024-05-15 22:16:11.239979,-0.38683072,-3.1838183,0.37975308,0.2828306,-1.121625,1.5264759
398,2024-05-15 22:16:11.258057,0.29945824,-2.7515929,-0.8984052,-1.4648548,-1.6720145,0.14592044
399,2024-05-15 22:16:11.274611,0.336799,-2.3879173,-0.85081404,-3.5417967,-0.7599927,-1.017167
400,2024-05-15 22:16:11.291217,0.2818861,-2.276627,-0.67899776,-3.9260309,-0.21937698,-1.3659711
401,2024-05-15 22:16:11.305542,-0.2111095,-1.9708232,-0.30580372,-4.7409253,1.6834682,-2.590756
402,2024-05-15 22:16:11.321126,-0.46688148,-1.9225,-0.1849954,-5.1214943,2.173993,-3.0232484
403,2024-05-15 22:16:11.340743,-1.1058539,-1.812186,0.16888762,-5.757405,2.894814,-3.4862843
404,2024-05-15 22:16:11.356005,-1.7514158,-1.4533914,0.586256,-6.874067,3.3132567,-3.2040646
405,2024-05-15 22:16:11.374628,-1.9742401,-1.2827954,1.1351408,-7.63215,3.2845461,-3.061733
406,2024-05-15 22:16:11.389781,-2.1045666,-0.95795524,2.4018283,-7.859392,2.999883,-3.0922763
407,2024-05-15 22:16:11.406997,-2.1458125,-0.23697957,3.2453208,-6.5417557,2.1342869,-3.3415093
408,2024-05-15 22:16:11.424197,-2.3505764,0.2506468,3.2026107,-5.7231965,1.688966,-3.1900146
409,2024-05-15 22:16:11.441241,-2.403293,0.66142565,3.1047437,-5.448307,1.4641676,-2.7862327
410,2024-05-15 22:16:11.457947,-2.403293,0.66142565,3.1047437,-5.448307,1.4641676,-2.7862327
411,2024-05-15 22:16:11.474585,-2.403293,0.66142565,3.1047437,-5.448307,1.4641676,-2.7862327
412,2024-05-15 22:16:11.491232,-2.403293,0.66142565,3.1047437,-5.448307,1.4641676,-2.7862327
413,2024-05-15 22:16:11.506882,-2.403293,0.66142565,3.1047437,-5.448307,1.4641676,-2.7862327
414,2024-05-15 22:16:11.524568,-2.403293,0.66142565,3.1047437,-5.448307,1.4641676,-2.7862327
415,2024-05-15 22:16:11.539733,-1.4184912,1.9427568,2.7979639,-2.1374176,-1.1875983,-0.7728209
416,2024-05-15 22:16:11.557874,-1.1263547,2.4472232,1.9915682,-1.2986995,-1.2657892,0.027412578
417,2024-05-15 22:16:11.573553,-1.1263547,2.4472232,1.9915682,-1.2986995,-1.2657892,0.027412578
418,2024-05-15 22:16:11.590780,-1.1978635,1.4231284,1.6393934,2.8069258,-0.60666555,0.99624485
419,2024-05-15 22:16:11.605919,-1.3713882,1.2068936,1.4851189,3.213762,-0.9292024,1.6321555
420,2024-05-15 22:16:11.624521,-1.1937145,0.86472535,1.5032096,3.2461379,-1.7862463,2.1672735
421,2024-05-15 22:16:11.640177,-1.0023736,0.5723447,1.7328674,3.7073412,-1.9713385,2.1855996
422,2024-05-15 22:16:11.657853,-1.0428871,0.29604146,1.799007,4.3866234,-1.7343228,2.0481548
423,2024-05-15 22:16:11.673261,-1.3777337,-0.082491346,1.9625254,5.3658404,-1.4545465,2.0261636
424,2024-05-15 22:16:11.691158,-1.3777337,-0.082491346,1.9625254,5.3658404,-1.4545465,2.0261636
425,2024-05-15 22:16:11.707818,-1.3660189,-0.5447663,2.0960245,6.0781093,-1.3610841,1.9039906
426,2024-05-15 22:16:11.724517,-1.2596099,-1.1807795,2.30689,6.536258,-0.8656724,1.2039391
427,2024-05-15 22:16:11.740141,-1.7079737,-1.7238374,2.2378218,7.429954,-0.33544138,0.0182496
428,2024-05-15 22:16:11.757810,-2.2261071,-2.1721706,1.3738288,7.6724677,-0.17539468,-0.53763777
429,2024-05-15 22:16:11.774701,-2.3559456,-2.0955365,0.003172744,5.865528,-0.5632941,-0.04589125
430,2024-05-15 22:16:11.790148,-2.335933,-2.139955,-0.25723633,4.4727554,-0.3910301,0.58329993
431,2024-05-15 22:16:11.807800,-1.7043128,-2.451128,-0.1718163,1.8399261,-0.063606344,2.0194442
432,2024-05-15 22:16:11.823460,0.04807928,-2.8575137,0.42612398,0.16554448,0.18440494,2.0255527
433,2024-05-15 22:16:11.840960,0.5281704,-2.688626,0.3482697,0.14294247,0.16119206,1.3035101
434,2024-05-15 22:16:11.857764,0.68241453,-2.3608267,-0.41465324,-0.5149594,0.2448806,-0.05627596
435,2024-05-15 22:16:11.873436,0.39708114,-1.9796093,-0.6894922,-2.5320365,0.7573965,-1.1057425
436,2024-05-15 22:16:11.891082,0.39708114,-1.9796093,-0.6894922,-2.5320365,0.7573965,-1.1057425
437,2024-05-15 22:16:11.906735,0.29262465,-1.8324429,-0.3607166,-4.10196,1.0231229,-2.0293708
438,2024-05-15 22:16:11.922436,-0.30555966,-1.7799705,0.29701766,-4.635856,1.6651423,-3.0910544
439,2024-05-15 22:16:11.941662,-0.65312773,-1.7406774,0.32801294,-4.78674,2.2356904,-3.8699076
440,2024-05-15 22:16:11.957659,-1.1397778,-1.6044934,0.45004156,-5.1422634,2.1446714,-3.9426007
441,2024-05-15 22:16:11.974425,-1.4775531,-1.2593659,0.82079506,-5.699373,2.22836,-4.0696607
442,2024-05-15 22:16:11.990117,-1.4775531,-1.2593659,0.82079506,-5.699373,2.22836,-4.0696607
443,2024-05-15 22:16:12.007765,-2.0254922,-0.8918157,1.370168,-6.568634,2.1849887,-4.5956154
444,2024-05-15 22:16:12.023407,-2.7410984,0.037584815,3.1513586,-5.6144624,0.6706537,-4.7965903
445,2024-05-15 22:16:12.041052,-2.8650796,0.5035206,3.0852191,-4.515516,0.34078646,-4.610887
446,2024-05-15 22:16:12.058153,-2.9273143,0.8869346,2.7672126,-3.726889,0.12698361,-4.166788
447,2024-05-15 22:16:12.073411,-2.794059,1.649644,2.190963,-2.8851166,-0.36109772,-3.138702
448,2024-05-15 22:16:12.091024,-2.794059,1.649644,2.190963,-2.8851166,-0.36109772,-3.138702
449,2024-05-15 22:16:12.106739,-2.794059,1.649644,2.190963,-2.8851166,-0.36109772,-3.138702
450,2024-05-15 22:16:12.124354,-2.794059,1.649644,2.190963,-2.8851166,-0.36109772,-3.138702
451,2024-05-15 22:16:12.140039,-2.794059,1.649644,2.190963,-2.8851166,-0.36109772,-3.138702
452,2024-05-15 22:16:12.157705,-2.794059,1.649644,2.190963,-2.8851166,-0.36109772,-3.138702
453,2024-05-15 22:16:12.168859,-1.3887162,1.9732639,2.1502054,0.80878556,-0.7398342,0.9675342
454,2024-05-15 22:16:12.190042,-1.3887162,1.9732639,2.1502054,0.80878556,-0.7398342,0.9675342
455,2024-05-15 22:16:12.204461,-1.5268831,1.2796227,1.5115075,2.9675834,-1.189431,2.2662337
456,2024-05-15 22:16:12.220546,-1.3457621,0.88156533,1.5488483,3.545462,-1.2083678,2.5631142
457,2024-05-15 22:16:12.242161,-1.2784024,0.41514137,1.6706328,4.3896775,-0.94630665,2.6168704
458,2024-05-15 22:16:12.258074,-1.3662629,0.10006347,1.6930863,4.9028044,-0.9273698,2.631531
459,2024-05-15 22:16:12.274000,-1.4963455,-0.3287451,1.8292701,5.4177637,-0.8308531,2.7402651
460,2024-05-15 22:16:12.287609,-1.4963455,-0.3287451,1.8292701,5.4177637,-0.8308531,2.7402651
461,2024-05-15 22:16:12.303019,-1.3384404,-0.7375715,2.0696664,6.042679,-0.586507,2.5942683
462,2024-05-15 22:16:12.324291,-1.1946907,-1.2535084,2.0491657,7.113526,0.11537717,1.8203021
463,2024-05-15 22:16:12.337572,-1.1729697,-1.5266391,1.9527631,7.113526,0.11537717,1.8203021
464,2024-05-15 22:16:12.353206,-1.5974157,-1.999622,1.451439,7.1031413,0.9351583,1.2106586
465,2024-05-15 22:16:12.375174,-2.037451,-2.332272,0.5125507,3.4061847,0.7573965,2.7763062
466,2024-05-15 22:16:12.388391,-1.7541004,-2.7789273,0.9164654,2.0622811,0.6437756,3.5185075
467,2024-05-15 22:16:12.404240,-1.046792,-3.348801,1.3428334,1.400714,0.47395507,3.8318813
468,2024-05-15 22:16:12.424959,0.6560564,-3.4989269,0.41050428,2.208278,-1.189431,0.53748506
469,2024-05-15 22:16:12.437932,0.5423257,-3.2699704,-0.5713685,1.5149459,-1.5138004,-0.49487722
470,2024-05-15 22:16:12.453593,0.38390204,-2.999067,-1.2105545,0.15210545,-1.6940057,-1.166829
471,2024-05-15 22:16:12.474070,0.14399378,-2.5270603,-1.1180567,-2.6047294,-1.0886382,-1.9890536
472,2024-05-15 22:16:12.487862,-0.035876416,-2.3254385,-0.6899803,-3.9968913,0.03596469,-3.152141
473,2024-05-15 22:16:12.503212,-0.23697957,-2.2226903,-0.4720067,-4.442823,0.5991824,-3.8466947
474,2024-05-15 22:16:12.524358,-1.0077429,-2.0306172,0.09567044,-4.9156327,2.0481548,-4.816138
475,2024-05-15 22:16:12.537971,-1.7885126,-1.6664839,0.5601419,-4.846605,2.4629323,-4.6774716
476,2024-05-15 22:16:12.553556,-2.1345856,-1.3350236,0.6819264,-5.044525,2.845334,-4.4691663
477,2024-05-15 22:16:12.573255,-2.5997894,-0.8027348,1.1097587,-6.477004,2.3981805,-4.177173
478,2024-05-15 22:16:12.588309,-2.5910034,-0.509378,2.1858377,-6.635218,0.7219664,-4.0641627
479,2024-05-15 22:16:12.603533,-2.5661094,-0.2865232,2.434776,-6.104987,0.22533292,-3.9945242
480,2024-05-15 22:16:12.624175,-2.7398782,0.61920375,2.3078663,-5.001765,0.4311945,-2.871143
481,2024-05-15 22:16:12.638050,-2.5797765,0.863261,2.2666206,-4.8820353,0.1324814,-2.2205715
482,2024-05-15 22:16:12.653532,-2.2788234,1.0328808,2.216833,-4.759862,-0.33238706,-1.7074447
483,2024-05-15 22:16:12.674044,-1.6403698,1.38774,2.0843098,-4.3285913,-1.230359,-0.92798066
484,2024-05-15 22:16:12.688057,-1.4758446,1.6008325,2.0911434,-3.5271358,-1.3647493,-0.28290698
485,2024-05-15 22:16:12.703497,-1.3613818,1.7243255,2.028909,-2.9657507,-1.3018302,0.10560333
486,2024-05-15 22:16:12.724145,-1.2281265,1.7848517,1.9388518,-2.9657507,-1.3018302,0.10560333
487,2024-05-15 22:16:12.738388,-1.2281265,1.7848517,1.9388518,-2.9657507,-1.3018302,0.10560333
488,2024-05-15 22:16:12.754526,-1.2281265,1.7848517,1.9388518,-2.9657507,-1.3018302,0.10560333
489,2024-05-15 22:16:12.773167,-1.2281265,1.7848517,1.9388518,-2.9657507,-1.3018302,0.10560333
490,2024-05-15 22:16:12.790872,-1.2281265,1.7848517,1.9388518,-2.9657507,-1.3018302,0.10560333
491,2024-05-15 22:16:12.807474,-1.2281265,1.7848517,1.9388518,-2.9657507,-1.3018302,0.10560333
492,2024-05-15 22:16:12.824116,-1.2281265,1.7848517,1.9388518,-2.9657507,-1.3018302,0.10560333
493,2024-05-15 22:16:12.840780,-1.2281265,1.7848517,1.9388518,-2.9657507,-1.3018302,0.10560333
494,2024-05-15 22:16:12.856454,-1.2281265,1.7848517,1.9388518,-2.9657507,-1.3018302,0.10560333
495,2024-05-15 22:16:12.868625,-1.5603191,0.024893839,1.7711844,4.2455134,-1.5333481,3.3089807
496,2024-05-15 22:16:12.890496,-1.5710576,-0.3973252,2.0918758,5.07629,-1.3757449,3.208799
497,2024-05-15 22:16:12.904691,-1.5544616,-0.6475144,2.0660055,5.566815,-1.3830752,3.1196125
498,2024-05-15 22:16:12.920114,-1.4802377,-0.8964527,1.9464175,6.411031,-1.502194,2.6852872
499,2024-05-15 22:16:12.940410,-1.3716323,-1.7414094,1.6486678,6.9009447,-1.1973722,1.8710039
500,2024-05-15 22:16:12.955904,-1.5061383,-2.0303733,1.5036978,7.108639,-0.83696175,1.4073572
501,2024-05-15 22:16:12.989056,-1.6515964,-2.3693688,0.19378147,4.084856,-0.16867517,1.503263
502,2024-05-15 22:16:13.008830,-1.370656,-2.7030256,0.16937573,2.9407053,-0.43317983,1.6822466
503,2024-05-15 22:16:13.027580,-0.85960007,-2.9497674,0.27651685,1.6297885,-0.8497899,1.6248252
504,2024-05-15 22:16:13.042090,-0.302631,-2.9707565,0.17669745,0.9443977,-1.2297481,1.1251374
505,2024-05-15 22:16:13.054498,0.07272906,-2.8450668,0.031239327,0.6224717,-1.2993867,0.58329993
506,2024-05-15 22:16:13.069705,0.6077331,-2.4228175,-0.641657,-0.3707952,-0.67874765,-1.1094077
507,2024-05-15 22:16:13.090370,0.34802565,-2.156795,-1.1092707,-2.126422,0.17402023,-2.6188557
508,2024-05-15 22:16:13.104642,0.10909359,-2.063565,-1.0306844,-3.1080823,0.5448154,-3.2181144
509,2024-05-15 22:16:13.119813,-0.5198724,-1.9305538,-0.4419877,-4.4232755,1.3981942,-4.1203623
510,2024-05-15 22:16:13.140172,-1.1295274,-1.7426299,0.07858644,-4.8307223,1.9320904,-4.624937
511,2024-05-15 22:16:13.155407,-1.6103507,-1.4553438,0.547695,-4.6657887,2.0237203,-4.7275624
512,2024-05-15 22:16:13.174484,-1.8275617,-1.2242217,0.6309185,-4.5265117,2.0915263,-4.729395
513,2024-05-15 22:16:13.190357,-2.2937112,-0.79687744,0.68241453,-5.370116,2.0304396,-4.6457067
514,2024-05-15 22:16:13.207349,-2.4535685,-0.4742032,1.5903381,-6.159354,1.4299592,-4.729395
515,2024-05-15 22:16:13.223994,-2.551222,-0.37218732,1.9754603,-5.8722477,0.900339,-4.748943
516,2024-05-15 22:16:13.239172,-2.7115676,0.06638357,2.0567315,-4.7342057,-0.0800997,-4.1710644
517,2024-05-15 22:16:13.257315,-2.5712345,0.43661842,1.704801,-4.288274,-0.53519434,-3.0782263
518,2024-05-15 22:16:13.274035,-2.3391058,0.6538599,1.5800875,-4.32065,-0.8497899,-2.5596018
519,2024-05-15 22:16:13.290432,-1.888332,0.9879743,1.7868041,-4.2394047,-1.2383002,-2.0886247
520,2024-05-15 22:16:13.306330,-1.9691149,1.3328272,2.1597235,-3.6511416,-1.2828934,-1.9695059
521,2024-05-15 22:16:13.323962,-2.0296412,1.5239545,2.1956,-2.2021692,-0.808862,-1.3830752
522,2024-05-15 22:16:13.339620,-2.115061,1.8551401,1.9664303,-0.9425651,-0.41668645,-0.03611741
523,2024-05-15 22:16:13.357261,-2.0730834,1.8824744,1.9041957,-0.77274454,-0.5070945,0.4000404
524,2024-05-15 22:16:13.372965,-2.0730834,1.8824744,1.9041957,-0.77274454,-0.5070945,0.4000404
525,2024-05-15 22:16:13.390587,-2.0730834,1.8824744,1.9041957,-0.77274454,-0.5070945,0.4000404
526,2024-05-15 22:16:13.406686,-2.0730834,1.8824744,1.9041957,-0.77274454,-0.5070945,0.4000404
527,2024-05-15 22:16:13.425897,-2.0730834,1.8824744,1.9041957,-0.77274454,-0.5070945,0.4000404
528,2024-05-15 22:16:13.440703,-2.0730834,1.8824744,1.9041957,-0.77274454,-0.5070945,0.4000404
529,2024-05-15 22:16:13.455890,-2.0730834,1.8824744,1.9041957,-0.77274454,-0.5070945,0.4000404
530,2024-05-15 22:16:13.473565,-2.0730834,1.8824744,1.9041957,-0.77274454,-0.5070945,0.4000404
531,2024-05-15 22:16:13.488952,-1.5756946,0.22355644,1.8993145,4.288274,-2.0397553,3.0505848
532,2024-05-15 22:16:13.506882,-1.6916218,-0.44540447,2.0867505,5.7519073,-1.9896644,2.9742265
533,2024-05-15 22:16:13.522525,-1.8971181,-0.85130215,1.611571,6.618725,-1.63353,2.994385
534,2024-05-15 22:16:13.538237,-1.8470863,-1.2090901,1.3277019,6.255871,-1.7184403,3.071965
535,2024-05-15 22:16:13.557206,-1.7836314,-1.6062018,1.2193406,5.9486055,-1.597489,2.80013
536,2024-05-15 22:16:13.574313,-1.8649024,-1.8209721,1.1041455,5.742133,-1.4209489,2.663907
537,2024-05-15 22:16:13.589991,-1.8209721,-2.1084716,0.67680126,4.813618,-1.2676218,2.9754481
538,2024-05-15 22:16:13.606707,-1.4243486,-2.7037578,0.3141017,3.0983086,-1.6048193,3.4995706
539,2024-05-15 22:16:13.621856,-1.0021296,-3.1005948,0.22428861,2.2644775,-1.8027397,3.5099554
540,2024-05-15 22:16:13.640278,0.1564407,-3.2436123,0.16058967,1.2840388,-1.6341408,2.0163898
541,2024-05-15 22:16:13.656235,0.1330112,-2.9985788,-0.42636803,0.42577308,-1.4649312,-0.058719423
542,2024-05-15 22:16:13.674289,-0.09030118,-2.80797,-0.88010097,-0.64751714,-1.5547284,-0.6836346
543,2024-05-15 22:16:13.690364,-0.08444381,-2.4735813,-1.1405101,-2.4678955,-1.4191164,-1.2211959
544,2024-05-15 22:16:13.706160,-0.09737884,-2.2146363,-0.8317776,-4.160603,-0.28901562,-2.131385
545,2024-05-15 22:16:13.724252,-0.29897013,-2.1328773,-0.6226205,-4.6480737,0.4965571,-2.5974753
546,2024-05-15 22:16:13.740852,-0.8849821,-1.9310418,-0.28457075,-5.2302284,1.6712509,-3.0953305
547,2024-05-15 22:16:13.756179,-1.4912204,-1.7758216,0.14179726,-6.009692,2.2711205,-3.1032717
548,2024-05-15 22:16:13.773765,-1.7501955,-1.6616027,0.49763274,-6.3212337,2.5453992,-2.9749901
549,2024-05-15 22:16:13.790280,-2.131413,-1.2974389,1.6484238,-6.7292914,3.5307248,-2.8179977
550,2024-05-15 22:16:13.806159,-2.5253518,-0.5943099,3.066915,-5.929669,3.0744085,-2.9536097
551,2024-05-15 22:16:13.823790,-2.6861856,-0.27456442,3.187235,-5.2167892,1.8667278,-2.8522062
552,2024-05-15 22:16:13.839354,-2.3947508,0.4002539,2.6310287,-4.333478,-0.39408445,-1.7886899
553,2024-05-15 22:16:13.856420,-1.7714285,0.78076965,2.1455681,-4.6572366,-0.7325038,-0.8461247
554,2024-05-15 22:16:13.874217,-1.5288357,0.94599634,2.187302,-4.7317624,-0.5083162,-0.4356233
555,2024-05-15 22:16:13.889938,-1.0785195,1.4187354,2.6088195,-4.229631,-0.083764896,0.064064495
556,2024-05-15 22:16:13.905098,-0.94257957,1.782411,2.7867372,-3.8221838,-0.022678372,0.13675746
557,2024-05-15 22:16:13.923764,-0.8325098,1.9522749,2.5490253,-1.9327776,-0.22853996,0.4818963
558,2024-05-15 22:16:13.939480,-0.6231087,2.1040785,2.328123,-1.0305296,-0.52053356,0.7934376
559,2024-05-15 22:16:13.957270,-0.43100512,2.06747,2.3459394,0.002443461,-0.9047678,1.1153636
560,2024-05-15 22:16:13.972762,-0.20061506,1.7355521,2.374738,0.7122689,-1.0104475,1.1868348
561,2024-05-15 22:16:13.990425,-0.16888762,1.5012572,2.4401455,1.8979583,-0.82291186,0.9748646
562,2024-05-15 22:16:14.006117,-0.16888762,1.5012572,2.4401455,1.8979583,-0.82291186,0.9748646
563,2024-05-15 22:16:14.023705,-0.16888762,1.5012572,2.4401455,1.8979583,-0.82291186,0.9748646
564,2024-05-15 22:16:14.039398,-0.16888762,1.5012572,2.4401455,1.8979583,-0.82291186,0.9748646
565,2024-05-15 22:16:14.057023,-0.16888762,1.5012572,2.4401455,1.8979583,-0.82291186,0.9748646
566,2024-05-15 22:16:14.072694,-0.16888762,1.5012572,2.4401455,1.8979583,-0.82291186,0.9748646
567,2024-05-15 22:16:14.090349,-0.16888762,1.5012572,2.4401455,1.8979583,-0.82291186,0.9748646
568,2024-05-15 22:16:14.107007,-0.16888762,1.5012572,2.4401455,1.8979583,-0.82291186,0.9748646
569,2024-05-15 22:16:14.122711,-0.16888762,1.5012572,2.4401455,1.8979583,-0.82291186,0.9748646
570,2024-05-15 22:16:14.136223,-0.16888762,1.5012572,2.4401455,1.8979583,-0.82291186,0.9748646
571,2024-05-15 22:16:14.156990,-0.16888762,1.5012572,2.4401455,1.8979583,-0.82291186,0.9748646
572,2024-05-15 22:16:14.170764,-0.16888762,1.5012572,2.4401455,1.8979583,-0.82291186,0.9748646
573,2024-05-15 22:16:14.186779,-1.7243255,-2.0015745,0.7246365,4.209472,0.619341,0.6847036
574,2024-05-15 22:16:14.206054,-1.0702215,-2.4394133,0.6226205,2.9547553,0.15080735,1.4666111
575,2024-05-15 22:16:14.223641,-0.7773528,-2.6083314,0.57795805,2.6230555,-0.062384613,1.4678328
576,2024-05-15 22:16:14.239341,-0.076389916,-3.0591052,0.23527117,1.858252,-0.1540144,0.6175084
577,2024-05-15 22:16:14.256992,0.0019524579,-2.9021761,-0.6231087,0.35979962,-0.09170614,-0.23342688
578,2024-05-15 22:16:14.273641,0.122272685,-2.6710541,-0.7583164,-2.1355848,-0.8504008,-0.73311466
579,2024-05-15 22:16:14.289050,0.14863087,-2.5158336,-0.4937278,-2.9223793,-0.6567565,-1.1692724
580,2024-05-15 22:16:14.304956,-0.16937573,-2.247096,-0.20915705,-3.3530393,-0.17295122,-1.624367
581,2024-05-15 22:16:14.323491,-0.37926495,-2.1084716,-0.07980672,-4.042706,0.95959294,-2.449646
582,2024-05-15 22:16:14.340356,-1.1915181,-1.6986994,0.44320798,-5.0610185,2.2485187,-3.05257
583,2024-05-15 22:16:14.355550,-1.607178,-1.438748,0.9113403,-5.771455,2.6144269,-2.9951487
584,2024-05-15 22:16:14.372635,-1.8639262,-1.2208048,1.4504627,-6.2387667,2.5661685,-2.912071
585,2024-05-15 22:16:14.387801,-2.1033463,-0.8361706,2.254906,-6.180124,1.8801669,-2.7544677
586,2024-05-15 22:16:14.405719,-2.0655174,-0.24161668,2.5607402,-5.539937,1.0066296,-2.5479953
587,2024-05-15 22:16:14.423586,-2.0579517,-0.05686534,2.6124804,-5.404325,0.9149998,-2.4936283
588,2024-05-15 22:16:14.440539,-1.9852226,0.48909074,2.6568987,-4.5130725,0.3731623,-1.9768363
589,2024-05-15 22:16:14.455924,-1.9852226,0.48909074,2.6568987,-3.9822304,-0.2590832,-1.2932781
590,2024-05-15 22:16:14.473564,-1.3989667,1.357965,1.8619736,-3.9828415,-0.6482044,-0.9157634
591,2024-05-15 22:16:14.489033,-1.1695529,1.5954633,1.8817425,-3.6151006,-1.130788,-0.1540144
592,2024-05-15 22:16:14.506873,-0.8808331,1.9073684,1.9674065,-2.6279423,-0.6494261,0.2577088
593,2024-05-15 22:16:14.522538,-0.7060881,2.0174382,1.9107853,-2.2088888,-0.38919753,0.36888626
594,2024-05-15 22:16:14.540208,-0.7199994,2.0054793,1.8705157,-0.74281216,0.09094256,0.6211736
595,2024-05-15 22:16:14.556087,-0.7934606,1.8954096,1.8444016,0.15088372,-0.32750013,0.86124367
596,2024-05-15 22:16:14.573381,-0.8098125,1.6552573,1.9000468,0.42455134,-0.47594038,0.9571495
597,2024-05-15 22:16:14.588954,-0.8354385,1.5832604,1.9239643,1.3017539,-0.740445,1.0988702
598,2024-05-15 22:16:14.607558,-1.0548459,1.2071377,2.0911434,2.6077838,-0.577344,1.1721741
599,2024-05-15 22:16:14.622321,-1.1090267,1.1300155,2.0572195,2.9394836,-0.50465107,1.2302063
600,2024-05-15 22:16:14.639641,-1.2325196,0.9308648,1.9644778,3.5253034,-0.39713877,1.4317918
601,2024-05-15 22:16:14.656826,-1.2325196,0.9308648,1.9644778,3.5253034,-0.39713877,1.4317918
602,2024-05-15 22:16:14.672494,-1.2325196,0.9308648,1.9644778,3.5253034,-0.39713877,1.4317918
603,2024-05-15 22:16:14.690728,-1.2325196,0.9308648,1.9644778,3.5253034,-0.39713877,1.4317918
604,2024-05-15 22:16:14.706825,-1.2325196,0.9308648,1.9644778,3.5253034,-0.39713877,1.4317918
605,2024-05-15 22:16:14.722536,-1.2325196,0.9308648,1.9644778,3.5253034,-0.39713877,1.4317918
606,2024-05-15 22:16:14.740142,-1.2325196,0.9308648,1.9644778,3.5253034,-0.39713877,1.4317918
607,2024-05-15 22:16:14.756788,-1.2325196,0.9308648,1.9644778,3.5253034,-0.39713877,1.4317918
608,2024-05-15 22:16:14.771985,-1.4475341,-0.8957206,1.5139481,5.9443297,0.188681,2.1990385
609,2024-05-15 22:16:14.789656,-1.6110829,-1.4158065,1.5627596,5.6309557,0.76717037,1.8422933
610,2024-05-15 22:16:14.805792,-1.9700912,-1.8048644,1.4550998,5.0152035,1.4684436,1.9717966
611,2024-05-15 22:16:14.823584,-1.7318912,-2.408418,1.1983516,3.843564,1.6975181,2.6920068
612,2024-05-15 22:16:14.839503,-1.3147669,-2.6373742,1.1180567,3.0451632,1.3322208,2.8569405
613,2024-05-15 22:16:14.854822,-0.53549206,-3.12256,1.1253785,1.9339994,-0.26030496,2.1721604
614,2024-05-15 22:16:14.873505,-0.0605262,-3.0227406,0.6480025,1.704314,-1.3787992,0.69081223
615,2024-05-15 22:16:14.890215,0.051252022,-2.8592222,0.16644704,1.346347,-1.4533248,0.14714217
616,2024-05-15 22:16:14.905774,0.08102701,-2.3420343,-0.59943515,-0.6084218,-1.2535719,-0.8601746
617,2024-05-15 22:16:14.923434,0.010006348,-2.174611,-0.6321388,-1.4813483,-1.2786173,-1.1552225
618,2024-05-15 22:16:14.939113,-0.041245673,-1.8788137,-0.55648106,-2.8136454,-1.2987759,-1.8595501
619,2024-05-15 22:16:14.956736,-0.42734426,-1.6515964,-0.48323336,-4.233907,-0.58345264,-2.7611873
620,2024-05-15 22:16:14.973265,-1.0240947,-1.3582091,-0.117147475,-4.9852715,1.390253,-3.1961234
621,2024-05-15 22:16:14.989524,-1.4062884,-1.2842598,0.0,-5.197852,1.7415005,-3.1869605
622,2024-05-15 22:16:15.006199,-2.1809566,-0.509378,0.46029195,-6.177069,2.4904213,-2.5999188
623,2024-05-15 22:16:15.022865,-2.3217776,-0.31995904,0.57746994,-6.586349,2.5246296,-2.4600308
624,2024-05-15 22:16:15.040569,-2.4501517,0.0012202862,1.293778,-7.479434,1.6791922,-1.964619
625,2024-05-15 22:16:15.056177,-1.982294,0.43759465,1.8617296,-6.971805,1.5228107,-1.3323735
626,2024-05-15 22:16:15.072848,-1.982294,0.43759465,1.8617296,-6.971805,1.5228107,-1.3323735
627,2024-05-15 22:16:15.088513,-1.6718532,0.923055,2.1848617,-6.477004,2.2265275,-1.2541827
628,2024-05-15 22:16:15.106203,-1.551533,1.6008325,2.5863662,-4.1129556,3.0438652,-1.238911
629,2024-05-15 22:16:15.122835,-1.3550363,2.2719898,3.0361638,-3.0518827,1.326723,-0.9157634
630,2024-05-15 22:16:15.140003,-1.2046971,2.3259265,3.049831,-2.2907448,0.6437756,-0.681802
631,2024-05-15 22:16:15.156857,-0.63604367,2.3498442,2.5841696,-0.56688297,-0.30978504,-0.28107437
632,2024-05-15 22:16:15.172391,-0.63604367,2.3498442,2.5841696,-0.56688297,-0.30978504,-0.28107437
633,2024-05-15 22:16:15.189800,-0.45248213,2.2239106,2.2971277,0.6969972,-0.55168766,-0.10881037
634,2024-05-15 22:16:15.205671,-0.914269,1.8871115,1.9583764,2.5686884,-0.7624362,0.2680935
635,2024-05-15 22:16:15.223055,-1.0953594,1.7545886,1.7436061,2.9865203,-1.0086149,0.58513254
636,2024-05-15 22:16:15.238627,-1.1885893,1.4533914,1.434599,3.1764994,-1.4166728,1.1642329
637,2024-05-15 22:16:15.256656,-1.1973754,1.1331884,1.4287416,3.28279,-1.7917441,1.6278795
638,2024-05-15 22:16:15.272304,-1.1973754,1.1331884,1.4287416,3.7659843,-1.914528,2.0536525
639,2024-05-15 22:16:15.289949,-1.1973754,1.1331884,1.4287416,3.7659843,-1.914528,2.0536525
640,2024-05-15 22:16:15.306637,-1.1973754,1.1331884,1.4287416,3.7659843,-1.914528,2.0536525
641,2024-05-15 22:16:15.322308,-1.1973754,1.1331884,1.4287416,3.7659843,-1.914528,2.0536525
642,2024-05-15 22:16:15.339948,-1.1973754,1.1331884,1.4287416,3.7659843,-1.914528,2.0536525
643,2024-05-15 22:16:15.355574,-1.1973754,1.1331884,1.4287416,3.7659843,-1.914528,2.0536525
644,2024-05-15 22:16:15.371247,-1.1973754,1.1331884,1.4287416,3.7659843,-1.914528,2.0536525
645,2024-05-15 22:16:15.389918,-1.1973754,1.1331884,1.4287416,3.7659843,-1.914528,2.0536525
646,2024-05-15 22:16:15.405565,-1.1973754,1.1331884,1.4287416,3.7659843,-1.914528,2.0536525
647,2024-05-15 22:16:15.422255,-1.1973754,1.1331884,1.4287416,3.7659843,-1.914528,2.0536525
648,2024-05-15 22:16:15.439324,-1.9122496,-2.551222,0.52621794,2.3225098,-1.1533899,2.4861453
649,2024-05-15 22:16:15.454618,-0.573565,-3.2172542,0.2042759,0.79717916,-0.9878455,2.046322
650,2024-05-15 22:16:15.473238,-0.09567044,-3.2326298,-0.04344219,0.79717916,-0.9878455,2.046322
651,2024-05-15 22:16:15.488933,0.44491637,-3.0251813,-0.30287504,-0.5815437,-1.08986,-0.015347989
652,2024-05-15 22:16:15.504529,0.54086137,-2.8187087,-0.4724948,-1.2070698,-0.8100837,-1.284726
653,2024-05-15 22:16:15.522901,0.0370967,-2.4738252,-0.8923038,-2.7446175,-0.16195565,-3.1448107
654,2024-05-15 22:16:15.538886,0.0370967,-2.4738252,-0.8923038,-2.7446175,-0.16195565,-3.1448107
655,2024-05-15 22:16:15.556126,-0.5454985,-2.306158,-0.8644812,-4.2766676,0.6822601,-3.9804742
656,2024-05-15 22:16:15.573156,-1.0790076,-2.2402625,-0.42587993,-5.3890533,1.2326497,-4.3787584
657,2024-05-15 22:16:15.588909,-1.6579418,-2.092608,0.2421048,-5.7030377,1.7109572,-4.422741
658,2024-05-15 22:16:15.606976,-1.8871115,-1.9278692,0.42441553,-5.792835,2.0151682,-4.4514513
659,2024-05-15 22:16:15.622423,-2.6080873,-1.490244,0.8840059,-6.64377,2.3749678,-4.4783297
660,2024-05-15 22:16:15.639828,-3.1589243,-1.0755908,1.6489117,-7.197825,2.092137,-4.1136427
661,2024-05-15 22:16:15.656485,-3.110113,-0.5298788,2.6608038,-7.205766,1.3004557,-3.5125515
662,2024-05-15 22:16:15.671588,-3.0578847,-0.19573392,3.144281,-6.6511006,1.6724727,-3.4997234
663,2024-05-15 22:16:15.692662,-3.1850386,0.40318257,3.386874,-5.3633966,1.9730184,-3.1674128
664,2024-05-15 22:16:15.704421,-3.1450133,0.8564274,3.3304965,-4.849048,1.5625169,-2.6011405
665,2024-05-15 22:16:15.719631,-3.0217643,1.0890139,3.2853463,-4.555222,0.20700696,-1.5461763
666,2024-05-15 22:16:15.730780,-2.5241315,1.7157835,3.109869,-4.298048,-0.6304893,-1.0587058
667,2024-05-15 22:16:15.743739,-1.6745377,2.2534416,2.6483567,-3.866777,-1.4722615,-0.49609894
668,2024-05-15 22:16:15.756723,-1.3955499,2.4350202,2.5844138,-2.9926288,-1.950569,0.23877195
669,2024-05-15 22:16:15.772649,-1.050697,2.5626926,2.530965,-1.9926424,-1.2938889,0.60590196
670,2024-05-15 22:16:15.789983,-0.8625288,2.5543947,2.464063,-1.2162327,-0.87361366,0.7573965
671,2024-05-15 22:16:15.805214,-0.7168266,2.4611342,2.3000565,0.35735616,-0.9389762,0.8826239
672,2024-05-15 22:16:15.825594,-0.79394877,1.9488581,1.8812542,2.1777346,-1.6536885,1.2882384
673,2024-05-15 22:16:15.840241,-0.7685668,1.7533684,1.8292701,2.7061331,-1.6921731,1.3713161
674,2024-05-15 22:16:15.857075,-0.829337,1.2725451,1.7472668,3.4978144,-1.592602,1.4684436
675,2024-05-15 22:16:15.872784,-0.8430042,0.6653306,1.4736482,5.1557026,-1.0935252,1.7610482
676,2024-05-15 22:16:15.888879,-0.8957206,0.46614933,1.3279461,5.411044,-1.0947468,1.8502345
677,2024-05-15 22:16:15.904392,-0.95844334,0.29116032,1.2327636,5.480072,-1.2273046,1.9498055
678,2024-05-15 22:16:15.923077,-1.0177492,0.18475133,1.2369126,5.4922895,-1.2957215,2.010281
679,2024-05-15 22:16:15.938726,-1.0177492,0.18475133,1.2369126,5.4922895,-1.2957215,2.010281
680,2024-05-15 22:16:15.956377,-1.0177492,0.18475133,1.2369126,5.4922895,-1.2957215,2.010281
681,2024-05-15 22:16:15.972038,-1.0177492,0.18475133,1.2369126,5.4922895,-1.2957215,2.010281
682,2024-05-15 22:16:15.989721,-1.0177492,0.18475133,1.2369126,5.4922895,-1.2957215,2.010281
683,2024-05-15 22:16:16.006383,-1.0177492,0.18475133,1.2369126,5.4922895,-1.2957215,2.010281
684,2024-05-15 22:16:16.022011,-1.0177492,0.18475133,1.2369126,5.4922895,-1.2957215,2.010281
685,2024-05-15 22:16:16.039668,-1.0177492,0.18475133,1.2369126,5.4922895,-1.2957215,2.010281
686,2024-05-15 22:16:16.054943,-2.00792,-2.9461064,1.0018855,2.8069258,-1.5467871,2.7280478
687,2024-05-15 22:16:16.070977,-1.1668682,-3.4412985,0.4002539,1.8344283,-1.837559,2.519132
688,2024-05-15 22:16:16.090134,-0.5140151,-3.4183574,0.071264714,1.273654,-1.9126954,2.1159608
689,2024-05-15 22:16:16.105960,0.43832684,-3.1115775,-0.4419877,0.75747293,-1.9988275,1.4098006
690,2024-05-15 22:16:16.121010,0.4566311,-2.7337768,-1.3450301,-0.47403142,-2.4459808,-0.8436813
691,2024-05-15 22:16:16.139671,0.3807293,-2.302741,-1.7460465,-3.0494392,-1.3616949,-2.033036
692,2024-05-15 22:16:16.156336,0.16180995,-2.2392864,-1.4411886,-4.0494256,-0.4197408,-2.4759133
693,2024-05-15 22:16:16.171897,-0.42392743,-2.0101166,-0.5127948,-4.8576,1.1141418,-3.152752
694,2024-05-15 22:16:16.189647,-0.99798054,-1.6206012,-0.06272271,-4.849659,1.9003254,-3.4007633
695,2024-05-15 22:16:16.205344,-1.4209318,-1.3804183,0.07590181,-5.4953437,1.8496236,-3.5290449
696,2024-05-15 22:16:16.222967,-1.9417806,-0.9506335,0.60041136,-6.4886107,2.1642191,-3.3060791
697,2024-05-15 22:16:16.239633,-1.9417806,-0.9506335,0.60041136,-6.4886107,2.1642191,-3.3060791
698,2024-05-15 22:16:16.256094,-2.3173845,-0.7080406,1.4765769,-7.2729616,1.8227456,-3.1283174
699,2024-05-15 22:16:16.272417,-2.3500884,-0.42124277,2.1968203,-7.0426655,1.0548879,-3.020805
700,2024-05-15 22:16:16.287666,-2.4460027,0.16180995,2.6722744,-6.0408463,0.6847036,-2.7141507
701,2024-05-15 22:16:16.306271,-2.4130552,0.4932397,2.8189526,-5.4733524,0.791605,-2.3836725
702,2024-05-15 22:16:16.321976,-2.1934035,1.0240947,2.8128512,-4.365243,0.7231881,-1.7159969
703,2024-05-15 22:16:16.339594,-2.1348298,1.2068936,2.662268,-3.9272528,0.35300374,-1.3427582
704,2024-05-15 22:16:16.356180,-1.8346393,1.6040052,2.3303194,-3.6994,-0.46738827,-0.7868708
705,2024-05-15 22:16:16.372915,-1.8346393,1.6040052,2.3303194,-3.7372735,-0.9860129,-0.4899903
706,2024-05-15 22:16:16.388602,-1.8346393,1.6040052,2.3303194,-3.7372735,-0.9860129,-0.4899903
707,2024-05-15 22:16:16.406236,-1.3777337,1.9344587,3.0224965,1.0421361,-0.51137054,-0.16134478
708,2024-05-15 22:16:16.421741,-1.738969,1.8451338,2.08553,2.9095511,-0.59933513,0.34261903
709,2024-05-15 22:16:16.438750,-1.7133428,1.6166962,1.3584532,3.1282408,-1.4123968,1.3364968
710,2024-05-15 22:16:16.456241,-1.459737,1.2415497,1.4172709,3.3750305,-1.5211308,1.9834031
711,2024-05-15 22:16:16.472766,-1.3586972,0.9894386,1.5334727,3.8643336,-1.2175308,2.1978168
712,2024-05-15 22:16:16.488540,-1.4145863,0.5921134,1.6386615,4.9980993,-0.382478,2.4488823
713,2024-05-15 22:16:16.506190,-1.5793555,0.4195344,1.555682,5.272378,-0.30978504,2.6400833
714,2024-05-15 22:16:16.521920,-1.8934572,0.10079564,1.6486678,5.2326717,-0.7129561,3.325474
715,2024-05-15 22:16:16.539458,-2.0184143,-0.27187976,2.2468522,5.321247,-0.4441754,3.6638935
716,2024-05-15 22:16:16.555179,-2.1257997,-0.57844615,2.5609844,5.6511145,-0.22915083,3.7665188
717,2024-05-15 22:16:16.572850,-2.1257997,-0.57844615,2.5609844,5.6511145,-0.22915083,3.7665188
718,2024-05-15 22:16:16.588521,-2.1257997,-0.57844615,2.5609844,5.6511145,-0.22915083,3.7665188
719,2024-05-15 22:16:16.606197,-2.1257997,-0.57844615,2.5609844,5.6511145,-0.22915083,3.7665188
720,2024-05-15 22:16:16.621881,-2.1257997,-0.57844615,2.5609844,5.6511145,-0.22915083,3.7665188
721,2024-05-15 22:16:16.638980,-2.1257997,-0.57844615,2.5609844,5.6511145,-0.22915083,3.7665188
722,2024-05-15 22:16:16.654174,-2.1257997,-0.57844615,2.5609844,5.6511145,-0.22915083,3.7665188
723,2024-05-15 22:16:16.672571,-1.641346,-3.1162145,0.54256976,4.6975536,-0.49609894,2.8618274
724,2024-05-15 22:16:16.691434,-1.641346,-3.1162145,0.54256976,4.6975536,-0.49609894,2.8618274
725,2024-05-15 22:16:16.705075,-0.88278556,-3.4666808,0.029530926,2.488054,-2.2841015,2.8935924
726,2024-05-15 22:16:16.720404,0.82128316,-2.6134565,-0.9960281,-0.8741482,-3.211395,-1.6512451
727,2024-05-15 22:16:16.739143,0.40830776,-2.2414827,-1.3042724,-2.1154263,-1.0513754,-3.3500614
728,2024-05-15 22:16:16.755114,-0.3824377,-2.051362,-1.1278191,-3.8570032,0.29741502,-4.2339835
729,2024-05-15 22:16:16.772654,-0.7446492,-1.9381196,-0.88986325,-4.524068,0.62422794,-4.374482
730,2024-05-15 22:16:16.787984,-1.2505798,-1.735064,-0.5118186,-5.900958,0.48311806,-4.2639155
731,2024-05-15 22:16:16.806127,-1.3294103,-1.692842,-0.27432033,-6.4550133,0.23510677,-4.1619015
732,2024-05-15 22:16:16.821763,-1.4660825,-1.4245927,0.34753752,-6.72135,0.69631004,-3.9835286
733,2024-05-15 22:16:16.839928,-2.096269,-1.0670488,1.0626557,-6.8203106,2.3487005,-3.9658136
734,2024-05-15 22:16:16.855083,-2.6974123,-0.7175588,1.8465983,-6.532593,3.0597477,-3.7544541
735,2024-05-15 22:16:16.872976,-2.9763696,-0.19353738,2.0523384,-5.5704803,1.6462054,-3.0293572
736,2024-05-15 22:16:16.888424,-2.8604424,0.2877435,2.2097552,-5.979149,-0.33605224,-2.5345562
737,2024-05-15 22:16:16.906143,-2.8011365,0.4639528,2.4694324,-6.00114,-0.8308531,-2.0128772
738,2024-05-15 22:16:16.921439,-2.343987,0.8039551,2.8179765,-5.149594,-0.8241336,-0.7715992
739,2024-05-15 22:16:16.939023,-1.7338436,1.0370297,2.684477,-3.9742892,-0.4637231,-0.041615196
740,2024-05-15 22:16:16.955116,-1.5678847,1.255217,2.5104644,-3.5442402,-0.5406921,0.07689266
741,2024-05-15 22:16:16.972626,-1.4809699,1.6315837,2.29786,-3.0329459,-1.248074,0.62728226
742,2024-05-15 22:16:16.989390,-1.1087825,1.671365,2.4657714,-2.2437081,-1.6848427,1.3835335
743,2024-05-15 22:16:17.006023,-0.89254785,1.6557454,2.610772,-1.7562376,-1.588326,1.4458417
744,2024-05-15 22:16:17.022692,-0.68119425,1.5705694,2.7696533,0.24373524,-0.9499718,1.1660653
745,2024-05-15 22:16:17.037958,-0.884738,1.4238604,2.3085985,2.3353379,-0.53824866,0.85269153
746,2024-05-15 22:16:17.056026,-0.9647888,1.3557686,2.0486777,2.9309313,-0.6023895,0.9021716
747,2024-05-15 22:16:17.071558,-1.0792516,1.1395339,1.438992,3.3658676,-1.2999976,1.2723559
748,2024-05-15 22:16:17.089034,-1.1053658,0.8093243,1.4543676,3.6981783,-1.9701167,1.7677677
749,2024-05-15 22:16:17.106028,-1.0548459,0.6553242,1.5303,4.02438,-1.9542342,1.8673387
750,2024-05-15 22:16:17.121731,-1.0406905,0.27480847,1.653549,5.07629,-1.2810608,1.8954386
751,2024-05-15 22:16:17.137080,-1.2593659,-0.12349297,1.5551938,5.9822035,-0.6811911,2.0279963
752,2024-05-15 22:16:17.156003,-1.3386846,-0.3018988,1.5102873,6.202115,-0.46005788,2.183156
753,2024-05-15 22:16:17.171678,-1.5412825,-0.76466185,1.5320083,6.179513,-0.06727154,2.527684
754,2024-05-15 22:16:17.188793,-1.4294739,-1.4228842,1.858557,5.9455514,0.39637518,2.5991552
755,2024-05-15 22:16:17.203958,-1.4294739,-1.4228842,1.858557,5.9455514,0.39637518,2.5991552
756,2024-05-15 22:16:17.222651,-1.4294739,-1.4228842,1.858557,5.9455514,0.39637518,2.5991552
757,2024-05-15 22:16:17.238274,-1.4294739,-1.4228842,1.858557,5.9455514,0.39637518,2.5991552
758,2024-05-15 22:16:17.255944,-1.4294739,-1.4228842,1.858557,5.9455514,0.39637518,2.5991552
759,2024-05-15 22:16:17.271679,-1.4294739,-1.4228842,1.858557,5.9455514,0.39637518,2.5991552
760,2024-05-15 22:16:17.289281,-1.4294739,-1.4228842,1.858557,5.9455514,0.39637518,2.5991552
761,2024-05-15 22:16:17.304920,-1.4294739,-1.4228842,1.858557,5.9455514,0.39637518,2.5991552
762,2024-05-15 22:16:17.322586,-2.3857205,-2.3554575,0.87277925,5.6957073,0.7726682,0.56375223
763,2024-05-15 22:16:17.338069,0.33899552,-2.187058,-1.1351408,-1.0458013,-0.18272507,-3.202843
764,2024-05-15 22:16:17.355910,-0.42319524,-1.9686267,-1.3206244,-3.449556,-0.41485387,-3.8442514
765,2024-05-15 22:16:17.372108,-0.7434289,-1.8575808,-1.0362976,-4.482529,-0.28168523,-3.7159696
766,2024-05-15 22:16:17.388877,-1.0797398,-1.5205377,-0.23429495,-5.5961366,0.8410851,-3.4893386
767,2024-05-15 22:16:17.403943,-1.1805354,-1.4236165,0.034168016,-5.8368173,2.246686,-3.7996583
768,2024-05-15 22:16:17.422413,-1.7721606,-0.94404393,1.089258,-5.62668,2.7482064,-3.9426007
769,2024-05-15 22:16:17.439265,-2.6722744,-0.19036464,1.5676408,-4.6688433,2.106798,-3.3219616
770,2024-05-15 22:16:17.454883,-2.468456,0.2889638,1.3816385,-5.000543,0.33162346,-2.3335817
771,2024-05-15 22:16:17.472581,-2.306646,0.39268813,1.4260571,-5.2363367,-0.030619621,-1.946904
772,2024-05-15 22:16:17.489709,-1.8619736,0.61871564,1.7348199,-5.4415874,0.15386169,-1.4178946
773,2024-05-15 22:16:17.504900,-1.8168231,0.6633781,1.8717359,-5.371338,0.39515346,-1.3348169
774,2024-05-15 22:16:17.523464,-1.6269467,1.08096,2.4455147,-4.071417,0.9357692,-1.103299
775,2024-05-15 22:16:17.536073,-1.7023603,1.5949751,2.3164084,-2.8344147,0.51732653,-0.7184539
776,2024-05-15 22:16:17.550865,-1.7233493,1.8568485,1.978633,-2.510656,0.10560333,-0.1821142
777,2024-05-15 22:16:17.572380,-1.4128779,2.12824,1.7357961,-2.823419,-0.89010704,0.89484125
778,2024-05-15 22:16:17.586210,-0.9184179,2.0520942,2.2331848,-2.6022859,-1.4038447,1.4531721
779,2024-05-15 22:16:17.601362,-0.8095684,2.036963,2.468212,-2.1771238,-1.3580298,1.4769958
780,2024-05-15 22:16:17.622524,-0.8317776,1.8087693,3.0132222,1.1044444,-0.48204905,0.9724211
781,2024-05-15 22:16:17.636808,-1.464374,1.5129719,2.2946873,3.25469,-0.5981134,1.0762682
782,2024-05-15 22:16:17.652922,-1.5498245,1.1739459,1.5002809,3.531412,-0.91270906,1.3004557
783,2024-05-15 22:16:17.671932,-1.4565641,1.0348332,1.3989667,3.4910948,-2.0806835,2.0231094
784,2024-05-15 22:16:17.687900,-1.229835,0.5686839,1.4819461,3.880827,-2.6090817,2.354809
785,2024-05-15 22:16:17.705515,-1.1090267,0.18255483,1.4826783,4.946176,-2.0434206,2.252184
786,2024-05-15 22:16:17.722553,-1.1068301,0.12324891,1.451439,5.1520376,-1.9181932,2.2210298
787,2024-05-15 22:16:17.737844,-1.323553,-0.2042759,1.1868808,6.016412,-1.1381183,2.227749
788,2024-05-15 22:16:17.755779,-1.4126339,-0.4656612,1.0228745,5.906456,-1.0886382,2.636418
789,2024-05-15 22:16:17.772454,-1.3596735,-0.6550802,1.0245829,5.7140336,-1.1008556,2.745152
790,2024-05-15 22:16:17.788014,-1.353572,-1.1009728,1.2615625,5.5234437,-0.808862,2.7017806
791,2024-05-15 22:16:17.805823,-1.3723644,-1.6569656,1.3130585,5.808107,0.26137397,1.7622699
792,2024-05-15 22:16:17.821917,-1.4516829,-1.7467787,1.0611913,5.5277195,0.5136613,1.3755922
793,2024-05-15 22:16:17.838616,-1.4516829,-1.7467787,1.0611913,5.5277195,0.5136613,1.3755922
794,2024-05-15 22:16:17.854785,-1.4516829,-1.7467787,1.0611913,5.5277195,0.5136613,1.3755922
795,2024-05-15 22:16:17.872428,-1.4516829,-1.7467787,1.0611913,5.5277195,0.5136613,1.3755922
796,2024-05-15 22:16:17.889074,-1.4516829,-1.7467787,1.0611913,5.5277195,0.5136613,1.3755922
797,2024-05-15 22:16:17.904725,-1.4516829,-1.7467787,1.0611913,5.5277195,0.5136613,1.3755922
798,2024-05-15 22:16:17.921436,-1.4516829,-1.7467787,1.0611913,5.5277195,0.5136613,1.3755922
799,2024-05-15 22:16:17.938501,0.15619664,-2.2868774,-0.4842096,-2.0463986,-0.8045859,-0.921872
800,2024-05-15 22:16:17.955698,0.15619664,-2.2868774,-0.4842096,-2.0463986,-0.8045859,-0.921872
801,2024-05-15 22:16:17.971406,0.15619664,-2.2868774,-0.4842096,-2.0463986,-0.8045859,-0.921872
802,2024-05-15 22:16:17.988337,-1.3374642,-1.6120591,-0.29652956,-5.031086,0.78244203,-3.9688678
803,2024-05-15 22:16:18.006492,-1.6140115,-1.4028716,-0.06296677,-5.621182,1.3206143,-3.6842046
804,2024-05-15 22:16:18.022198,-1.7514158,-1.2386211,0.19841854,-5.7470202,1.5215889,-3.5846336
805,2024-05-15 22:16:18.038536,-1.9754603,-0.78028154,0.8095684,-5.9534926,2.487367,-3.6756525
806,2024-05-15 22:16:18.055263,-2.2121959,-0.513771,1.2486273,-5.911954,2.6889524,-3.7972147
807,2024-05-15 22:16:18.070983,-2.772826,-0.05418071,1.8368357,-5.594304,2.486756,-3.7196348
808,2024-05-15 22:16:18.088998,-2.7010732,0.5960183,2.1592355,-4.851492,1.0237337,-2.2877667
809,2024-05-15 22:16:18.105707,-2.5839255,0.64385355,2.157771,-4.7531424,0.9033933,-2.1301634
810,2024-05-15 22:16:18.121291,-1.7960784,1.0040821,2.430139,-3.5027013,1.0102948,-1.5620588
811,2024-05-15 22:16:18.138234,-1.6747819,1.2178762,2.383768,-2.701857,1.3835335,-1.5064701
812,2024-05-15 22:16:18.155638,-1.8753968,1.7111464,1.9652101,-2.4440718,1.5295302,-1.470429
813,2024-05-15 22:16:18.172521,-1.9710674,1.8436695,1.7057772,-2.5919013,0.0035888334,0.5820782
814,2024-05-15 22:16:18.187664,-1.2957304,1.9242083,2.165337,-2.6535985,-0.7092909,1.3896421
815,2024-05-15 22:16:18.205655,-0.61237013,1.7792383,2.7450035,-1.2473868,-0.7196756,1.7561612
816,2024-05-15 22:16:18.221368,-0.45004156,1.6918658,2.7918622,-0.23273966,-0.618272,1.6052775
817,2024-05-15 22:16:18.239177,-0.6306744,1.4819461,2.6442077,1.6572775,-0.82169014,1.136133
818,2024-05-15 22:16:18.254616,-1.0489886,1.2264183,2.2632039,2.5222626,-0.9664652,1.045114
819,2024-05-15 22:16:18.272017,-1.1307478,1.1683326,2.114573,3.6205983,-1.2102004,1.2198216
820,2024-05-15 22:16:18.288491,-1.3379524,0.8622848,1.3772455,4.332867,-2.0531945,1.7940348
821,2024-05-15 22:16:18.303757,-1.387496,0.692909,1.1776067,4.5051312,-2.554715,2.1031327
822,2024-05-15 22:16:18.322319,-1.4182471,0.5547726,1.1617429,4.7024407,-2.676277,2.196595
823,2024-05-15 22:16:18.338022,-1.5310321,0.33313814,1.204209,5.234504,-2.567543,2.3206007
824,2024-05-15 22:16:18.355563,-1.5310321,0.33313814,1.204209,5.234504,-2.567543,2.3206007
825,2024-05-15 22:16:18.371248,-1.637441,0.16425052,1.1224499,6.1184263,-1.7795268,2.6749024
826,2024-05-15 22:16:18.388673,-2.047213,-0.08908089,0.71218956,5.255274,-0.71173435,3.8941896
827,2024-05-15 22:16:18.422648,-1.5713016,-0.7675905,1.3418572,3.8734965,-0.78564906,3.7988946
828,2024-05-15 22:16:18.436565,-1.7257898,-1.3115941,2.0442846,4.1911464,1.9528599,2.2002602
829,2024-05-15 22:16:18.453036,-2.3881612,-1.9083446,1.6738057,3.7586539,1.2845732,1.9284252
830,2024-05-15 22:16:18.472289,-2.3298316,-2.1382465,1.4324025,3.2247577,0.106214195,2.0597613
831,2024-05-15 22:16:18.485987,-2.3298316,-2.1382465,1.4324025,3.2247577,0.106214195,2.0597613
832,2024-05-15 22:16:18.501217,-2.3298316,-2.1382465,1.4324025,3.2247577,0.106214195,2.0597613
833,2024-05-15 22:16:18.521879,-2.3298316,-2.1382465,1.4324025,3.2247577,0.106214195,2.0597613
834,2024-05-15 22:16:18.535968,-2.3298316,-2.1382465,1.4324025,3.2247577,0.106214195,2.0597613
835,2024-05-15 22:16:18.551247,-2.3298316,-2.1382465,1.4324025,3.2247577,0.106214195,2.0597613
836,2024-05-15 22:16:18.571461,0.36706212,-2.513149,-0.65459204,-0.9663888,-1.3940709,-2.1381047
837,2024-05-15 22:16:18.586020,0.36706212,-2.513149,-0.65459204,-0.9663888,-1.3940709,-2.1381047
838,2024-05-15 22:16:18.601722,-0.7583164,-1.9271369,-0.95893145,-3.8453968,0.28153253,-3.9603157
839,2024-05-15 22:16:18.623127,-1.5246866,-1.5032096,-0.2677308,-4.880813,1.9498055,-3.4184783
840,2024-05-15 22:16:18.636044,-1.7841195,-1.3050046,0.051496077,-5.7830615,2.3713026,-3.4056501
841,2024-05-15 22:16:18.651245,-1.965942,-1.1356289,0.30116665,-6.3132925,2.2949443,-3.5137732
842,2024-05-15 22:16:18.672114,-2.5543947,-0.8146936,0.8879108,-7.0866475,1.9662988,-3.383659
843,2024-05-15 22:16:18.687892,-3.101327,-0.17254847,1.9515429,-7.2014904,1.6144404,-2.4325418
844,2024-05-15 22:16:18.703462,-2.3864527,0.27041543,2.4997258,-6.764722,1.036562,-1.7544813
845,2024-05-15 22:16:18.719692,-2.3864527,0.27041543,2.4997258,-6.3762116,0.8355873,-1.5015831
846,2024-05-15 22:16:18.735764,-1.5983919,0.9091437,2.5792885,-4.774523,1.820913,-1.8296177
847,2024-05-15 22:16:18.755422,-1.9588645,1.1344086,2.7615993,-4.5717154,1.7708219,-1.7721964
848,2024-05-15 22:16:18.771710,-2.101882,1.4153185,2.8514123,-4.0610323,0.62239534,-0.9182068
849,2024-05-15 22:16:18.788738,-1.5337168,1.6342684,2.6915548,-3.598607,-0.4667774,-0.31772628
850,2024-05-15 22:16:18.804927,-0.6177394,1.9813178,2.6654406,-1.8142698,-0.4930446,-0.15340354
851,2024-05-15 22:16:18.821574,-0.60138756,1.9976696,2.6381063,-1.0128145,-0.31772628,-0.17600554
852,2024-05-15 22:16:18.836766,-0.6816824,2.003283,2.2795556,0.79717916,-0.35682166,-0.26885706
853,2024-05-15 22:16:18.855403,-0.95282996,1.8380562,1.8392764,1.91323,-0.5596289,-0.12896892
854,2024-05-15 22:16:18.872436,-1.0226303,1.790709,1.7750894,2.1533,-0.65736735,0.008475755
855,2024-05-15 22:16:18.887724,-1.1619871,1.5881416,1.6401258,2.6358836,-0.9328676,0.3994295
856,2024-05-15 22:16:18.905338,-1.1143959,1.025315,1.4350871,3.4978144,-1.2633457,1.1312461
857,2024-05-15 22:16:18.920600,-1.0887699,0.9540503,1.3970143,4.166712,-1.1222358,1.4941
858,2024-05-15 22:16:18.935783,-1.2188524,0.5567251,1.1112231,4.836831,-0.92431545,2.0066159
859,2024-05-15 22:16:18.955425,-1.289385,0.24161668,1.0277556,4.95595,-1.0544298,2.454991
860,2024-05-15 22:16:18.971462,-1.2779143,0.097134784,1.093407,5.0060406,-1.0519863,2.668183
861,2024-05-15 22:16:18.991154,-1.1048776,-0.3590082,1.3528398,5.445253,-0.22120957,2.8532753
862,2024-05-15 22:16:19.007379,-0.9054829,-0.8220153,1.4741364,5.805663,0.85635674,2.4604888
863,2024-05-15 22:16:19.022174,-0.8984052,-0.95893145,1.5979038,5.8227677,1.2063825,2.0896935
864,2024-05-15 22:16:19.037926,-1.2805989,-1.306713,1.914446,5.877745,1.8429041,1.2247084
865,2024-05-15 22:16:19.054501,-1.5495806,-1.4751126,1.9461735,5.9143972,1.9772944,0.9345475
866,2024-05-15 22:16:19.071444,-2.3639996,-1.7870481,1.430206,5.425705,1.2754103,0.7738899
867,2024-05-15 22:16:19.088328,-1.8753968,-2.1026142,1.0140883,3.8056905,0.25465444,1.6040558
868,2024-05-15 22:16:19.105363,-1.5425028,-2.6051586,0.2997023,2.1025982,-0.5828418,1.7494417
869,2024-05-15 22:16:19.122026,-1.5425028,-2.6051586,0.2997023,2.1025982,-0.5828418,1.7494417
870,2024-05-15 22:16:19.137691,-1.5425028,-2.6051586,0.2997023,2.1025982,-0.5828418,1.7494417
871,2024-05-15 22:16:19.155284,-1.5425028,-2.6051586,0.2997023,2.1025982,-0.5828418,1.7494417
872,2024-05-15 22:16:19.170974,-1.5425028,-2.6051586,0.2997023,2.1025982,-0.5828418,1.7494417
873,2024-05-15 22:16:19.188120,-1.5425028,-2.6051586,0.2997023,2.1025982,-0.5828418,1.7494417
874,2024-05-15 22:16:19.205303,-1.5425028,-2.6051586,0.2997023,2.1025982,-0.5828418,1.7494417
875,2024-05-15 22:16:19.220953,-1.5425028,-2.6051586,0.2997023,2.1025982,-0.5828418,1.7494417
876,2024-05-15 22:16:19.236687,-1.5425028,-2.6051586,0.2997023,2.1025982,-0.5828418,1.7494417
877,2024-05-15 22:16:19.255277,-1.5425028,-2.6051586,0.2997023,2.1025982,-0.5828418,1.7494417
878,2024-05-15 22:16:19.271394,-1.5300559,-1.0138444,0.8022467,-5.145929,1.1642329,-3.6408331
879,2024-05-15 22:16:19.288583,-2.2361133,-0.49738866,1.0419109,-5.1929655,1.6657531,-3.5608099
880,2024-05-15 22:16:19.305267,-2.577336,-0.25796852,1.187125,-5.5912495,1.2008847,-3.2865314
881,2024-05-15 22:16:19.321919,-2.5831935,0.071264714,1.862706,-5.997475,0.14042264,-2.5944211
882,2024-05-15 22:16:19.337565,-2.1892545,0.41465324,2.508512,-4.9437323,0.7183012,-2.305482
883,2024-05-15 22:16:19.355270,-1.9595966,0.89620876,2.4003642,-3.671911,1.0903181,-2.227291
884,2024-05-15 22:16:19.370926,-1.9954731,1.1461233,2.2556381,-3.3096678,0.85574585,-2.118557
885,2024-05-15 22:16:19.388044,-2.1812007,1.6335361,1.8375679,-3.195436,-0.20105103,-1.2993867
886,2024-05-15 22:16:19.403267,-1.8358595,1.956668,1.9039516,-3.3151658,-0.75021887,-0.7202865
887,2024-05-15 22:16:19.421662,-1.628655,2.0362306,2.1480088,-2.9907963,-1.0477103,0.14408784
888,2024-05-15 22:16:19.438566,-1.3928652,2.0694225,2.4391692,-1.2156218,-0.76426876,0.4537965
889,2024-05-15 22:16:19.454205,-1.1968873,1.8839389,2.2629597,0.9786061,-0.56573755,0.47578767
890,2024-05-15 22:16:19.471917,-1.2615625,1.7780181,1.9732639,0.9786061,-0.56573755,0.47578767
891,2024-05-15 22:16:19.488543,-1.3586972,1.5578785,1.3801743,2.6755898,-0.74960804,1.2069933
892,2024-05-15 22:16:19.504255,-1.2251979,1.2747415,0.99407566,2.7818804,-1.2285264,1.8575648
893,2024-05-15 22:16:19.522457,-1.1409981,1.072174,1.0031058,2.892447,-1.3555863,2.1544454
894,2024-05-15 22:16:19.537584,-1.0287318,0.81420547,1.1058539,3.340822,-1.1607203,2.3639722
895,2024-05-15 22:16:19.553228,-1.0663166,0.44369608,1.1617429,4.3371434,-0.5296965,2.5075254
896,2024-05-15 22:16:19.571810,-1.0663166,0.44369608,1.1617429,4.3371434,-0.5296965,2.5075254
897,2024-05-15 22:16:19.587532,-1.336976,0.19622204,1.1409981,4.687169,-0.3195589,2.854497
898,2024-05-15 22:16:19.605161,-1.3992107,-0.06980037,1.2642471,4.65968,-0.34643695,3.2900438
899,2024-05-15 22:16:19.620832,-1.3464943,-0.505229,1.7636187,4.6315804,-0.22365303,3.32975
900,2024-05-15 22:16:19.639264,-1.3306307,-1.0175052,2.221226,5.375614,0.47762027,2.591214
901,2024-05-15 22:16:19.654199,-2.1092038,-1.7118785,2.101394,6.156911,1.0921507,1.2564734
902,2024-05-15 22:16:19.671505,-2.5492694,-1.8009595,1.747999,5.8728585,1.177061,1.1795044
903,2024-05-15 22:16:19.687522,-2.760867,-1.9871751,1.2039648,4.3353105,0.30596712,2.1269565
904,2024-05-15 22:16:19.703190,-2.247096,-2.1938915,0.94868106,3.2247577,-0.82474446,2.618703
905,2024-05-15 22:16:19.721817,-1.2239777,-2.7164488,0.92134666,2.1288655,-2.1839197,2.3706918
906,2024-05-15 22:16:19.737461,-0.52328926,-2.986376,0.4253918,1.9120082,-1.7972419,1.3279446
907,2024-05-15 22:16:19.755119,-0.057109397,-2.8611746,-0.061014313,1.3054191,-1.5040265,0.57474786
908,2024-05-15 22:16:19.770793,-0.057109397,-2.8611746,-0.061014313,1.3054191,-1.5040265,0.57474786
909,2024-05-15 22:16:19.788466,-0.057109397,-2.8611746,-0.061014313,1.3054191,-1.5040265,0.57474786
910,2024-05-15 22:16:19.804146,-0.057109397,-2.8611746,-0.061014313,1.3054191,-1.5040265,0.57474786
911,2024-05-15 22:16:19.821296,0.38439015,-2.1648488,-1.7187122,-2.483778,-1.9175824,-2.8632019
912,2024-05-15 22:16:19.838203,0.38439015,-2.1648488,-1.7187122,-2.483778,-1.9175824,-2.8632019
913,2024-05-15 22:16:19.855108,0.38439015,-2.1648488,-1.7187122,-2.483778,-1.9175824,-2.8632019
914,2024-05-15 22:16:19.871762,0.38439015,-2.1648488,-1.7187122,-2.483778,-1.9175824,-2.8632019
915,2024-05-15 22:16:19.882893,-1.370168,-1.1590583,0.48274526,-5.2827625,2.2222514,-4.12586
916,2024-05-15 22:16:19.904106,-2.3830361,-0.4515059,1.4394802,-5.8038306,1.979127,-4.0464478
917,2024-05-15 22:16:19.918783,-2.6212664,-0.0924977,1.990836,-5.657834,1.1104766,-3.4575737
918,2024-05-15 22:16:19.934372,-2.6556783,0.18645974,2.1934035,-5.3841662,0.37010798,-3.0556242
919,2024-05-15 22:16:19.954064,-2.3671722,0.5811308,2.2878537,-4.946176,-0.45150578,-2.001271
920,2024-05-15 22:16:19.969202,-2.144592,0.8112768,2.3085985,-4.849659,-0.7557167,-1.6836209
921,2024-05-15 22:16:19.984908,-2.1138408,0.88302964,2.332028,-4.791627,-0.9347002,-1.479592
922,2024-05-15 22:16:20.003579,-2.0716188,1.1214736,2.4945703,-3.9284744,-1.547398,-0.51686835
923,2024-05-15 22:16:20.019221,-1.6340244,1.6398817,1.9796093,-3.33227,-2.1393263,0.22716552
924,2024-05-15 22:16:20.038377,-1.4170269,1.8907725,2.2202497,-3.0940325,-2.2285128,1.004797
925,2024-05-15 22:16:20.055034,-1.042399,1.8790578,2.8948545,-1.3891076,-1.5754979,1.3780357
926,2024-05-15 22:16:20.071546,-0.94502014,1.7069974,2.9880843,0.19181168,-1.0910817,1.1740067
927,2024-05-15 22:16:20.087329,-0.9689378,1.5600749,2.9116945,1.1588113,-0.8241336,1.0084622
928,2024-05-15 22:16:20.105017,-1.413366,1.0865734,1.9937646,3.5949419,-0.49426633,1.0188469
929,2024-05-15 22:16:20.120565,-1.476821,0.9564909,1.7257898,3.879605,-0.7355581,1.3120621
930,2024-05-15 22:16:20.137333,-1.476821,0.9564909,1.7257898,3.879605,-0.7355581,1.3120621
931,2024-05-15 22:16:20.154985,-1.443385,0.34338856,1.7706963,4.2772784,-1.4264467,2.1452823
932,2024-05-15 22:16:20.171931,-1.3506433,0.0690682,1.828782,5.226563,-1.3354278,2.2265275
933,2024-05-15 22:16:20.187319,-1.3372202,-0.111290105,1.7853397,5.466022,-1.2743412,2.2124774
934,2024-05-15 22:16:20.205028,-1.3953058,-0.6462941,1.2291028,6.677979,-0.89927,2.2753966
935,2024-05-15 22:16:20.220196,-1.306225,-0.7751563,1.046792,6.6297207,-0.7392233,2.5930467
936,2024-05-15 22:16:20.237367,-1.259854,-0.9462405,1.0436193,6.356053,-0.6488153,2.6877308
937,2024-05-15 22:16:20.254948,-1.1029252,-1.5673966,1.3372202,5.955325,-0.25297457,2.3578634
938,2024-05-15 22:16:20.270362,-1.3015878,-2.0140214,1.3933533,6.018855,-0.022067508,1.3688726
939,2024-05-15 22:16:20.288277,-1.4338669,-1.9447093,1.1553975,5.860641,-0.25114197,1.1746175
940,2024-05-15 22:16:20.303940,-1.5676408,-2.0364747,0.44564855,4.1770964,-0.808862,1.6425403
941,2024-05-15 22:16:20.319151,-1.3469825,-2.3830361,0.14179726,1.6102408,-2.0800724,2.1813235
942,2024-05-15 22:16:20.338241,-0.7998061,-2.6693456,0.045882765,0.54000485,-2.6707792,2.318768
943,2024-05-15 22:16:20.354922,-0.05222825,-2.5753837,-0.16473864,-1.0861185,-2.943836,1.6260469
944,2024-05-15 22:16:20.371868,0.31995904,-2.310063,-0.30970863,-1.5308284,-1.9310215,0.44952047
945,2024-05-15 22:16:20.387286,0.38707477,-2.161432,-0.4097721,-1.6841555,-1.2902237,-0.14973834
946,2024-05-15 22:16:20.404872,0.38707477,-2.161432,-0.4097721,-1.6841555,-1.2902237,-0.14973834
947,2024-05-15 22:16:20.420552,0.38707477,-2.161432,-0.4097721,-1.6841555,-1.2902237,-0.14973834
948,2024-05-15 22:16:20.438209,0.38707477,-2.161432,-0.4097721,-1.6841555,-1.2902237,-0.14973834
949,2024-05-15 22:16:20.453943,0.38707477,-2.161432,-0.4097721,-1.6841555,-1.2902237,-0.14973834
950,2024-05-15 22:16:20.471552,0.38707477,-2.161432,-0.4097721,-1.6841555,-1.2902237,-0.14973834
951,2024-05-15 22:16:20.488201,0.38707477,-2.161432,-0.4097721,-1.6841555,-1.2902237,-0.14973834
952,2024-05-15 22:16:20.503889,0.38707477,-2.161432,-0.4097721,-1.6841555,-1.2902237,-0.14973834
953,2024-05-15 22:16:20.521511,0.38707477,-2.161432,-0.4097721,-1.6841555,-1.2902237,-0.14973834
954,2024-05-15 22:16:20.537163,0.38707477,-2.161432,-0.4097721,-1.6841555,-1.2902237,-0.14973834
955,2024-05-15 22:16:20.553928,0.38707477,-2.161432,-0.4097721,-1.6841555,-1.2902237,-0.14973834
956,2024-05-15 22:16:20.571518,0.38707477,-2.161432,-0.4097721,-1.6841555,-1.2902237,-0.14973834
957,2024-05-15 22:16:20.586705,-2.127752,0.9262278,2.8245661,-2.8955014,0.5038875,-2.091068
958,2024-05-15 22:16:20.604331,-2.2351372,1.2007922,2.7249908,-2.3744333,0.46967903,-1.6793449
959,2024-05-15 22:16:20.620451,-2.1323893,1.6271906,2.0647852,-1.930945,-0.7196756,-0.53641605
960,2024-05-15 22:16:20.637944,-1.6813713,1.9039516,1.8937012,-1.9700404,-1.850998,0.3114649
961,2024-05-15 22:16:20.654828,-1.4499747,1.9735079,2.0013304,-1.4337007,-1.814957,0.705473
962,2024-05-15 22:16:20.670449,-1.2369126,1.9159105,2.0879707,-0.010995574,-0.8797223,0.9699777
963,2024-05-15 22:16:20.688149,-1.2435023,1.6886932,1.926405,1.4227052,-0.118584216,1.1294135
964,2024-05-15 22:16:20.703878,-1.2417938,1.653549,1.8832067,1.5876387,-0.072158456,1.1569024
965,2024-05-15 22:16:20.721363,-1.2581456,1.2359364,1.5371336,2.7183504,-0.12835807,1.5698473
966,2024-05-15 22:16:20.738002,-1.3223326,0.94160336,1.434355,3.0891457,-0.6934084,2.1080196
967,2024-05-15 22:16:20.753784,-1.2735213,0.7856508,1.4621775,3.2082644,-0.9744064,2.3425918
968,2024-05-15 22:16:20.771421,-1.148808,0.43710655,1.7677675,3.8319576,-0.99823016,2.5722773
969,2024-05-15 22:16:20.787075,-1.1095147,-0.013179091,1.9159105,5.0665164,-0.69401926,2.459878
970,2024-05-15 22:16:20.804798,-1.1544212,-0.20183535,1.8485507,5.5478783,-0.6622543,2.4293346
971,2024-05-15 22:16:20.821401,-1.1737018,-0.56599927,1.5488483,6.1324763,-0.577344,2.4617107
972,2024-05-15 22:16:20.836984,-1.084865,-0.9345257,1.4614452,6.024353,-0.541303,2.5063038
973,2024-05-15 22:16:20.854748,-0.97284275,-1.1239141,1.5354251,5.9223385,-0.3910301,2.3896284
974,2024-05-15 22:16:20.870288,-1.0499648,-1.7553208,1.726278,5.9681535,0.34200817,1.4330136
975,2024-05-15 22:16:20.887525,-1.3203802,-1.9559358,1.3530838,5.635232,0.4751768,0.71402514
976,2024-05-15 22:16:20.904229,-1.4570522,-1.8980943,1.1744341,5.1117206,0.5600871,0.7604509
977,2024-05-15 22:16:20.921013,-1.4878035,-2.0779645,0.76588213,3.55829,0.077503525,1.5454127
978,2024-05-15 22:16:20.938498,-1.3467383,-2.1509376,0.654348,3.0268373,-0.27191138,1.7402787
979,2024-05-15 22:16:20.953897,-0.8190866,-2.6678813,0.24845028,1.1551461,-1.3739123,1.9461403
980,2024-05-15 22:16:20.971343,0.40123013,-2.6088195,-0.25284332,-0.08735373,-1.3763558,0.85330236
981,2024-05-15 22:16:20.987063,0.66923547,-2.327635,-0.6333591,-1.2113458,-1.0165561,-1.1533899
982,2024-05-15 22:16:21.004717,0.44149956,-2.2336729,-0.7741801,-1.8509218,-0.87422454,-2.0409772
983,2024-05-15 22:16:21.020366,-0.23429495,-1.9940087,-0.85789174,-3.1587842,-0.32933274,-2.8546495
984,2024-05-15 22:16:21.037987,-0.40196228,-1.9110293,-0.82396775,-3.5833356,-0.102701716,-2.889469
985,2024-05-15 22:16:21.054657,-0.40196228,-1.9110293,-0.82396775,-3.5833356,-0.102701716,-2.889469
986,2024-05-15 22:16:21.070349,-0.40196228,-1.9110293,-0.82396775,-3.5833356,-0.102701716,-2.889469
987,2024-05-15 22:16:21.087972,-0.40196228,-1.9110293,-0.82396775,-3.5833356,-0.102701716,-2.889469
988,2024-05-15 22:16:21.104620,-0.40196228,-1.9110293,-0.82396775,-3.5833356,-0.102701716,-2.889469
989,2024-05-15 22:16:21.121349,-0.40196228,-1.9110293,-0.82396775,-3.5833356,-0.102701716,-2.889469
990,2024-05-15 22:16:21.136423,-0.40196228,-1.9110293,-0.82396775,-3.5833356,-0.102701716,-2.889469
991,2024-05-15 22:16:21.166735,-1.8256092,0.5428138,3.254839,-5.960212,0.10682506,-2.0336468
992,2024-05-15 22:16:21.186439,-1.9261607,1.0250709,3.5738525,-3.1575625,1.1978304,-2.290821
993,2024-05-15 22:16:21.202334,-2.153134,1.3355118,3.262649,-1.9700404,1.2234868,-2.1436026
994,2024-05-15 22:16:21.218456,-2.3029852,1.8517234,2.0315936,-1.1294898,-0.13752104,-1.0464885
995,2024-05-15 22:16:21.233669,-2.2522213,1.9254287,1.7643509,-1.3530666,-0.75266236,-0.6201046
996,2024-05-15 22:16:21.254632,-1.5608071,1.9598407,1.9173747,-1.5534303,-1.8980347,0.94920826
997,2024-05-15 22:16:21.268326,-1.0711977,1.7987629,2.1626523,-0.2864958,-1.235246,1.1385765
998,2024-05-15 22:16:21.283938,-1.0504528,1.739213,2.1092038,0.50518554,-0.8998809,1.0383946
999,2024-05-15 22:16:21.304616,-1.2503358,1.4873154,1.7182239,2.3964243,-0.4734969,1.231428
