id,timestamp,acc_x,acc_y,acc_z,gyro_x,gyro_y,gyro_z
0,2024-05-15 22:11:14.327272,-0.80786,-0.7409883,0.11617125,0.05589417,-0.48075095,0.27282768
1,2024-05-15 22:11:14.343398,-0.86057633,-0.68851596,0.117147475,0.043676864,-0.5290093,0.48846313
2,2024-05-15 22:11:14.358187,-0.8901073,-0.67069983,0.027090356,-0.12736541,-0.6389651,0.8317694
3,2024-05-15 22:11:14.371863,-0.9257397,-0.6863195,-0.033923957,-0.35521814,-0.8142834,0.8641452
4,2024-05-15 22:11:14.387759,-1.0499648,-0.69364125,-0.037828874,-0.57451874,-1.0451905,0.8989646
5,2024-05-15 22:11:14.409274,-1.6852763,-0.5464747,0.12983845,-0.8927795,-1.4935656,1.6937002
6,2024-05-15 22:11:14.422500,-1.6852763,-0.5464747,0.12983845,-0.8927795,-1.4935656,1.6937002
7,2024-05-15 22:11:14.438398,-2.187058,-0.39708114,-0.11275445,-1.5005904,-1.8613064,3.4096208
8,2024-05-15 22:11:14.458366,-2.3290992,-0.43661842,-0.042465962,-2.526844,-2.398257,4.6887727
9,2024-05-15 22:11:14.475029,-2.2651563,-0.4751795,0.0873725,-3.0289752,-2.6022859,5.416313
10,2024-05-15 22:11:14.490716,-2.2736983,-0.6255492,0.5108423,-3.7015378,-2.7476718,6.1884465
11,2024-05-15 22:11:14.506424,-2.490421,-0.6482466,0.935502,-3.7137554,-2.5680776,6.9636345
12,2024-05-15 22:11:14.525070,-2.7332885,-0.73024976,1.1378254,-3.4675765,-2.6035078,7.253185
13,2024-05-15 22:11:14.540727,-2.8953426,-0.78198993,1.5766708,-2.5659394,-2.878397,7.6991167
14,2024-05-15 22:11:14.559033,-2.697168,-0.7261008,2.0320816,-0.5177083,-2.643214,7.410788
15,2024-05-15 22:11:14.574728,-2.7999163,-0.5540405,2.1052988,0.7247916,-2.511267,7.0900836
16,2024-05-15 22:11:14.590716,-2.9919891,-0.5274382,1.9813178,1.9715676,-2.6303856,6.9508066
17,2024-05-15 22:11:14.608205,-3.254595,-0.57844615,1.5700814,3.9770381,-2.9345965,7.1670527
18,2024-05-15 22:11:14.624029,-3.3375745,-0.7761325,1.0619236,5.2494707,-2.9223793,7.5225763
19,2024-05-15 22:11:14.639230,-3.476931,-0.84446853,0.8630169,5.5188622,-2.7232373,7.9617887
20,2024-05-15 22:11:14.658350,-3.4310482,-0.88937515,0.5830833,5.5188622,-2.7232373,7.9617887
21,2024-05-15 22:11:14.674956,-2.8592222,-0.85057,0.4600479,4.999016,-2.5912905,8.3533535
22,2024-05-15 22:11:14.691871,-2.6939955,-0.73317844,0.22648512,3.1823025,-2.606562,8.579373
23,2024-05-15 22:11:14.708511,-2.4401455,-0.66923547,0.46444094,2.368019,-2.452013,8.685053
24,2024-05-15 22:11:14.723854,-2.4335558,-0.6814383,0.94404393,1.2226468,-1.9425515,8.917182
25,2024-05-15 22:11:14.741345,-2.2251308,-0.92793614,1.0716859,0.8445212,-3.0042353,9.118156
26,2024-05-15 22:11:14.757929,-1.7004079,-1.0648522,0.9489251,1.2177598,-4.0274343,8.35824
27,2024-05-15 22:11:14.794348,-1.4533914,-0.92232287,0.51669973,2.1242838,-3.662137,6.8512354
28,2024-05-15 22:11:14.811436,-1.3818827,-0.83836716,0.13349932,2.4193318,-3.4092388,5.9673133
29,2024-05-15 22:11:14.827393,-1.3818827,-0.7868711,-0.061502427,2.4040601,-3.503923,5.558034
30,2024-05-15 22:11:14.846089,-1.3818827,-0.7868711,-0.061502427,2.3930645,-3.4568865,5.388213
31,2024-05-15 22:11:14.858733,-1.2278825,-0.8190866,-0.07980672,2.486527,-3.2980614,5.1976233
32,2024-05-15 22:11:14.874558,-1.0724181,-0.8664337,-0.10396838,2.7931814,-2.951701,4.8384347
33,2024-05-15 22:11:14.891132,-0.54354596,-1.1427065,-0.56673145,2.7931814,-2.951701,4.8384347
34,2024-05-15 22:11:14.907893,-0.748066,-1.225686,-1.2664436,4.2788057,-1.7348573,3.04188
35,2024-05-15 22:11:14.923900,-0.8459329,-1.3140347,-2.0023067,3.7137554,-1.9498819,3.449327
36,2024-05-15 22:11:14.941620,0.029530926,-1.3247732,-2.3090868,1.9856175,-1.2229522,3.6417496
37,2024-05-15 22:11:14.956762,0.3487578,-1.3279461,-1.6123033,1.2495248,-0.6249151,3.3069954
38,2024-05-15 22:11:14.974884,0.36510965,-1.3259935,-1.5154124,0.9049969,-0.46853364,2.9881237
39,2024-05-15 22:11:14.991538,0.5213368,-1.3513755,-1.1800473,0.9618073,-0.6072,2.818914
40,2024-05-15 22:11:15.006801,0.8840059,-1.3635783,-0.9779679,1.2263119,-0.48563787,2.483549
41,2024-05-15 22:11:15.024895,1.3486909,-1.3823708,-1.3482027,1.525636,0.24556783,1.7364608
42,2024-05-15 22:11:15.040074,1.4018954,-1.3931093,-1.3750491,1.525636,0.24556783,1.7364608
43,2024-05-15 22:11:15.056175,1.6225536,-1.408973,-1.1175686,0.54092115,0.70249504,1.0412961
44,2024-05-15 22:11:15.075064,1.7743572,-1.44729,-0.8129852,0.904386,1.2541064,0.78106755
45,2024-05-15 22:11:15.088383,2.0367186,-1.4990606,-1.1536891,1.4480561,1.9761491,0.53672147
46,2024-05-15 22:11:15.104160,2.1726587,-1.5000368,-1.2220252,1.280679,2.1429152,0.23617578
47,2024-05-15 22:11:15.125315,2.1731467,-1.5510448,-1.0155526,1.2153164,2.4831672,-0.62514424
48,2024-05-15 22:11:15.139215,2.0733273,-1.5210258,-0.88937515,1.7950275,2.7421741,-1.501125
49,2024-05-15 22:11:15.155137,2.0098724,-1.513216,-0.89986956,2.0277672,2.8441887,-1.8871918
50,2024-05-15 22:11:15.173819,1.7367723,-1.4084848,-0.9257397,2.5421157,2.8350255,-3.0405054
51,2024-05-15 22:11:15.191907,1.3101298,-1.238377,-1.0218983,2.612976,2.5705209,-3.6922987
52,2024-05-15 22:11:15.207181,1.0031058,-1.1388016,-0.9704022,2.346639,2.4623978,-4.2243624
53,2024-05-15 22:11:15.225413,0.8185985,-1.0768111,-0.86057633,2.2941043,2.4495697,-4.456491
54,2024-05-15 22:11:15.240923,0.6257933,-1.0453277,-0.7675905,2.3020456,2.4330764,-4.6085963
55,2024-05-15 22:11:15.256105,-0.13105874,-0.98040843,-0.6831467,2.2452352,2.3365595,-4.873712
56,2024-05-15 22:11:15.271217,-0.31532198,-0.92134666,-0.67728937,2.1340578,2.3493876,-4.696561
57,2024-05-15 22:11:15.290942,-0.66020536,-0.8945003,-0.52597386,1.960572,2.375044,-4.4632106
58,2024-05-15 22:11:15.306076,-0.8739995,-0.77906126,-0.42148685,2.0754147,2.0751092,-4.384409
59,2024-05-15 22:11:15.324592,-0.9745511,-0.7090168,-0.35925224,2.1621575,1.8362609,-4.5542293
60,2024-05-15 22:11:15.340302,-1.0704657,-0.5628265,-0.3917119,2.2427917,1.6572775,-4.6531897
61,2024-05-15 22:11:15.358317,-1.3286781,-0.50693744,-0.20842488,2.2348504,1.8216002,-4.983668
62,2024-05-15 22:11:15.373592,-1.4380158,-0.4612682,-0.19231711,2.2244658,1.8106046,-4.854164
63,2024-05-15 22:11:15.391428,-1.3421013,-0.4554108,0.0,2.1212296,1.2632693,-4.6305876
64,2024-05-15 22:11:15.408066,-1.3421013,-0.4554108,0.0,2.1212296,1.2632693,-4.6305876
65,2024-05-15 22:11:15.423797,-1.1568618,-0.6001673,0.15619664,2.0839667,0.61819565,-5.1150036
66,2024-05-15 22:11:15.441471,-1.404824,-0.5962624,0.14594623,2.6435194,-0.49663344,-6.596352
67,2024-05-15 22:11:15.457082,-1.7809467,-0.5415935,-0.5303669,1.88849,-2.1673498,-7.6317687
68,2024-05-15 22:11:15.474487,-1.8617296,-0.8666778,-0.39537275,-0.8078693,-3.385415,-8.868771
69,2024-05-15 22:11:15.490094,-2.421109,-0.76539403,0.98358124,0.7174612,-0.50885075,-8.759426
70,2024-05-15 22:11:15.508029,-2.5419476,-0.6077331,0.2626056,3.6490035,0.10629055,-8.447273
71,2024-05-15 22:11:15.525161,-2.4535685,-0.47493544,-0.422219,3.620293,-0.8179486,-8.610986
72,2024-05-15 22:11:15.540355,-3.016151,-0.46956614,-1.1861488,0.8915578,-3.1429017,-9.590814
73,2024-05-15 22:11:15.558059,-3.5401723,-0.21037734,-0.76295346,-0.21044308,-2.1099286,-9.069745
74,2024-05-15 22:11:15.573101,-4.271368,0.2853029,-0.11324256,0.122478485,-1.0934488,-8.093583
75,2024-05-15 22:11:15.591325,-3.6075323,0.76368564,-0.5013241,0.23915374,-0.72509706,-6.576804
76,2024-05-15 22:11:15.607988,-3.0344553,0.85960007,-0.83226573,-1.8469511,-2.1087067,-6.6611037
77,2024-05-15 22:11:15.624481,-3.089368,0.9362341,-0.32508424,-2.8799243,-2.2925773,-6.57375
78,2024-05-15 22:11:15.640331,-3.2528865,1.2701045,0.2443013,-3.5280523,-1.9394971,-5.789399
79,2024-05-15 22:11:15.657980,-3.494259,1.6511083,0.6973021,-3.4040465,-1.2095132,-4.283616
80,2024-05-15 22:11:15.674681,-3.5069804,1.7589816,0.8361706,-3.338073,-1.0641272,-3.5585191
81,2024-05-15 22:11:15.690327,-3.6563437,1.7846076,1.4536355,-2.9013045,-0.4092797,-2.0185277
82,2024-05-15 22:11:15.706958,-3.695637,1.8383002,1.7443382,-2.1316142,0.062308256,-1.1627057
83,2024-05-15 22:11:15.724595,-3.6963692,1.910053,1.8095014,-0.7021896,-0.21685717,0.62041
84,2024-05-15 22:11:15.740326,-3.4754667,1.7741132,1.7572733,0.4083634,-1.1930199,1.9918025
85,2024-05-15 22:11:15.758406,-3.280465,1.4582726,1.5207816,1.7198911,-1.4886786,3.2294154
86,2024-05-15 22:11:15.773338,-3.2148137,1.3347796,1.3547924,2.010663,-1.5192219,3.5165222
87,2024-05-15 22:11:15.791479,-3.071064,1.1607667,0.9882183,2.5873199,-1.6951511,4.2434516
88,2024-05-15 22:11:15.806982,-3.0061445,0.89938146,0.44027928,2.5158484,-1.9981402,4.7474155
89,2024-05-15 22:11:15.824569,-2.9853997,0.8251881,0.23014598,2.1450534,-2.3475552,4.967938
90,2024-05-15 22:11:15.839303,-3.063254,0.54330194,-0.009274175,1.0479393,-3.1532865,5.313077
91,2024-05-15 22:11:15.857548,-3.1020591,0.41294485,0.05662128,0.6221663,-3.408628,5.5281014
92,2024-05-15 22:11:15.873592,-3.1020591,0.41294485,0.05662128,0.6221663,-3.408628,5.5281014
93,2024-05-15 22:11:15.891048,-3.4227505,0.010494461,0.32093528,0.8402451,-3.794084,6.862842
94,2024-05-15 22:11:15.907889,-3.0627658,-0.12690976,0.26504618,1.385137,-3.7091737,7.1145186
95,2024-05-15 22:11:15.924284,-2.9187722,-0.10958171,0.09200958,1.3991868,-3.703676,7.0864186
96,2024-05-15 22:11:15.940152,-2.7611113,-0.117391534,-0.03294773,1.1511755,-3.9229765,6.884222
97,2024-05-15 22:11:15.957856,-2.6727624,-0.24820623,-0.07028849,0.9935723,-4.134336,7.0241103
98,2024-05-15 22:11:15.973110,-2.5592759,-0.2608972,-0.029530926,0.9294315,-4.0231586,7.128568
99,2024-05-15 22:11:15.990240,-2.332272,-0.44467232,0.08444381,1.0735956,-3.785532,7.2971673
100,2024-05-15 22:11:16.007865,-1.8968738,-0.57698184,0.023429496,1.4114041,-3.3689218,7.1731615
101,2024-05-15 22:11:16.023037,-1.692598,-0.5967505,-0.06638357,1.4834863,-3.1838295,7.0467124
102,2024-05-15 22:11:16.038716,-1.3469825,-0.62017995,-0.13740423,1.5213599,-2.7751608,6.653926
103,2024-05-15 22:11:16.057846,-1.1688206,-0.60089946,-0.28969595,1.4022411,-2.601675,6.0125175
104,2024-05-15 22:11:16.073339,-1.0895021,-0.5533083,-0.38853914,1.1841623,-2.579073,5.642944
105,2024-05-15 22:11:16.091428,-0.978212,-0.5901609,-0.4471129,0.7357872,-2.6896396,5.15303
106,2024-05-15 22:11:16.108157,-0.91085213,-0.58820844,-0.43539813,0.5842926,-2.6212227,4.8769193
107,2024-05-15 22:11:16.124255,-0.77100736,-0.594554,-0.35827604,0.55863625,-2.2779164,4.5452194
108,2024-05-15 22:11:16.139918,-0.60138756,-0.6428773,-0.34851375,0.94897914,-1.9443841,4.1506004
109,2024-05-15 22:11:16.157882,-0.46663743,-0.69510555,-0.41807005,1.1255192,-1.853976,3.9551234
110,2024-05-15 22:11:16.173065,-0.3328941,-0.726833,-0.45199403,1.3228287,-1.6554449,3.725438
111,2024-05-15 22:11:16.191762,-0.12373702,-0.7815018,-0.78345424,1.7828102,-1.3530666,3.2782848
112,2024-05-15 22:11:16.207368,-0.12373702,-0.7815018,-0.78345424,1.8579466,-1.1850786,3.1512246
113,2024-05-15 22:11:16.223296,-0.06809197,-0.78955567,-0.95185375,1.7296649,-1.0751228,3.0815861
114,2024-05-15 22:11:16.240725,0.13276714,-0.79785365,-1.050941,0.43585235,-1.187522,2.704682
115,2024-05-15 22:11:16.255602,0.60089946,-1.0995084,-0.40123013,1.4969252,-1.1887437,2.7010171
116,2024-05-15 22:11:16.271370,0.7775969,-1.1780949,-0.6697236,1.6471981,-1.1349876,2.7437775
117,2024-05-15 22:11:16.290578,1.0973119,-1.3211124,-1.0628998,1.4156802,-1.1508701,2.6631434
118,2024-05-15 22:11:16.306591,1.2520442,-1.3979905,-1.2073817,1.0149527,-1.1264355,2.5360835
119,2024-05-15 22:11:16.323480,1.4660825,-1.4543676,-1.0560663,0.3735441,-0.9773844,2.2850177
120,2024-05-15 22:11:16.339136,1.6813713,-1.6044934,-0.7756444,0.90377516,-0.49418998,2.1768947
121,2024-05-15 22:11:16.357767,1.8819865,-1.65843,-0.82079506,1.4364496,0.026267206,2.0748801
122,2024-05-15 22:11:16.373318,2.1262877,-1.7628864,-1.2378888,1.851838,0.92057395,1.8305341
123,2024-05-15 22:11:16.391090,2.4408774,-1.7929054,-1.3901806,0.840856,1.3927728,1.0767263
124,2024-05-15 22:11:16.407730,2.5060713,-1.7501955,-0.84812945,0.57818395,1.5430456,0.021762075
125,2024-05-15 22:11:16.423116,2.4772422,-1.7004079,-0.6233527,0.9086621,1.7788396,-0.59093577
126,2024-05-15 22:11:16.440091,2.26418,-1.5991242,-0.45931572,1.8683313,2.1746802,-1.7644079
127,2024-05-15 22:11:16.458141,2.1004176,-1.551533,-0.5120626,2.251344,2.1856759,-2.294028
128,2024-05-15 22:11:16.473947,1.7799705,-1.4463137,-0.6907125,2.5231788,2.0195205,-3.0802116
129,2024-05-15 22:11:16.491033,1.2330077,-1.2788905,-0.8107887,2.3478606,1.8466456,-3.7558286
130,2024-05-15 22:11:16.508500,1.0145764,-1.2051852,-0.8593561,2.1981986,1.7055358,-3.876169
131,2024-05-15 22:11:16.523370,0.714142,-1.076323,-0.8288489,2.0778582,1.6401732,-3.948862
132,2024-05-15 22:11:16.539015,0.4271002,-0.9789441,-0.75172687,1.5940529,1.7476854,-4.249408
133,2024-05-15 22:11:16.557215,0.15936938,-0.9047507,-0.6821705,1.4859297,2.039679,-4.256738
134,2024-05-15 22:11:16.574232,-0.11153416,-0.8183544,-0.586256,1.385137,2.452013,-4.179158
135,2024-05-15 22:11:16.590566,-0.28725538,-0.76148915,-0.522313,1.3680327,2.6780334,-4.058818
136,2024-05-15 22:11:16.606671,-0.3162982,-0.74489325,-0.50962204,1.3698653,2.7049112,-4.029496
137,2024-05-15 22:11:16.625005,-0.50742555,-0.59992325,-0.3660859,1.389413,2.3109033,-3.9213731
138,2024-05-15 22:11:16.640958,-0.61285824,-0.51572347,-0.32728076,1.5769486,1.813048,-4.315992
139,2024-05-15 22:11:16.656669,-0.77393603,-0.47176263,-0.32728076,1.6869044,1.6340646,-4.493143
140,2024-05-15 22:11:16.674815,-0.7971215,-0.47395915,-0.31703037,1.6569719,1.5613716,-4.5151343
141,2024-05-15 22:11:16.690681,-0.6667949,-0.48713827,-0.18768002,1.5152513,1.2534955,-4.7833037
142,2024-05-15 22:11:16.707651,-0.74050015,-0.6152988,-0.07980672,1.3979651,0.51251596,-5.1406603
143,2024-05-15 22:11:16.722333,-0.66362214,-0.6750929,0.04515059,1.4547756,0.3622431,-5.377676
144,2024-05-15 22:11:16.740692,-0.6318947,-0.8022467,0.016351834,1.7296649,-0.06047566,-6.3135214
145,2024-05-15 22:11:16.758125,-0.8283608,-0.90377444,-0.19719826,1.7180585,-0.46670106,-6.935993
146,2024-05-15 22:11:16.772871,-1.0614355,-0.9791882,-0.26529023,1.4975362,-0.8002335,-7.947586
147,2024-05-15 22:11:16.788784,-1.473404,-1.1839522,-0.23209843,1.4395039,-0.3903429,-8.354423
148,2024-05-15 22:11:16.807634,-1.8570925,-1.3267257,-0.04271002,2.4523184,1.0512991,-8.343427
149,2024-05-15 22:11:16.824141,-1.990836,-1.3909128,-0.19597797,3.2641585,1.3041973,-8.447273
150,2024-05-15 22:11:16.839922,-2.1223826,-1.417515,-0.8742436,3.510337,0.15943582,-9.213299
151,2024-05-15 22:11:16.855575,-2.4076858,-1.4987861,-1.5825281,2.313652,-1.3487904,-10.370277
152,2024-05-15 22:11:16.871036,-3.4322684,-1.5173649,-1.3867638,0.19822577,-1.2498302,-11.317729
153,2024-05-15 22:11:16.891054,-4.2001033,-1.3435657,-1.1539332,-0.3717115,0.22296582,-10.25177
154,2024-05-15 22:11:16.905015,-4.373384,-1.2437462,-1.0834006,-0.72051555,0.77763146,-9.458256
155,2024-05-15 22:11:16.920957,-4.530099,-1.012624,-0.9128046,-1.1633929,1.1276573,-9.003161
156,2024-05-15 22:11:16.939587,-4.7348633,0.09127741,0.0370967,-1.8255708,1.3658947,-8.543791
157,2024-05-15 22:11:16.957066,-4.4365945,0.33899552,0.3692586,-2.5579982,0.43860126,-6.373997
158,2024-05-15 22:11:16.972294,-4.0319476,0.6060247,0.7258568,-2.182927,0.47219884,-5.6879954
159,2024-05-15 22:11:16.987524,-3.9989998,0.8693625,0.97601545,-1.1438452,1.4306464,-4.107076
160,2024-05-15 22:11:17.008056,-3.7068636,1.378954,1.0365417,0.08827003,2.122146,-2.7821095
161,2024-05-15 22:11:17.023249,-3.7068636,1.378954,1.0365417,0.08827003,2.122146,-2.7821095
162,2024-05-15 22:11:17.040821,-3.7068636,1.378954,1.0365417,0.08827003,2.122146,-2.7821095
163,2024-05-15 22:11:17.056484,-3.7068636,1.378954,1.0365417,0.08827003,2.122146,-2.7821095
164,2024-05-15 22:11:17.073786,-3.986065,1.7172477,1.4702314,-0.29657507,-0.9486737,0.48663053
165,2024-05-15 22:11:17.089306,-4.008274,1.5154124,1.409461,1.0009027,-1.3481796,2.1500165
166,2024-05-15 22:11:17.106498,-3.9196813,1.3213564,1.1951789,1.466382,-1.6639969,2.9001591
167,2024-05-15 22:11:17.124222,-3.815225,0.8386112,0.74416107,1.9978348,-2.447737,4.2080216
168,2024-05-15 22:11:17.139813,-3.789599,0.43051702,0.34119204,2.1468859,-3.12763,5.2800903
169,2024-05-15 22:11:17.192228,-3.400541,-0.34778157,-0.16400647,1.4743233,-3.5198054,6.8011446
170,2024-05-15 22:11:17.204958,-3.3121927,-0.4002539,-0.12813005,1.2464706,-3.7519343,6.915376
171,2024-05-15 22:11:17.220597,-3.4310482,-0.4846977,-0.029530926,0.9599747,-4.1764855,7.0784774
172,2024-05-15 22:11:17.241107,-3.3724744,-0.6165191,0.08029483,1.0577132,-4.428162,7.258072
173,2024-05-15 22:11:17.257029,-3.2030988,-0.6787537,0.071020655,1.2421945,-4.241237,7.3228235
174,2024-05-15 22:11:17.272738,-3.179181,-0.67997396,0.032703668,1.475545,-3.8276815,7.442553
175,2024-05-15 22:11:17.291794,-3.1918721,-0.6863195,-0.14252943,1.2385293,-4.147775,7.4175076
176,2024-05-15 22:11:17.307115,-3.101327,-0.65337175,-0.20647243,1.0571023,-4.5191813,7.41934
177,2024-05-15 22:11:17.322760,-2.8858244,-0.7426967,-0.03636453,1.1621711,-4.534453,7.4902005
178,2024-05-15 22:11:17.333509,-2.6542141,-0.79077595,0.09640261,1.5714508,-4.1954226,7.5940475
179,2024-05-15 22:11:17.345935,-2.6542141,-0.79077595,0.09640261,1.5714508,-4.1954226,7.5940475
180,2024-05-15 22:11:17.360158,-2.1858377,-1.016285,-0.12056428,2.4914138,-3.3169982,7.5720563
181,2024-05-15 22:11:17.374263,-1.9637456,-1.0040821,-0.281398,2.6019804,-3.1038063,7.393684
182,2024-05-15 22:11:17.389459,-1.5429909,-0.87961286,-0.6348234,2.182316,-2.941927,6.872005
183,2024-05-15 22:11:17.400399,-1.4350871,-0.85960007,-0.65239555,2.182316,-2.941927,6.872005
184,2024-05-15 22:11:17.424619,-1.4582726,-0.83641475,-0.5557489,1.3338243,-2.9205468,6.151795
185,2024-05-15 22:11:17.440209,-1.4084848,-0.85545117,-0.4170938,1.2385293,-2.7207937,6.228764
186,2024-05-15 22:11:17.457022,-1.1619871,-0.9164654,-0.35363895,1.5238034,-2.3005185,6.07788
187,2024-05-15 22:11:17.472967,-1.067781,-0.93843067,-0.41636166,1.6960673,-2.0677788,5.938603
188,2024-05-15 22:11:17.490949,-0.8849821,-1.0053023,-0.48640612,2.2159138,-1.4300356,5.678985
189,2024-05-15 22:11:17.506335,-0.5298788,-1.0987762,-0.84129584,2.1267273,-0.9786061,5.325905
190,2024-05-15 22:11:17.523947,-0.41538543,-1.2239777,-0.85398686,1.8359555,-0.92485,5.0504045
191,2024-05-15 22:11:17.539807,-0.04612682,-1.5229783,-0.8603323,1.6362026,-1.29198,4.5800385
192,2024-05-15 22:11:17.556052,0.22624107,-1.6386615,-0.84031963,1.5531249,-1.400714,4.3173666
193,2024-05-15 22:11:17.573723,0.5972386,-1.8617296,-0.7617332,1.2324207,-1.5106697,3.8237875
194,2024-05-15 22:11:17.589158,0.88302964,-1.9810737,-0.7468457,1.153619,-1.8264871,3.6118171
195,2024-05-15 22:11:17.603160,1.0184815,-2.0196347,-0.76319754,1.1884383,-1.7788396,3.4792593
196,2024-05-15 22:11:17.624084,1.1656479,-2.0093844,-0.8315336,1.3607023,-1.5296066,3.1634421
197,2024-05-15 22:11:17.638306,1.2120188,-1.9893718,-0.94868106,1.6038266,-0.9236283,2.77371
198,2024-05-15 22:11:17.654331,1.2276385,-2.046481,-1.0321486,1.7913623,-0.46914452,2.547079
199,2024-05-15 22:11:17.673497,1.4372836,-2.233429,-1.3857876,1.9507982,0.41172317,2.3815346
200,2024-05-15 22:11:17.688686,1.5795995,-2.293223,-1.5266391,1.756543,0.63346726,2.4261277
201,2024-05-15 22:11:17.707396,1.7397012,-2.3337364,-1.5888737,1.4712689,0.8185594,2.398028
202,2024-05-15 22:11:17.723463,2.301277,-2.3151882,-1.0050583,0.75716746,2.1099286,0.8977428
203,2024-05-15 22:11:17.740149,2.3798633,-2.249781,-0.8317776,1.0155635,2.434298,0.1109484
204,2024-05-15 22:11:17.756846,2.2200058,-2.0782084,-0.6453179,2.0528126,2.126422,-2.5365415
205,2024-05-15 22:11:17.773769,1.9881513,-2.0403795,-0.6999867,2.2385156,1.7605137,-3.38259
206,2024-05-15 22:11:17.789094,1.4670587,-1.8563606,-0.8747317,2.2299635,1.0512991,-4.6733484
207,2024-05-15 22:11:17.806232,1.2010362,-1.7453144,-0.9303767,2.0583105,0.8136725,-5.1577644
208,2024-05-15 22:11:17.823860,0.65312773,-1.5159005,-0.83373004,1.7510452,0.7519751,-5.758856
209,2024-05-15 22:11:17.839291,0.030751213,-1.2522882,-0.7954131,1.6893479,0.9718866,-5.798562
210,2024-05-15 22:11:17.856220,-0.15839316,-1.1097587,-0.7751563,1.5128077,1.3445144,-5.3929477
211,2024-05-15 22:11:17.873890,-0.3099527,-0.927204,-0.6675271,1.3729197,1.8497,-4.954346
212,2024-05-15 22:11:17.889091,-0.345341,-0.8664337,-0.56038594,1.50731,2.175902,-4.845001
213,2024-05-15 22:11:17.906753,-0.5123067,-0.735619,-0.5020563,1.5818355,2.180789,-4.8260646
214,2024-05-15 22:11:17.919770,-0.5123067,-0.735619,-0.5020563,1.6129897,2.1636846,-4.827897
215,2024-05-15 22:11:17.940769,-0.5969946,-0.6343353,-0.5540405,1.4266758,1.8796324,-4.92869
216,2024-05-15 22:11:17.954581,-0.56795174,-0.57624966,-0.5386648,1.2794572,1.6609426,-5.0563607
217,2024-05-15 22:11:17.969906,-0.57649374,-0.56721956,-0.46688148,1.1707232,1.5039502,-5.2414527
218,2024-05-15 22:11:17.990538,-0.7080406,-0.55965376,-0.24478942,1.3252722,1.59558,-5.504125
219,2024-05-15 22:11:18.006195,-0.7873592,-0.57624966,-0.16547081,1.5121969,1.7256943,-5.5334463
220,2024-05-15 22:11:18.023325,-0.8654575,-0.581863,-0.21281794,1.928807,1.6517797,-5.6391263
221,2024-05-15 22:11:18.040507,-0.7090168,-0.7261008,-0.41904628,1.928807,1.6517797,-5.6391263
222,2024-05-15 22:11:18.057226,-0.7783291,-0.8835178,-0.4651731,0.70096785,-0.63529986,-7.342829
223,2024-05-15 22:11:18.073663,-0.7783291,-0.8835178,-0.4651731,0.1957823,-1.0439687,-8.059985
224,2024-05-15 22:11:18.088932,-1.0650963,-0.9874862,-0.22062775,0.14630222,-0.93218035,-8.234081
225,2024-05-15 22:11:18.107119,-1.5234663,-1.1900537,-0.39415246,0.8915578,-0.38912117,-8.609764
226,2024-05-15 22:11:18.123206,-1.5908262,-1.4145863,-0.5184081,0.5928447,-0.63591075,-9.150379
227,2024-05-15 22:11:18.138883,-1.8378122,-1.6171844,-0.6645984,-0.00030543262,-0.838718,-10.54865
228,2024-05-15 22:11:18.154563,-2.2070708,-1.705533,-0.91402483,-0.55741453,-1.1252137,-11.188837
229,2024-05-15 22:11:18.173241,-3.4559422,-1.8695395,-0.7683227,-1.4682146,-0.66523224,-11.3000145
230,2024-05-15 22:11:18.188890,-4.575494,-1.5058943,-0.1210524,-0.9062186,2.2186625,-9.25606
231,2024-05-15 22:11:18.201708,-4.50911,-1.2635149,-0.12324891,-0.4120286,3.087313,-8.261571
232,2024-05-15 22:11:18.223631,-3.9865532,-0.6902244,-0.37706846,-0.8762862,2.1587977,-7.751498
233,2024-05-15 22:11:18.241597,-3.7427402,-0.3099527,-0.38219365,-3.0027082,-0.4990769,-7.4680567
234,2024-05-15 22:11:18.256788,-3.7529905,-0.27871338,0.07248501,-3.88663,-1.0262536,-7.1797285
235,2024-05-15 22:11:18.274161,-4.057818,0.20305562,1.442653,-2.831055,1.1722504,-5.294598
236,2024-05-15 22:11:18.290114,-3.802046,0.692909,1.387252,-0.50793445,2.8490756,-3.4974327
237,2024-05-15 22:11:18.305178,-3.6165624,0.88376176,1.1649158,-0.13591751,2.6597073,-3.0814333
238,2024-05-15 22:11:18.324042,-3.5575006,1.1107349,1.0565543,-0.5036584,1.0580186,-2.7527878
239,2024-05-15 22:11:18.339834,-3.730049,1.2691282,1.3728526,-0.77854776,-0.2773328,-1.9073504
240,2024-05-15 22:11:18.357018,-3.8474405,1.4140981,1.6596503,-0.65026605,-0.59620446,-1.3752867
241,2024-05-15 22:11:18.372314,-3.8811202,1.426301,1.7133428,-0.22693644,-0.6908886,-0.4602106
242,2024-05-15 22:11:18.390376,-3.9492123,1.4614452,1.8363477,0.5696318,-0.4990769,0.6283513
243,2024-05-15 22:11:18.405607,-3.9616594,1.4509509,1.7885126,0.9398162,-0.52778757,1.1146
244,2024-05-15 22:11:18.420739,-3.9616594,1.4509509,1.7885126,0.9398162,-0.52778757,1.1146
245,2024-05-15 22:11:18.440352,-3.9616594,1.4509509,1.7885126,0.9398162,-0.52778757,1.1146
246,2024-05-15 22:11:18.455476,-3.748109,0.8185985,1.0777874,2.060143,-2.8026497,4.025373
247,2024-05-15 22:11:18.473622,-3.403226,0.01415532,0.4385709,2.9135218,-3.0121765,5.669822
248,2024-05-15 22:11:18.490351,-3.2897391,-0.26504618,0.025870068,2.6477954,-3.0952542,6.1047583
249,2024-05-15 22:11:18.506038,-3.297061,-0.3392396,-0.12154051,2.2660046,-3.5112534,6.2666373
250,2024-05-15 22:11:18.523776,-3.2353144,-0.4471129,-0.054668825,1.724778,-4.1135664,6.44501
251,2024-05-15 22:11:18.539193,-3.2216473,-0.5376886,0.2711476,1.5195273,-4.154495,6.644152
252,2024-05-15 22:11:18.557423,-3.220915,-0.5301228,0.28383857,1.5800029,-4.0188823,6.64965
253,2024-05-15 22:11:18.576146,-3.2309213,-0.5301228,0.2518671,1.629483,-4.1331143,6.822525
254,2024-05-15 22:11:18.592794,-3.0471463,-0.62872195,0.10396838,1.68385,-4.5717154,6.909268
255,2024-05-15 22:11:18.607350,-2.8689845,-0.6465382,0.07248501,1.7608191,-4.768414,6.8793354
256,2024-05-15 22:11:18.622205,-2.5775802,-0.7016951,0.07248501,2.1700988,-4.6169195,6.8451266
257,2024-05-15 22:11:18.639996,-2.3627791,-0.70486784,0.0319715,2.4162774,-4.3982296,6.8274117
258,2024-05-15 22:11:18.656698,-1.9520309,-0.65288365,-0.2111095,2.5842655,-3.5790594,6.4535623
259,2024-05-15 22:11:18.672122,-1.8605094,-0.6421451,-0.36022848,2.3197608,-3.571118,6.192723
260,2024-05-15 22:11:18.689800,-1.5666645,-0.5840595,-0.4515059,2.0760255,-3.7452147,5.9550962
261,2024-05-15 22:11:18.705915,-1.472916,-0.50888985,-0.52450955,1.9740111,-3.694513,5.770615
262,2024-05-15 22:11:18.723242,-1.4555879,-0.4166057,-0.5652671,1.6612481,-3.499647,5.5183277
263,2024-05-15 22:11:18.738408,-1.4065324,-0.4253918,-0.48787045,1.5158621,-2.805704,5.5006123
264,2024-05-15 22:11:18.754490,-1.3557686,-0.4595598,-0.46590528,1.5158621,-2.805704,5.5006123
265,2024-05-15 22:11:18.773484,-1.2359364,-0.5447663,-0.4790844,1.6893479,-2.1868975,5.6502743
266,2024-05-15 22:11:18.789289,-1.2359364,-0.5447663,-0.4790844,1.6893479,-2.1868975,5.6502743
267,2024-05-15 22:11:18.806909,-1.2359364,-0.5447663,-0.4790844,1.6893479,-2.1868975,5.6502743
268,2024-05-15 22:11:18.823493,-0.7424526,-0.7239043,-0.52572984,1.7559321,-1.6713274,5.2965837
269,2024-05-15 22:11:18.840211,-0.48006064,-0.87546384,-0.25821257,2.5970936,-0.63529986,4.671057
270,2024-05-15 22:11:18.855947,-0.54256976,-0.9645447,-0.31581008,2.9856038,-0.37995818,4.614247
271,2024-05-15 22:11:18.873393,-0.26821893,-1.1780949,-0.59870297,3.2317827,-0.18875736,4.609971
272,2024-05-15 22:11:18.888242,0.030751213,-1.2928017,-0.6736285,3.2244523,0.057421334,4.451757
273,2024-05-15 22:11:18.906900,0.3141017,-1.3467383,-0.9564909,2.659402,0.39584067,4.1915283
274,2024-05-15 22:11:18.922428,0.5118186,-1.408729,-0.9189061,1.2305881,-0.07513642,4.187252
275,2024-05-15 22:11:18.939848,0.7841864,-1.6735615,-0.68656355,0.2134974,-0.8491027,4.44687
276,2024-05-15 22:11:18.955929,1.0838888,-1.8219483,-0.5742972,0.06261369,-0.8374963,4.345466
277,2024-05-15 22:11:18.973167,1.3084214,-1.9527631,-0.32850105,0.5329799,0.021380283,3.6551886
278,2024-05-15 22:11:18.988740,1.2505798,-2.0428202,-0.42002252,1.0375546,0.24495697,3.4499378
279,2024-05-15 22:11:19.004755,1.3035402,-2.1807125,-0.55696917,1.1560625,0.1441642,3.417562
280,2024-05-15 22:11:19.023389,1.7465347,-2.4123228,-0.8281168,1.099252,0.25961772,3.0388255
281,2024-05-15 22:11:19.038847,2.183397,-2.5722108,-0.84129584,0.59773165,0.52290064,2.1469622
282,2024-05-15 22:11:19.056841,2.4804149,-2.5783124,-0.340948,0.54092115,0.5815437,1.6741526
283,2024-05-15 22:11:19.072448,2.5216908,-2.5168097,-0.17328064,1.4688255,0.7244862,-0.20242546
284,2024-05-15 22:11:19.090646,2.4269662,-2.442342,-0.1969542,2.1071796,0.82711154,-1.1358275
285,2024-05-15 22:11:19.106309,1.9979136,-2.3095748,-0.4131889,2.8750372,0.7165449,-2.4656813
286,2024-05-15 22:11:19.121796,1.6652637,-2.2099996,-0.5523321,3.0283644,0.5326745,-3.1266375
287,2024-05-15 22:11:19.140127,1.6652637,-2.2099996,-0.5523321,3.0283644,0.5326745,-3.1266375
288,2024-05-15 22:11:19.155380,0.8617967,-1.8412288,-0.89401215,3.0283644,0.39767328,-3.3838117
289,2024-05-15 22:11:19.173456,0.4275883,-1.4223962,-0.93062085,2.0845776,0.5381723,-4.338594
290,2024-05-15 22:11:19.189162,0.09493827,-1.1654038,-0.8957206,1.9666806,0.9981538,-4.4577127
291,2024-05-15 22:11:19.206242,-0.07272906,-1.0502088,-0.93159705,1.8811595,1.1728612,-4.4094543
292,2024-05-15 22:11:19.222914,-0.15961345,-0.8427602,-0.91744167,1.5250251,1.4850134,-4.2365794
293,2024-05-15 22:11:19.240113,-0.1889003,-0.72927356,-0.68534327,1.2819008,1.6902641,-4.3269877
294,2024-05-15 22:11:19.256770,-0.24942651,-0.68753976,-0.4915313,1.3154984,1.7085901,-4.4687085
295,2024-05-15 22:11:19.272485,-0.260165,-0.6748488,-0.40708748,1.3997977,1.7281377,-4.565836
296,2024-05-15 22:11:19.290080,-0.41416514,-0.6526396,-0.30555966,1.6636915,1.7391334,-4.770476
297,2024-05-15 22:11:19.307094,-0.58869654,-0.5974827,-0.35949633,1.8964312,1.6041322,-4.6898417
298,2024-05-15 22:11:19.322279,-0.61041766,-0.6336031,-0.3572998,1.88849,1.5454891,-4.696561
299,2024-05-15 22:11:19.340068,-0.6079771,-0.6248171,-0.31385764,1.8628336,1.4526376,-4.7851367
300,2024-05-15 22:11:19.355737,-0.6343353,-0.6218884,-0.1398448,1.842675,0.69027776,-5.422269
301,2024-05-15 22:11:19.371226,-0.66899145,-0.6338472,-0.08322352,2.0033326,0.4147775,-5.7961187
302,2024-05-15 22:11:19.390062,-0.7863829,-0.667039,-0.073461235,2.273335,0.25900686,-6.1858506
303,2024-05-15 22:11:19.405406,-0.8693625,-0.6719201,-0.10909359,2.3661866,0.17104226,-6.343454
304,2024-05-15 22:11:19.423445,-1.0990202,-0.66093755,-0.32337585,2.3478606,-0.39095375,-6.758842
305,2024-05-15 22:11:19.439493,-1.1502724,-0.66825926,-0.41026023,2.1523838,-0.84299403,-7.08932
306,2024-05-15 22:11:19.456420,-1.2293469,-0.6933971,-0.46444094,1.7180585,-1.3610078,-7.706294
307,2024-05-15 22:11:19.473355,-1.2293469,-0.6933971,-0.46444094,1.7180585,-1.3610078,-7.706294
308,2024-05-15 22:11:19.488889,-1.425813,-0.61041766,-0.509378,1.2886202,-1.7030923,-8.278675
309,2024-05-15 22:11:19.507134,-2.6102839,-0.54086137,-0.183287,1.8671097,-0.5448918,-8.640918
310,2024-05-15 22:11:19.522343,-2.8423822,-0.19036464,-0.9850456,2.032654,-0.8051204,-8.614039
311,2024-05-15 22:11:19.538966,-3.119143,-0.10689708,-1.1146399,0.8604037,-1.8643607,-8.924359
312,2024-05-15 22:11:19.557031,-3.4832766,0.029774986,-0.6733844,-0.7431176,-1.7800614,-8.978726
313,2024-05-15 22:11:19.572286,-3.9328606,0.4463807,-0.24918245,-0.7449502,-0.29932398,-7.421631
314,2024-05-15 22:11:19.590025,-3.7464008,0.69412935,-0.1261776,-0.6881397,0.31337386,-6.444247
315,2024-05-15 22:11:19.606675,-3.2355585,0.83080137,-0.016839951,-0.87017757,0.7635816,-5.566433
316,2024-05-15 22:11:19.623430,-2.7110794,0.829337,0.24308102,-1.7498235,-0.105068825,-5.0936236
317,2024-05-15 22:11:19.638975,-2.4989936,1.1305037,0.56599927,-1.969735,-0.766025,-5.0740757
318,2024-05-15 22:11:19.656505,-3.1752763,1.4653502,1.0738825,-1.3142766,-0.5039638,-4.284227
319,2024-05-15 22:11:19.671792,-3.3458724,1.641346,1.0751027,-0.70096785,-0.030543262,-3.4577265
320,2024-05-15 22:11:19.687156,-3.3073113,1.8868676,0.85447496,-0.28008172,0.13622294,-2.7088056
321,2024-05-15 22:11:19.706620,-3.1723475,1.94837,0.7068203,-0.1255328,-0.4831944,-1.58237
322,2024-05-15 22:11:19.722273,-3.1723475,1.94837,0.7068203,-0.1255328,-0.4831944,-1.58237
323,2024-05-15 22:11:19.739760,-3.2768042,2.0418441,1.1370933,-0.1853976,-1.178359,-0.21036673
324,2024-05-15 22:11:19.755554,-3.289007,2.03379,1.2032328,0.9569204,-1.2211196,1.1396455
325,2024-05-15 22:11:19.772987,-3.2314095,1.8177994,0.8100565,1.3503176,-1.1917981,1.7230217
326,2024-05-15 22:11:19.788938,-3.1391559,1.6113269,0.66874737,1.6349808,-1.3151928,3.0162234
327,2024-05-15 22:11:19.806552,-3.1391559,1.6113269,0.66874737,1.6349808,-1.3151928,3.0162234
328,2024-05-15 22:11:19.822152,-2.9007118,0.9184179,0.48128092,2.0271564,-1.704314,5.0058117
329,2024-05-15 22:11:19.839883,-2.8777707,0.75416744,0.3162982,2.0674734,-1.9950858,5.384548
330,2024-05-15 22:11:19.855539,-2.7825882,0.65971726,0.17938207,1.8359555,-2.5014932,5.765728
331,2024-05-15 22:11:19.872971,-2.6561666,0.6728963,-0.11275445,1.5164729,-2.7433958,5.7907734
332,2024-05-15 22:11:19.887903,-2.7630637,0.8520344,-0.21379416,0.49754974,-3.196047,5.9575396
333,2024-05-15 22:11:19.906533,-2.7950351,0.841784,-0.12666571,0.2519819,-3.0628784,6.12003
334,2024-05-15 22:11:19.922162,-2.8077261,0.7746682,0.032703668,-0.10415252,-2.8832839,6.418132
335,2024-05-15 22:11:19.945531,-3.002972,0.400742,0.3316738,0.0852157,-3.50881,6.753497
336,2024-05-15 22:11:19.970366,-3.032503,0.19256116,0.37316352,0.45478916,-3.5369098,6.952639
337,2024-05-15 22:11:19.991311,-2.6468923,-0.29726174,0.17206036,1.7712038,-2.8447995,7.700949
338,2024-05-15 22:11:20.004552,-2.3967032,-0.43613032,-0.030751213,1.9459113,-2.6786442,7.773642
339,2024-05-15 22:11:20.021872,-1.9432448,-0.513771,-0.34851375,1.8805487,-2.4642303,7.5494547
340,2024-05-15 22:11:20.039485,-1.5603191,-0.47810817,-0.47127452,1.4144585,-2.362216,7.04488
341,2024-05-15 22:11:20.056143,-1.4585166,-0.47981656,-0.5391529,1.099252,-2.4697282,6.685691
342,2024-05-15 22:11:20.071702,-1.4014072,-0.46322066,-0.5977267,0.47311515,-2.7232373,6.1841707
343,2024-05-15 22:11:20.088839,-1.3301425,-0.5035206,-0.3824377,0.21044308,-2.4507914,5.8946204
344,2024-05-15 22:11:20.106482,-1.2403294,-0.5196284,-0.3277689,0.24709499,-2.180789,5.814597
345,2024-05-15 22:11:20.122133,-1.2403294,-0.5196284,-0.3277689,0.24709499,-2.180789,5.814597
346,2024-05-15 22:11:20.139767,-1.2403294,-0.5196284,-0.3277689,0.24709499,-2.180789,5.814597
347,2024-05-15 22:11:20.154985,-1.2403294,-0.5196284,-0.3277689,0.24709499,-2.180789,5.814597
348,2024-05-15 22:11:20.172154,-1.2403294,-0.5196284,-0.3277689,0.24709499,-2.180789,5.814597
349,2024-05-15 22:11:20.190261,-0.69534963,-0.633115,-0.5310991,1.0345002,-1.9840903,4.336914
350,2024-05-15 22:11:20.205484,-0.74489325,-0.7348869,-0.9865099,1.0778717,-2.0598376,4.3949466
351,2024-05-15 22:11:20.222661,-0.25040275,-0.8613085,-1.2398413,0.28252518,-1.5632042,4.7431397
352,2024-05-15 22:11:20.237779,-0.0017084008,-0.9252516,-1.2793787,-0.6704246,-1.2498302,4.2715516
353,2024-05-15 22:11:20.253439,0.44564855,-1.1109791,-1.004326,-0.9428705,-1.4147639,3.9441278
354,2024-05-15 22:11:20.273019,0.6572767,-1.3904246,-0.5293907,-0.83108217,-1.3713925,3.6301432
355,2024-05-15 22:11:20.289738,1.0890139,-1.5029656,-0.35046622,0.19639318,-0.7867944,3.525685
356,2024-05-15 22:11:20.306408,1.2786465,-1.4907322,-0.40318257,0.6264423,-0.4269948,3.1842115
357,2024-05-15 22:11:20.322972,1.2891409,-1.5207816,-0.49592432,1.0228939,-0.18875736,2.3375523
358,2024-05-15 22:11:20.338730,1.3484468,-1.6494,-0.33704305,1.3539828,-0.321926,2.0131829
359,2024-05-15 22:11:20.356143,1.3389286,-1.6830797,-0.35437113,1.88849,-0.14538592,1.7205783
360,2024-05-15 22:11:20.371851,1.2740093,-1.7030926,-0.38341394,2.2421808,-0.12095132,1.5525904
361,2024-05-15 22:11:20.387713,1.2205608,-1.7162715,-0.47688788,2.9721649,0.06047566,1.2544881
362,2024-05-15 22:11:20.403420,1.2498477,-1.7772858,-0.8183544,3.2336152,0.3286455,1.0889436
363,2024-05-15 22:11:20.422816,1.2264183,-1.7938818,-1.1324561,3.1383202,0.98654735,0.6625597
364,2024-05-15 22:11:20.438674,1.2242217,-1.7972987,-1.1805354,2.509129,1.0305296,0.7004334
365,2024-05-15 22:11:20.453898,1.5454315,-1.9185951,-1.017017,2.509129,1.0305296,0.7004334
366,2024-05-15 22:11:20.472065,1.858801,-1.9788772,-0.6912006,2.0589213,1.1001683,-0.13767375
367,2024-05-15 22:11:20.489476,1.8956536,-1.9708232,-0.57844615,2.1584923,1.0885619,-0.49808425
368,2024-05-15 22:11:20.505787,1.8490387,-1.9434888,-0.50059193,2.522568,0.91751957,-1.3875041
369,2024-05-15 22:11:20.521028,1.4880475,-1.7926615,-0.73927987,2.9226847,0.51923543,-2.6495516
370,2024-05-15 22:11:20.539666,1.4880475,-1.7926615,-0.73927987,2.9226847,0.51923543,-2.6495516
371,2024-05-15 22:11:20.555499,0.6890041,-1.3984785,-1.2749856,1.8768835,-0.100792766,-4.1455607
372,2024-05-15 22:11:20.572672,0.30116665,-1.0992644,-1.03825,1.1921035,0.5870415,-4.38502
373,2024-05-15 22:11:20.589429,0.11617125,-0.91378087,-0.83104545,1.3399329,1.5308284,-4.5896597
374,2024-05-15 22:11:20.604824,0.029530926,-0.8491057,-0.78809136,1.430341,1.7721201,-4.637307
375,2024-05-15 22:11:20.622604,-0.20354374,-0.69632584,-0.7868711,1.4114041,1.8032742,-4.8236213
376,2024-05-15 22:11:20.638659,-0.25528386,-0.65288365,-0.7570961,1.2067643,1.7208074,-4.9311333
377,2024-05-15 22:11:20.655296,-0.44930938,-0.66166973,-0.61237013,0.86651236,1.7849482,-5.0948453
378,2024-05-15 22:11:20.672925,-0.675581,-0.56063,-0.49543622,0.6765333,1.9352211,-4.78758
379,2024-05-15 22:11:20.688652,-0.58503574,-0.6133464,-0.3743838,0.6588182,2.243097,-4.8401146
380,2024-05-15 22:11:20.706277,-0.57063633,-0.5962624,-0.27383223,0.6728681,2.2351558,-5.035591
381,2024-05-15 22:11:20.721914,-0.61188203,-0.61237013,-0.102259986,0.74372846,1.6920967,-5.5413876
382,2024-05-15 22:11:20.739586,-0.6131023,-0.65410393,-0.08297946,0.7742717,0.9443977,-6.1950135
383,2024-05-15 22:11:20.756270,-0.71121335,-0.7261008,-0.16034561,0.63438356,0.5552765,-6.617732
384,2024-05-15 22:11:20.771443,-0.99139106,-0.8617967,-0.056377225,0.41325033,0.2828306,-7.262195
385,2024-05-15 22:11:20.789567,-1.0460598,-0.8361706,-0.034168016,0.46395215,0.47219884,-7.490048
386,2024-05-15 22:11:20.806311,-1.1446589,-0.8386112,-0.24771811,0.1872302,0.018325957,-8.111909
387,2024-05-15 22:11:20.821500,-1.0958476,-0.884494,-0.3133695,-0.5036584,-0.52778757,-9.331196
388,2024-05-15 22:11:20.839562,-1.6049815,-1.152957,0.071264714,-0.3827071,-0.14721853,-9.65862
389,2024-05-15 22:11:20.856109,-2.560252,-1.2107985,0.27139166,1.2782356,1.1960741,-9.592646
390,2024-05-15 22:11:20.871490,-2.7701414,-1.1202533,0.18182266,2.0906863,1.5552629,-9.293933
391,2024-05-15 22:11:20.889832,-3.1286614,-0.76539403,-0.60163164,3.1047225,1.8112154,-8.90359
392,2024-05-15 22:11:20.905181,-3.1293936,-0.72878546,-0.77100736,2.984993,1.6584991,-8.876712
393,2024-05-15 22:11:20.922639,-3.1359832,-0.6336031,-1.1510044,1.0253373,1.0341948,-9.270109
394,2024-05-15 22:11:20.938586,-4.168864,-0.3909797,-0.67777747,-1.6313156,-0.22357668,-9.421604
395,2024-05-15 22:11:20.956173,-4.460024,-0.19841854,-0.35974038,-2.055867,-0.22174409,-8.394739
396,2024-05-15 22:11:20.971343,-4.3548355,0.021232981,-0.041001618,-2.2079725,0.806953,-6.504722
397,2024-05-15 22:11:20.988533,-3.8247433,0.2889638,0.34070393,-2.2244658,1.1985176,-6.0777273
398,2024-05-15 22:11:21.004189,-3.267774,0.69510555,0.6589851,-2.0888536,1.4385877,-5.1461577
399,2024-05-15 22:11:21.022703,-3.1130416,1.0301962,0.91768575,-1.7779233,0.9211848,-4.741765
400,2024-05-15 22:11:21.038334,-3.3248835,1.3111061,0.9806526,-1.4223998,0.5888741,-3.7930913
401,2024-05-15 22:11:21.056491,-3.386386,1.3513755,1.0631438,-1.2928963,0.6945538,-3.2115476
402,2024-05-15 22:11:21.072386,-3.4276314,1.538598,1.2564372,-0.8481864,1.0952814,-1.9824868
403,2024-05-15 22:11:21.087243,-3.3685696,1.7021163,1.2142153,-0.7901542,0.59620446,-1.0441978
404,2024-05-15 22:11:21.106123,-3.4456918,1.790709,1.3752931,-1.1688906,-0.6640105,-0.20059288
405,2024-05-15 22:11:21.121308,-3.4669247,1.7807027,1.5637358,-1.1945469,-1.241889,0.3204752
406,2024-05-15 22:11:21.139446,-3.584835,1.555926,1.9022433,-0.37293324,-1.7464638,1.6173421
407,2024-05-15 22:11:21.156145,-3.5689712,1.4324025,1.8988264,0.3417791,-1.9205604,2.3406065
408,2024-05-15 22:11:21.171976,-3.5821502,1.085353,1.5361574,1.7785342,-2.406809,3.7627008
409,2024-05-15 22:11:21.188971,-3.4923065,0.6848551,0.8871786,2.413834,-3.1166344,4.7993393
410,2024-05-15 22:11:21.206169,-3.4024937,0.5442782,0.56624335,2.359467,-3.526525,5.121265
411,2024-05-15 22:11:21.221745,-3.4320247,0.38853914,0.3287451,2.1572707,-3.9241984,5.3503394
412,2024-05-15 22:11:21.239405,-3.403226,0.22306833,0.11983211,1.7376062,-4.361578,5.584301
413,2024-05-15 22:11:21.254549,-3.4791274,0.13227904,0.054424766,1.2623531,-4.362189,5.9550962
414,2024-05-15 22:11:21.272657,-3.535535,0.06272271,0.054424766,1.2623531,-4.362189,5.9550962
415,2024-05-15 22:11:21.289459,-3.3849216,-0.16766733,0.3018988,1.217149,-4.776966,6.826801
416,2024-05-15 22:11:21.306085,-3.4527695,-0.34192422,0.29311275,1.8029687,-5.1019464,7.110853
417,2024-05-15 22:11:21.321205,-3.4447155,-0.39756927,0.21989559,2.1138992,-5.269324,7.396738
418,2024-05-15 22:11:21.338898,-3.1581924,-0.52768224,0.11861181,2.712547,-5.277265,7.8500004
419,2024-05-15 22:11:21.354096,-2.8877769,-0.5110864,0.041977845,3.011871,-5.022534,7.963621
420,2024-05-15 22:11:21.372862,-2.512905,-0.4087959,-0.2506468,3.1425962,-3.876551,7.785859
421,2024-05-15 22:11:21.388051,-2.3727856,-0.35656762,-0.6194478,2.3796256,-3.6468656,7.525631
422,2024-05-15 22:11:21.406068,-2.3034732,-0.33020946,-0.62701356,2.0717494,-3.7446039,7.424838
423,2024-05-15 22:11:21.420971,-2.0176823,-0.41977844,-0.46956614,1.4920384,-3.785532,7.0375495
424,2024-05-15 22:11:21.439377,-1.8553842,-0.43930307,-0.3961049,1.5115861,-3.3689218,6.915376
425,2024-05-15 22:11:21.454754,-1.586189,-0.5396411,-0.42587993,1.6331482,-2.4055874,6.8322988
426,2024-05-15 22:11:21.472634,-1.221293,-0.6035841,-0.60041136,1.3112222,-2.179567,6.7663255
427,2024-05-15 22:11:21.488395,-0.70193917,-0.61749536,-0.5442782,0.94225967,-2.0299053,6.097428
428,2024-05-15 22:11:21.503992,-0.5325634,-0.60065544,-0.44345203,0.9263771,-1.8423696,5.55559
429,2024-05-15 22:11:21.522442,-0.6206681,-0.60065544,-0.504985,0.8775079,-1.8020525,4.547052
430,2024-05-15 22:11:21.538386,-0.7431848,-0.6775334,-0.607489,0.5164866,-1.9016235,4.2446737
431,2024-05-15 22:11:21.556390,-0.66142565,-0.74513733,-0.53475994,0.4370741,-1.6982054,4.2037454
432,2024-05-15 22:11:21.571992,-0.4339338,-0.7763766,-0.28969595,0.82253003,-0.95478237,4.010712
433,2024-05-15 22:11:21.588972,-0.20061506,-0.8793688,-0.36315718,1.357648,-0.70616025,3.671071
434,2024-05-15 22:11:21.604717,-0.0707766,-0.9345257,-0.38439015,1.5855007,-0.7611381,3.4022903
435,2024-05-15 22:11:21.620461,0.0370967,-1.1331884,-0.74367297,1.5525141,-0.516792,3.254461
436,2024-05-15 22:11:21.636333,0.16742326,-1.217388,-0.8874227,1.0797043,-0.25534168,3.3503668
437,2024-05-15 22:11:21.656391,0.22916976,-1.3135467,-0.8942563,1.0797043,-0.25534168,3.3503668
438,2024-05-15 22:11:21.672166,0.55086774,-1.4985726,-0.5047409,-0.23609942,0.15393804,3.9044216
439,2024-05-15 22:11:21.688258,0.8356825,-1.6293873,-0.12422514,-0.13530666,-0.27977628,3.5965455
440,2024-05-15 22:11:21.704128,0.91744167,-1.7316471,-0.09811102,0.3222314,-0.4642576,3.3277647
441,2024-05-15 22:11:21.722199,1.0011533,-1.8766171,-0.4515059,1.1969905,-0.46792278,2.7957013
442,2024-05-15 22:11:21.738258,1.0477682,-2.0057235,-0.8344623,1.1316279,-0.35002577,2.4548383
443,2024-05-15 22:11:21.756008,1.0965797,-2.0821135,-0.8449567,0.9428705,-0.35185838,2.4395666
444,2024-05-15 22:11:21.771147,1.4270333,-2.1731467,-0.7046238,0.93615097,-0.054367006,2.233705
445,2024-05-15 22:11:21.788229,1.7072414,-2.2104874,-0.6738726,1.104139,0.30848694,1.9643135
446,2024-05-15 22:11:21.805806,1.8609974,-2.233429,-0.7351309,1.2922854,0.9120218,1.3161855
447,2024-05-15 22:11:21.821389,2.1938915,-2.3205574,-0.6826586,0.75961095,0.7476991,0.48296532
448,2024-05-15 22:11:21.839223,2.3222656,-2.3290992,-0.5337837,0.6356053,0.59498274,-0.0045051314
449,2024-05-15 22:11:21.855164,2.2756507,-2.2959075,-0.07224095,1.4217888,0.42760566,-1.8804723
450,2024-05-15 22:11:21.872395,1.8722242,-2.140199,-0.23990828,2.7504208,0.45081854,-3.450396
451,2024-05-15 22:11:21.888205,1.2190965,-1.9232321,-0.7741801,3.238502,0.376293,-4.479704
452,2024-05-15 22:11:21.905879,0.82347965,-1.7409214,-1.0380061,3.0430253,0.1685988,-4.6819005
453,2024-05-15 22:11:21.921553,0.41196862,-1.3992107,-1.2561932,2.1126773,0.06719518,-4.6366963
454,2024-05-15 22:11:21.938263,0.22794947,-1.1551535,-0.9567349,1.6227635,0.7275405,-4.6794567
455,2024-05-15 22:11:21.955824,0.11373068,-1.068025,-0.8217713,1.7449366,1.1099422,-4.7136655
456,2024-05-15 22:11:21.972360,-0.21501444,-0.82299155,-0.884494,2.0265455,1.5302174,-4.7057242
457,2024-05-15 22:11:21.988560,-0.30873242,-0.7519709,-0.93525785,1.9306396,1.5430456,-4.6140943
458,2024-05-15 22:11:22.005847,-0.37487194,-0.6655746,-0.9874862,1.7095064,1.5008959,-4.5175776
459,2024-05-15 22:11:22.021964,-0.38439015,-0.6052925,-0.9794322,1.5384641,1.4923438,-4.482147
460,2024-05-15 22:11:22.037213,-0.40293851,-0.4639528,-0.71218956,1.0699304,1.7348573,-4.6483026
461,2024-05-15 22:11:22.056113,-0.46932206,-0.44735694,-0.5442782,1.0613784,1.7336355,-4.8303404
462,2024-05-15 22:11:22.071976,-0.52597386,-0.44735694,-0.34192422,1.2690725,1.8124372,-4.9274683
463,2024-05-15 22:11:22.088164,-0.6846111,-0.46785772,-0.28383857,1.5415184,1.8497,-4.804684
464,2024-05-15 22:11:22.105833,-0.6504431,-0.45419052,-0.26675457,1.6007724,1.8319849,-4.7344346
465,2024-05-15 22:11:22.121016,-0.66069347,-0.48323336,-0.14057697,1.847562,1.9004018,-4.8950925
466,2024-05-15 22:11:22.139140,-0.645806,-0.4983649,-0.088836834,2.1444426,1.6530013,-5.4295993
467,2024-05-15 22:11:22.154765,-0.6977902,-0.51669973,-0.058085624,2.264783,1.423316,-5.7228146
468,2024-05-15 22:11:22.172550,-0.78906757,-0.5213368,-0.051007964,2.427273,0.97066486,-6.2261677
469,2024-05-15 22:11:22.188104,-0.93843067,-0.55013555,-0.16986385,2.490803,0.34147367,-6.8376436
470,2024-05-15 22:11:22.206083,-1.2237335,-0.5967505,-0.6065128,2.0161607,-0.4343252,-7.8834453
471,2024-05-15 22:11:22.221520,-1.3740729,-0.5550167,-0.84031963,1.2409728,-1.1307116,-8.439943
472,2024-05-15 22:11:22.238650,-1.4250808,-0.50669336,-0.9806526,-0.7657196,-1.9785925,-9.527284
473,2024-05-15 22:11:22.255748,-2.3474035,-0.5884525,0.25894472,0.15974127,0.015271631,-9.589592
474,2024-05-15 22:11:22.272390,-2.3474035,-0.5884525,0.25894472,0.15974127,0.015271631,-9.589592
475,2024-05-15 22:11:22.288545,-3.500147,-0.18109047,-0.72195184,2.9000828,1.4569136,-8.735602
476,2024-05-15 22:11:22.305750,-3.6900234,-0.044662476,-0.9906589,2.3747387,1.0415252,-8.557229
477,2024-05-15 22:11:22.321146,-3.5877635,0.31532198,-1.0277556,0.93431836,0.39767328,-8.15528
478,2024-05-15 22:11:22.338552,-3.4156728,0.3585201,-0.7583164,-1.1316279,-0.35796702,-7.5065413
479,2024-05-15 22:11:22.353740,-3.2301893,0.2489384,0.09835507,-1.4669929,0.07696902,-6.9475994
480,2024-05-15 22:11:22.372378,-3.0854633,0.2660224,0.422219,-0.23976462,1.1991285,-5.9237895
481,2024-05-15 22:11:22.388099,-2.674471,0.41099238,0.3900035,0.22632557,1.4239268,-5.6098046
482,2024-05-15 22:11:22.405652,-2.6678813,0.67850965,-0.22599702,-0.06078109,0.20097467,-5.4601426
483,2024-05-15 22:11:22.421058,-3.050563,0.83080137,-0.09542638,-1.4309518,-0.38423425,-4.9439616
484,2024-05-15 22:11:22.438887,-3.1379356,0.8644812,0.17962612,-1.6526959,-0.25717425,-4.6305876
485,2024-05-15 22:11:22.454565,-3.1804013,1.1932263,0.7671024,-1.4126259,0.45265114,-3.4992652
486,2024-05-15 22:11:22.471839,-3.3944397,1.5295677,0.8598442,-0.9300423,0.07574729,-2.2518783
487,2024-05-15 22:11:22.487007,-3.403958,1.5922905,0.9779679,-0.8542951,-0.4288274,-1.5884787
488,2024-05-15 22:11:22.505482,-3.2233558,1.6137675,1.2701045,-0.21899518,-0.8063421,-0.4095088
489,2024-05-15 22:11:22.522655,-3.2140813,1.5373777,1.1146399,1.0051788,-0.71837753,1.0437397
490,2024-05-15 22:11:22.537977,-3.0644743,1.3860316,0.7375715,1.5873333,-1.1655309,2.1768947
491,2024-05-15 22:11:22.555135,-2.97759,1.2732772,0.6487347,1.715615,-1.368949,2.5617397
492,2024-05-15 22:11:22.571353,-2.7152286,0.9689378,0.44101146,2.195755,-1.5143349,3.5910478
493,2024-05-15 22:11:22.592405,-2.401096,0.81566983,0.12715383,2.5384505,-1.1520919,4.2623887
494,2024-05-15 22:11:22.609048,-2.3581421,0.73000574,-0.036120474,2.5152376,-1.0671816,4.5024586
495,2024-05-15 22:11:22.624994,-2.3437426,0.65312773,-0.42783237,1.8719965,-1.3884968,4.92701
496,2024-05-15 22:11:22.639771,-2.5492694,0.61163795,-0.5298788,0.84513205,-1.8576412,5.339955
497,2024-05-15 22:11:22.656350,-2.362291,0.5813749,-0.4002539,-0.15241088,-2.3878722,5.857969
498,2024-05-15 22:11:22.671939,-2.216101,0.5557489,-0.22526483,-0.47678033,-2.3988678,5.8280363
499,2024-05-15 22:11:22.687588,-2.3078663,0.5891847,0.0036608586,-1.0137309,-2.8545732,5.4132586
500,2024-05-15 22:11:22.705252,-2.4699204,0.58698815,0.0370967,-1.2110404,-3.1984904,5.3637786
501,2024-05-15 22:11:22.721937,-2.7276752,0.5403732,0.36291313,-1.2812898,-3.7366626,5.806656
502,2024-05-15 22:11:22.736989,-2.7245026,0.48957884,0.5835714,-0.9080512,-3.6089919,6.1017036
503,2024-05-15 22:11:22.752552,-2.6752028,0.49006698,0.5635587,-0.38698313,-3.3554828,6.347272
504,2024-05-15 22:11:22.769794,-2.738658,0.409284,0.18157859,0.040011674,-3.9950588,6.517703
505,2024-05-15 22:11:22.785436,-2.738658,0.409284,0.18157859,0.040011674,-3.9950588,6.517703
506,2024-05-15 22:11:22.801565,-2.3974354,0.20476402,0.123004854,0.1853976,-5.0652947,6.704628
507,2024-05-15 22:11:22.817275,-2.2841928,0.17547716,0.016595893,0.44806966,-5.1819696,6.7144017
508,2024-05-15 22:11:22.835903,-1.9935206,-0.020012695,-0.19988288,0.569021,-4.681671,6.753497
509,2024-05-15 22:11:22.851511,-1.6083983,-0.16644704,-0.26504618,0.5708536,-3.6438112,6.573292
510,2024-05-15 22:11:22.869919,-1.6083983,-0.16644704,-0.26504618,0.5708536,-3.6438112,6.573292
511,2024-05-15 22:11:22.884409,-1.3428334,-0.456143,-0.32581642,0.3912592,-3.5851681,6.123084
512,2024-05-15 22:11:22.900252,-0.9921232,-0.5105983,-0.23600335,0.42852196,-3.3512068,5.8097105
513,2024-05-15 22:11:22.919667,-0.9433118,-0.55867755,-0.14057697,0.7357872,-2.6187794,5.3460636
514,2024-05-15 22:11:22.935534,-0.9264718,-0.5555048,-0.15424417,0.8750645,-2.4019222,5.1792974
515,2024-05-15 22:11:22.952340,-1.0331249,-0.5332956,-0.41026023,0.70341134,-2.7250698,5.014364
516,2024-05-15 22:11:22.967567,-0.7883354,-0.5110864,-0.4356422,0.19761491,-2.9852984,4.8518734
517,2024-05-15 22:11:22.983820,-0.6572767,-0.5293907,-0.36852646,-0.00580322,-2.9339857,4.5977535
518,2024-05-15 22:11:23.002738,-0.4356422,-0.6050484,-0.18109047,0.23060162,-2.8270843,3.9917753
519,2024-05-15 22:11:23.017898,-0.28335047,-0.62701356,-0.04515059,0.7058548,-2.6132815,3.5769978
520,2024-05-15 22:11:23.033793,-0.1244692,-0.7588045,0.06638357,2.413834,-1.9120082,2.8250227
521,2024-05-15 22:11:23.052613,-0.46273252,-1.0497208,-0.52597386,3.6490035,-1.572978,2.913598
522,2024-05-15 22:11:23.068690,-0.32166746,-1.23374,-0.8637491,3.7669005,-1.6737708,3.2825608
523,2024-05-15 22:11:23.085644,0.30946457,-1.3894484,-1.0528934,3.510948,-1.2718215,3.2624023
524,2024-05-15 22:11:23.101022,0.5269501,-1.6320719,-1.059483,2.4297166,-1.1630874,2.8060858
525,2024-05-15 22:11:23.119191,0.5515999,-1.6657517,-1.0084751,2.1493294,-1.3267993,2.8573985
526,2024-05-15 22:11:23.134808,0.60089946,-1.7999833,-0.96918184,1.8371773,-1.599856,3.1341205
527,2024-05-15 22:11:23.152992,0.9884624,-2.1221387,-0.9874862,1.9544634,-1.6096299,3.5177438
528,2024-05-15 22:11:23.168091,1.5317643,-2.26418,-1.2720569,1.8603901,-0.44532076,3.1933744
529,2024-05-15 22:11:23.185491,1.7460465,-2.3432548,-1.1073182,1.3509285,0.14049901,2.605722
530,2024-05-15 22:11:23.201400,1.9295776,-2.3613148,-0.9725986,1.3509285,0.14049901,2.605722
531,2024-05-15 22:11:23.219081,2.0957806,-2.2951753,-0.93891877,1.6630806,0.56138515,1.4401911
532,2024-05-15 22:11:23.234671,2.0723512,-2.186814,-1.1541772,1.8023579,1.0677924,-0.31848988
533,2024-05-15 22:11:23.252460,2.0689342,-2.1194541,-1.1732137,1.4364496,0.9877691,-0.8071821
534,2024-05-15 22:11:23.269082,2.0689342,-2.1194541,-1.1732137,1.4364496,0.9877691,-0.8071821
535,2024-05-15 22:11:23.284711,2.0689342,-2.1194541,-1.1732137,1.4364496,0.9877691,-0.8071821
536,2024-05-15 22:11:23.300403,2.0689342,-2.1194541,-1.1732137,1.4364496,0.9877691,-0.8071821
537,2024-05-15 22:11:23.318749,0.74172044,-1.3940855,-0.79858583,1.6777414,1.7269161,-4.154113
538,2024-05-15 22:11:23.333738,0.57844615,-1.2888968,-0.8710708,1.6398678,1.8032742,-4.138841
539,2024-05-15 22:11:23.352276,0.2936009,-1.0121359,-0.9757714,1.1578951,1.9028453,-3.9458077
540,2024-05-15 22:11:23.367790,0.22453266,-0.87961286,-0.7592926,0.9068295,2.0415115,-3.881056
541,2024-05-15 22:11:23.383703,0.19890666,-0.79785365,-0.5745413,0.95203346,2.3921483,-3.903047
542,2024-05-15 22:11:23.402408,0.15668476,-0.75343525,-0.50010383,1.1340714,2.4636195,-3.948862
543,2024-05-15 22:11:23.417516,0.05222825,-0.6653306,-0.51596755,1.5806139,2.4275784,-4.121126
544,2024-05-15 22:11:23.435768,-0.06321083,-0.6340912,-0.55892164,1.7095064,2.1410828,-4.3593636
545,2024-05-15 22:11:23.451283,-0.22013964,-0.57576156,-0.5742972,1.5567901,1.8240436,-4.402124
546,2024-05-15 22:11:23.468162,-0.19085276,-0.50913393,-0.43979117,1.4010195,1.6896533,-4.551786
547,2024-05-15 22:11:23.484682,-0.18206671,-0.49446,-0.39659303,1.4016303,1.6578883,-4.7484846
548,2024-05-15 22:11:23.500311,-0.336799,-0.4829893,-0.32117933,1.4291192,1.4129313,-5.0917907
549,2024-05-15 22:11:23.518820,-0.47078642,-0.48909074,-0.30092257,1.3759739,1.0598512,-5.38073
550,2024-05-15 22:11:23.534618,-0.6433654,-0.50962204,-0.277005,1.3185526,0.95172805,-5.4485364
551,2024-05-15 22:11:23.550313,-0.69583774,-0.48176903,-0.22526483,1.3142766,0.94134337,-5.476025
552,2024-05-15 22:11:23.568834,-0.7688108,-0.41880223,-0.19060871,1.3313808,0.79045963,-5.9017982
553,2024-05-15 22:11:23.584598,-0.7983418,-0.42636803,-0.20988922,1.1872166,0.26267207,-6.33368
554,2024-05-15 22:11:23.601258,-0.83787906,-0.4737151,-0.23819989,1.0137309,-0.06841691,-6.646443
555,2024-05-15 22:11:23.618919,-1.477309,-0.5584335,0.0976229,0.9764681,0.080634214,-7.7093487
556,2024-05-15 22:11:23.634461,-1.5532414,-0.5579454,0.12715383,1.0186177,0.1337795,-7.7099595
557,2024-05-15 22:11:23.651372,-1.8356155,-0.50010383,0.051007964,2.173764,0.8332202,-7.240204
558,2024-05-15 22:11:23.666471,-1.7428739,-0.4515059,-0.03929322,2.4333818,0.76052725,-7.24448
559,2024-05-15 22:11:23.685605,-1.7043128,-0.4217309,-0.25479576,2.8499918,0.70005155,-7.7362266
560,2024-05-15 22:11:23.700321,-1.8368357,-0.34656128,-0.38268176,2.9391782,0.48441613,-8.348313
561,2024-05-15 22:11:23.718931,-2.2444115,-0.16498269,-0.82714057,2.6972754,0.19853121,-8.4656
562,2024-05-15 22:11:23.734574,-2.9365883,0.12837411,-1.3523518,0.81397796,-0.9486737,-8.386188
563,2024-05-15 22:11:23.750127,-3.211885,0.4036707,-0.86570156,-1.4413365,-0.6389651,-7.6140537
564,2024-05-15 22:11:23.769161,-3.1657581,0.5459866,-0.052472305,-1.9929478,0.19242255,-6.70081
565,2024-05-15 22:11:23.784535,-3.0969338,0.65312773,0.27895743,-1.9110919,0.42332962,-6.35506
566,2024-05-15 22:11:23.802189,-3.2768042,0.8952325,0.53451586,-1.6777414,0.11301007,-5.74053
567,2024-05-15 22:11:23.818778,-3.3287883,1.217632,0.6223765,-1.5225816,-0.68477994,-4.6531897
568,2024-05-15 22:11:23.834548,-3.3209784,1.3821267,0.7871151,-1.3381003,-0.45142943,-4.018501
569,2024-05-15 22:11:23.851943,-3.3651528,1.7580053,0.9294005,-0.464563,0.28344148,-2.6043477
570,2024-05-15 22:11:23.867888,-3.387118,1.8358595,0.85398686,-0.14508049,0.3549127,-1.6978236
571,2024-05-15 22:11:23.883559,-3.1376915,1.8397646,0.8273846,-0.14263703,-0.10323623,-0.61964643
572,2024-05-15 22:11:23.902107,-3.0178595,1.7279862,0.89718497,-0.21594086,-0.8875872,0.20318905
573,2024-05-15 22:11:23.917396,-2.9976027,1.5461637,1.0682691,-0.026572637,-1.3084733,0.8122217
574,2024-05-15 22:11:23.934455,-2.9539163,1.5234663,1.0160408,0.6753115,-1.4697418,1.6863699
575,2024-05-15 22:11:23.952200,-2.9170637,1.4975657,0.8959646,1.0216721,-1.4544702,2.0877082
576,2024-05-15 22:11:23.967377,-3.0173714,1.2352042,0.23917611,1.026559,-1.9431623,3.812181
577,2024-05-15 22:11:23.983209,-2.947571,1.15735,0.19915071,0.91721416,-2.0457878,4.0595813
578,2024-05-15 22:11:24.002126,-2.67984,0.87277925,0.24967057,0.59223384,-2.266921,4.919069
579,2024-05-15 22:11:24.017802,-2.615653,0.78906757,0.25089085,0.5348125,-2.403144,5.0186396
580,2024-05-15 22:11:24.035389,-2.5973487,0.7422086,0.22428861,0.4083634,-2.7299569,5.0986633
581,2024-05-15 22:11:24.050641,-2.451128,0.48909074,0.38316986,0.07727446,-3.5057557,5.289864
582,2024-05-15 22:11:24.068511,-2.340814,0.19134088,0.81664604,-0.30695978,-2.8435776,5.742515
583,2024-05-15 22:11:24.085438,-2.340814,0.19134088,0.81664604,-0.30695978,-2.8435776,5.742515
584,2024-05-15 22:11:24.100798,-2.340814,0.19134088,0.81664604,-0.33750305,-2.8301387,5.7590084
585,2024-05-15 22:11:24.118243,-2.446979,0.21135357,1.3167193,0.72173727,-4.9938235,5.212895
586,2024-05-15 22:11:24.134887,-3.0783856,0.13496366,0.77906126,2.214081,-5.8911843,5.1450887
587,2024-05-15 22:11:24.150540,-3.212861,0.058573738,-0.11495096,2.9813278,-5.554598,6.0308433
588,2024-05-15 22:11:24.167262,-2.6849651,-0.03099527,-0.7158504,2.7064385,-4.8521028,6.5928397
589,2024-05-15 22:11:24.184092,-2.3940187,-0.041977845,-0.94087124,2.2446244,-4.682282,6.572681
590,2024-05-15 22:11:24.201035,-1.9212795,-0.19719826,-0.96918184,1.2971723,-4.7378707,6.2281528
591,2024-05-15 22:11:24.216278,-1.6376853,-0.28164205,-0.794925,1.0577132,-4.6859474,5.86591
592,2024-05-15 22:11:24.234425,-1.4614452,-0.37096703,-0.7068203,1.2788464,-4.338976,5.5464272
593,2024-05-15 22:11:24.252058,-1.2320315,-0.41196862,-0.76319754,1.5384641,-3.7366626,5.503667
594,2024-05-15 22:11:24.267172,-1.1617429,-0.4842096,-0.74440515,1.679574,-3.3084462,5.5109973
595,2024-05-15 22:11:24.285278,-1.0421549,-0.5657552,-0.616031,1.997224,-2.5045476,5.61912
596,2024-05-15 22:11:24.300966,-0.77271575,-0.6750929,-0.53622425,2.4596488,-1.5393804,5.6313376
597,2024-05-15 22:11:24.319968,-0.63604367,-0.7605129,-0.50840175,2.6514606,-0.9877691,5.3509502
598,2024-05-15 22:11:24.335301,-0.7058441,-0.7773528,-0.62847793,2.4926357,-0.93401295,5.311244
599,2024-05-15 22:11:24.352104,-0.7058441,-0.7773528,-0.62847793,2.4926357,-0.93401295,5.311244
600,2024-05-15 22:11:24.367263,-0.522069,-0.8039551,-0.49104318,1.4517213,-1.0231993,5.1884604
601,2024-05-15 22:11:24.383363,-0.522069,-0.8039551,-0.49104318,1.4517213,-1.0231993,5.1884604
602,2024-05-15 22:11:24.402636,-0.25137895,-0.95941955,-0.09469421,1.8952094,-0.81000733,4.5659885
603,2024-05-15 22:11:24.418318,-0.15400012,-1.1392897,-0.1381364,3.1645875,-0.35185838,3.9086976
604,2024-05-15 22:11:24.435364,-0.30116665,-1.2984151,-0.4166057,3.397938,-0.3640757,4.2232933
605,2024-05-15 22:11:24.450626,-0.032215554,-1.5654442,-1.1068301,2.9098566,-0.3885103,4.420603
606,2024-05-15 22:11:24.468874,0.36852646,-1.8265854,-1.0499648,1.5879441,-0.24617869,4.374788
607,2024-05-15 22:11:24.484387,0.45052966,-1.9803414,-0.88986325,1.2867876,-0.22968534,4.2318454
608,2024-05-15 22:11:24.502159,0.85911196,-2.3032293,-0.8691184,1.2886202,-0.08002335,4.1072288
609,2024-05-15 22:11:24.517795,1.3006115,-2.5011902,-1.08096,1.1139128,0.29565877,3.6002107
610,2024-05-15 22:11:24.534851,1.3767574,-2.5812411,-1.2147034,0.6582073,0.15760323,3.4694855
611,2024-05-15 22:11:24.550861,1.490244,-2.6322489,-1.2500917,-0.31490102,-0.15393804,3.5201874
612,2024-05-15 22:11:24.568626,2.3808393,-2.9522078,-0.70340353,-0.80664754,0.46914452,2.728506
613,2024-05-15 22:11:24.585299,2.6217544,-2.931219,-0.33313814,-0.32467487,1.0812315,1.8965075
614,2024-05-15 22:11:24.600723,2.7740462,-2.734997,0.031483386,1.702176,1.6829338,-0.6654613
615,2024-05-15 22:11:24.618799,2.4359963,-2.5795326,-0.23161033,2.8414397,1.1343768,-2.8554132
616,2024-05-15 22:11:24.634302,2.1841292,-2.5248637,-0.3607166,2.9709432,0.86559606,-3.476663
617,2024-05-15 22:11:24.652019,1.4265451,-2.2510011,-0.5630706,2.957504,0.15943582,-4.3905177
618,2024-05-15 22:11:24.666757,1.1209855,-2.0740595,-0.6492228,2.9843822,0.014660766,-4.678235
619,2024-05-15 22:11:24.685638,0.7595367,-1.7826552,-0.8625288,2.934902,0.43249258,-5.0429215
620,2024-05-15 22:11:24.701439,0.5830833,-1.6320719,-0.90792346,2.8835895,0.9633345,-5.3605714
621,2024-05-15 22:11:24.716592,0.12349297,-1.3674833,-0.9088997,2.9367347,1.0366384,-5.439373
622,2024-05-15 22:11:24.735490,-0.19646609,-1.0670488,-1.1178128,2.9562824,0.9138544,-5.217629
623,2024-05-15 22:11:24.750882,-0.25796852,-0.9130486,-1.2237335,2.6416867,0.87598073,-5.0337586
624,2024-05-15 22:11:24.766155,-0.27773714,-0.7239043,-1.1292834,1.8860464,1.0366384,-4.7319913
625,2024-05-15 22:11:24.784936,-0.19548985,-0.6050484,-0.7239043,1.2556335,1.572978,-4.374635
626,2024-05-15 22:11:24.800879,-0.13935669,-0.6343353,-0.46322066,1.239751,1.7965547,-4.302553
627,2024-05-15 22:11:24.818053,-0.10177187,-0.6426332,-0.38561043,1.4676038,1.9847012,-4.332485
628,2024-05-15 22:11:24.833182,-0.10177187,-0.6426332,-0.38561043,1.4676038,1.9847012,-4.332485
629,2024-05-15 22:11:24.851698,-0.32728076,-0.5742972,-0.31703037,1.4718798,1.4355333,-4.594547
630,2024-05-15 22:11:24.867502,-0.36901456,-0.5464747,-0.26114124,1.3747523,1.314582,-4.5322385
631,2024-05-15 22:11:24.885173,-0.35071027,-0.54964745,-0.18841219,1.2281445,1.1716396,-4.531017
632,2024-05-15 22:11:24.900381,-0.48738232,-0.6253052,-0.013667206,1.3955216,1.1673635,-4.66052
633,2024-05-15 22:11:24.918130,-0.56063,-0.6231087,0.05027579,1.5732834,1.1203269,-4.683122
634,2024-05-15 22:11:24.934636,-0.58723223,-0.5965064,0.008053889,1.8078557,0.97433007,-4.7368784
635,2024-05-15 22:11:24.950416,-0.8183544,-0.447601,-0.29018408,1.9477439,-0.0067195175,-5.163262
636,2024-05-15 22:11:24.968484,-0.8527665,-0.48054874,-0.4036707,1.6300939,-0.8399397,-5.8749204
637,2024-05-15 22:11:24.984169,-1.0406905,-0.5413495,-0.30043447,1.7107282,-0.7825184,-6.33368
638,2024-05-15 22:11:25.001697,-1.3996987,-0.58601195,-0.28725538,2.0570886,-0.27183503,-6.777779
639,2024-05-15 22:11:25.016977,-1.5669085,-0.46248847,-0.33582276,1.9208658,-0.38056904,-6.7631183
640,2024-05-15 22:11:25.033135,-1.494149,-0.4898229,-0.33582276,1.7779233,-0.675617,-6.8608565
641,2024-05-15 22:11:25.052222,-1.5097991,-0.66899145,-0.37999713,1.5115861,-1.3518448,-8.085031
642,2024-05-15 22:11:25.068832,-2.3147,-0.91109616,-0.54208165,1.0418307,-2.0567832,-9.373957
643,2024-05-15 22:11:25.084689,-2.3147,-0.91109616,-0.54208165,1.0418307,-2.0567832,-9.373957
644,2024-05-15 22:11:25.100759,-2.8443346,-0.97552735,-0.45297024,0.8481864,-1.8808541,-9.462532
645,2024-05-15 22:11:25.117553,-3.343432,-0.51743186,-0.04515059,1.3594806,-0.4801401,-8.471097
646,2024-05-15 22:11:25.134173,-2.8074822,-0.14106509,-0.5808867,3.1181617,0.7049385,-7.072216
647,2024-05-15 22:11:25.151465,-2.7430508,-0.16180995,-1.0526494,2.6526823,0.3304781,-7.3019013
648,2024-05-15 22:11:25.167012,-2.9575772,-0.10884953,-1.1507604,0.59773165,-1.251052,-8.036161
649,2024-05-15 22:11:25.185412,-3.4349532,0.22135992,-0.66069347,-1.1334605,-2.2174408,-7.9982877
650,2024-05-15 22:11:25.200622,-3.6973453,0.6250611,-0.2762728,-1.3130548,-0.99265605,-6.7618966
651,2024-05-15 22:11:25.217420,-3.700274,0.8422721,-0.114462845,-1.3472633,-0.07513642,-5.969604
652,2024-05-15 22:11:25.233077,-3.513082,0.94599634,0.067847915,-1.6398678,0.19120082,-4.923192
653,2024-05-15 22:11:25.251191,-2.999799,1.2371567,0.72243994,-1.5384641,0.08735373,-4.211534
654,2024-05-15 22:11:25.267744,-3.305359,1.7079737,0.7683227,-0.5488624,-0.28221974,-3.6275468
655,2024-05-15 22:11:25.284049,-3.6065557,1.859045,0.7348869,-0.35216382,-0.44165558,-3.2170455
656,2024-05-15 22:11:25.301534,-4.1544647,2.1709502,0.6428773,-0.07544186,-0.6291912,-1.2793809
657,2024-05-15 22:11:25.317393,-4.114683,2.2649121,0.66874737,0.027183503,-0.5888741,-0.3600287
658,2024-05-15 22:11:25.335076,-3.9040618,2.1448362,0.6062687,0.19150625,-1.0445796,1.5867988
659,2024-05-15 22:11:25.351226,-3.6465814,1.6523286,0.7273211,0.5861252,-1.5161675,3.0852513
660,2024-05-15 22:11:25.366802,-3.50454,1.2561932,0.35437113,1.0870347,-1.6737708,3.9044216
661,2024-05-15 22:11:25.384921,-3.4290957,1.1610109,0.05686534,1.5231925,-1.8869628,5.2458816
662,2024-05-15 22:11:25.400148,-3.1323223,0.94306767,-0.31312546,1.054048,-1.7696766,5.8494167
663,2024-05-15 22:11:25.417368,-3.1245124,0.92085856,-0.33875147,0.91782504,-1.704925,5.8860683
664,2024-05-15 22:11:25.434471,-3.1630735,0.64897877,-0.3585201,-0.22815818,-2.1160371,6.149351
665,2024-05-15 22:11:25.466759,-3.516987,0.4971446,-0.08175918,-0.46028697,-2.2461514,6.3717065
666,2024-05-15 22:11:25.485097,-3.7034469,0.36291313,-0.024405725,-0.29352075,-2.3041837,6.744945
667,2024-05-15 22:11:25.501125,-3.5941093,0.0605262,-0.11275445,0.0571159,-2.8820622,7.4956985
668,2024-05-15 22:11:25.517376,-3.357343,-0.2362474,-0.18938842,0.08277224,-3.3884695,7.8933716
669,2024-05-15 22:11:25.534162,-3.2318976,-0.29091623,-0.25650415,0.08582657,-3.599829,7.909254
670,2024-05-15 22:11:25.549841,-3.0007753,-0.43832684,-0.28408262,0.016187929,-3.8899899,7.909865
671,2024-05-15 22:11:25.567867,-2.7454915,-0.6070009,-0.21794313,0.060170226,-3.6975672,7.929413
672,2024-05-15 22:11:25.583244,-2.5487814,-0.63775206,-0.3385074,0.03940081,-3.4843755,8.049142
673,2024-05-15 22:11:25.600549,-2.0801609,-0.75343525,-0.39488465,-0.28130344,-3.6114354,7.6313105
674,2024-05-15 22:11:25.618133,-1.8514794,-0.7343987,-0.36315718,-0.4089743,-3.3585372,7.0833645
675,2024-05-15 22:11:25.637543,-1.692842,-0.73879176,-0.3773125,-0.45845437,-3.2705724,6.8329096
676,2024-05-15 22:11:25.653619,-1.4575404,-0.7285414,-0.3214234,-0.505491,-3.1581733,6.445621
677,2024-05-15 22:11:25.669930,-1.3787099,-0.7771088,-0.19256116,-0.16218472,-2.9901853,6.011296
678,2024-05-15 22:11:25.684343,-1.4128779,-0.8256762,-0.18450728,0.21960606,-2.8716774,5.952042
679,2024-05-15 22:11:25.703703,-1.2757177,-0.8710708,-0.22965786,0.7504479,-2.7629435,6.018626
680,2024-05-15 22:11:25.719363,-1.0519172,-0.9474607,-0.4148973,1.412015,-2.4037547,5.869575
681,2024-05-15 22:11:25.737504,-1.0004212,-0.9381865,-0.47273886,1.897042,-1.922393,5.8799596
682,2024-05-15 22:11:25.753489,-0.85447496,-1.0311724,-0.57844615,2.0619757,-1.7324139,5.8988967
683,2024-05-15 22:11:25.768896,-0.5730769,-1.1641835,-0.6526396,2.4333818,-1.3243558,5.8182626
684,2024-05-15 22:11:25.787388,-0.1181237,-1.5398183,-0.8617967,2.7980683,-0.8539896,5.462128
685,2024-05-15 22:11:25.803359,-0.010006348,-1.6130353,-1.0690013,2.7693577,-0.59681535,5.2953615
686,2024-05-15 22:11:25.819055,0.032459613,-1.6701448,-1.2864562,2.331978,-0.4447099,5.1279845
687,2024-05-15 22:11:25.835478,0.102259986,-1.7426299,-1.4101933,1.475545,-0.6200282,4.964884
688,2024-05-15 22:11:25.848976,0.102259986,-1.7426299,-1.4101933,1.475545,-0.6200282,4.964884
689,2024-05-15 22:11:25.867746,0.6091974,-2.0071878,-0.42075467,-0.16829337,-1.1246029,4.368068
690,2024-05-15 22:11:25.883862,0.95844334,-2.0801609,-0.1210524,0.786489,-0.28099802,4.088903
691,2024-05-15 22:11:25.900416,1.1553975,-2.2700374,-0.5042528,1.8414533,0.4129449,3.6490798
692,2024-05-15 22:11:25.917877,1.5681288,-2.5734313,-1.0319046,1.5592335,0.80573124,3.4138968
693,2024-05-15 22:11:25.933892,1.8766171,-2.6761792,-1.0377619,1.1426234,1.0433578,3.1212924
694,2024-05-15 22:11:25.952263,2.4276986,-2.7960114,-0.68705165,0.763887,1.6603317,1.5354861
695,2024-05-15 22:11:25.968023,2.5190065,-2.7374375,-0.509378,0.9575313,1.7635679,0.8452084
696,2024-05-15 22:11:25.985733,2.4830995,-2.559764,-0.51816404,1.7009543,1.3426818,-2.4705682
697,2024-05-15 22:11:26.001129,2.0442846,-2.3432548,-0.5969946,1.7198911,1.1368202,-3.07899
698,2024-05-15 22:11:26.019319,1.4280095,-2.0669818,-0.6738726,1.74738,0.7837401,-4.1779366
699,2024-05-15 22:11:26.034617,1.0521613,-1.7711844,-0.5813749,1.7559321,0.7641924,-4.3783
700,2024-05-15 22:11:26.050044,0.9157333,-1.6616027,-0.56038594,2.1902573,1.4343116,-4.6544113
701,2024-05-15 22:11:26.067190,0.7375715,-1.5239545,-0.6091974,2.4523184,1.8851302,-4.7545934
702,2024-05-15 22:11:26.085886,0.3922,-1.251556,-0.74123234,2.2666154,1.9730947,-4.836449
703,2024-05-15 22:11:26.101253,0.10348027,-1.0026177,-0.7051119,2.078469,1.8142698,-4.8260646
704,2024-05-15 22:11:26.118170,0.10348027,-1.0026177,-0.7051119,2.078469,1.8142698,-4.8260646
705,2024-05-15 22:11:26.135584,-0.24625377,-0.74562544,-0.5411054,1.6013832,1.5063937,-4.7942996
706,2024-05-15 22:11:26.151166,-0.4275883,-0.63775206,-0.4058672,1.6465873,1.7513506,-4.591492
707,2024-05-15 22:11:26.167161,-0.5035206,-0.6052925,-0.3397277,1.7675385,1.9272798,-4.4858127
708,2024-05-15 22:11:26.185498,-0.52450955,-0.5718566,-0.31312546,1.8646661,2.0231857,-4.429613
709,2024-05-15 22:11:26.200983,-0.5398851,-0.43173727,-0.16229807,2.3448062,1.844813,-4.3996806
710,2024-05-15 22:11:26.218107,-0.5530642,-0.4249037,-0.14374973,2.4040601,1.813659,-4.42778
711,2024-05-15 22:11:26.234724,-0.6401926,-0.40000984,-0.15839316,2.636189,1.4080443,-4.534071
712,2024-05-15 22:11:26.252323,-0.658497,-0.4058672,-0.20988922,2.5983152,1.0451905,-4.629366
713,2024-05-15 22:11:26.268097,-0.658497,-0.4058672,-0.20988922,2.5983152,1.0451905,-4.629366
714,2024-05-15 22:11:26.285244,-0.5923574,-0.41562948,-0.21769907,2.4828618,0.6768387,-4.8040733
715,2024-05-15 22:11:26.300993,-0.9823609,-0.56721956,-0.11177822,2.6667323,0.43493605,-6.130262
716,2024-05-15 22:11:26.318067,-1.0131121,-0.5738091,-0.20598431,2.6123652,0.21502456,-6.288476
717,2024-05-15 22:11:26.334527,-1.1597905,-0.6023638,-0.36730617,1.9324722,-0.7330383,-7.036175
718,2024-05-15 22:11:26.351935,-1.3262376,-0.75563174,-0.19890666,1.647809,-0.4990769,-7.7020183
719,2024-05-15 22:11:26.367841,-1.5649561,-0.74367297,-0.07492557,1.9947804,0.022602014,-7.867563
720,2024-05-15 22:11:26.384663,-1.5649561,-0.74367297,-0.07492557,1.9947804,0.022602014,-7.867563
721,2024-05-15 22:11:26.402336,-1.5649561,-0.74367297,-0.07492557,1.9947804,0.022602014,-7.867563
722,2024-05-15 22:11:26.418065,-1.5649561,-0.74367297,-0.07492557,1.9947804,0.022602014,-7.867563
723,2024-05-15 22:11:26.435271,-2.6312728,-0.5098661,-1.4194674,3.206737,0.56505036,-8.215145
724,2024-05-15 22:11:26.450865,-2.8777707,-0.2923806,-1.824877,0.7113526,-1.0781772,-8.916418
725,2024-05-15 22:11:26.465976,-3.2577677,-0.2884757,-1.6691686,-0.71868294,-1.4764613,-9.22796
726,2024-05-15 22:11:26.483673,-3.9565341,-0.067847915,-0.85496306,-2.718045,-0.6597345,-8.300666
727,2024-05-15 22:11:26.501270,-3.632914,0.14472595,0.22794947,-2.7882943,0.643852,-6.5089984
728,2024-05-15 22:11:26.516983,-3.2365346,0.35754386,0.7988299,-1.9007072,1.4031575,-5.744195
729,2024-05-15 22:11:26.532659,-2.9361002,0.5699042,0.9852896,-0.106595986,1.5088371,-5.1339407
730,2024-05-15 22:11:26.551038,-3.0110257,0.78101367,0.6414129,1.0626001,0.9578367,-4.6299767
731,2024-05-15 22:11:26.566971,-3.0349436,0.88937515,0.3909797,1.2794572,0.625526,-4.3783
732,2024-05-15 22:11:26.582128,-3.0613017,1.0929189,0.07150877,0.7107417,0.21624629,-3.8150826
733,2024-05-15 22:11:26.601335,-3.1757646,1.3955499,-0.21037734,0.29840767,0.111177474,-3.5963929
734,2024-05-15 22:11:26.616561,-3.1757646,1.3955499,-0.21037734,0.29840767,0.111177474,-3.5963929
735,2024-05-15 22:11:26.634058,-3.2514222,1.6625789,0.95844334,-1.6496416,-0.73548174,-1.5249487
736,2024-05-15 22:11:26.649800,-3.4430072,1.7045568,1.5705694,-0.26175576,-0.8313876,-0.34170276
737,2024-05-15 22:11:26.666169,-3.6509743,1.7340878,1.5097991,1.2000448,-1.1704178,1.2404382
738,2024-05-15 22:11:26.684625,-3.5704355,1.5698372,1.2271503,1.7993035,-1.3720033,2.0009654
739,2024-05-15 22:11:26.701054,-3.3961482,1.3089095,0.598947,2.223855,-1.677436,3.1964288
740,2024-05-15 22:11:26.716540,-3.3038943,1.127575,0.25699228,2.0534234,-1.844813,3.7822485
741,2024-05-15 22:11:26.731924,-3.2057836,0.8227475,0.13081467,1.5873333,-1.9529362,4.6789985
742,2024-05-15 22:11:26.750859,-3.0085852,0.61969185,0.055400997,1.3234396,-2.3854287,5.399209
743,2024-05-15 22:11:26.766400,-2.939517,0.48738232,-0.1871919,0.7828238,-2.6755898,5.437693
744,2024-05-15 22:11:26.783580,-3.0198119,0.45907167,-0.34607318,0.30024028,-3.073874,5.4157023
745,2024-05-15 22:11:26.798742,-3.2060275,0.44808912,-0.33875147,-0.4822781,-3.7415497,5.324683
746,2024-05-15 22:11:26.817849,-3.3695462,0.4656612,-0.31581008,-0.59650993,-3.9516873,5.330792
747,2024-05-15 22:11:26.833565,-3.4691212,0.42417148,-0.31532198,-0.44440445,-4.184427,5.779778
748,2024-05-15 22:11:26.851188,-3.5287018,0.009274175,-0.3392396,-0.0015271631,-3.87594,6.7296734
749,2024-05-15 22:11:26.866489,-3.1686866,-0.13935669,-0.36144876,0.20189096,-3.3964107,7.2452435
750,2024-05-15 22:11:26.884483,-2.5358462,-0.33362624,-0.36632994,0.17745635,-3.0017917,7.728438
751,2024-05-15 22:11:26.899712,-2.1323893,-0.50815773,-0.26675457,0.21410827,-3.0879238,7.488368
752,2024-05-15 22:11:26.916821,-2.1455681,-0.49568027,-0.3612047,0.20005837,-3.3713653,7.1731615
753,2024-05-15 22:11:26.934982,-2.1621642,-0.5406173,-0.42246306,0.13103059,-3.5521815,7.116962
754,2024-05-15 22:11:26.950133,-1.7462906,-0.72829735,-0.11617125,0.38148534,-2.606562,7.1230707
755,2024-05-15 22:11:26.967785,-1.6899134,-0.71048117,-0.04075756,0.5183192,-2.262034,7.15789
756,2024-05-15 22:11:26.984762,-1.3313628,-0.7380596,-0.14716652,0.8707884,-1.9333885,6.966689
757,2024-05-15 22:11:27.000128,-1.2935339,-0.7380596,-0.16766733,0.8542951,-2.0433443,6.7840405
758,2024-05-15 22:11:27.017726,-1.1339204,-0.7068203,-0.19622204,0.7199047,-2.329229,5.9856396
759,2024-05-15 22:11:27.033464,-1.0899903,-0.72927356,0.012935034,1.2092078,-1.7415768,5.621564
760,2024-05-15 22:11:27.051003,-1.0668048,-0.78394234,-0.23405088,1.4926492,-1.72264,5.9532638
761,2024-05-15 22:11:27.067799,-0.68534327,-0.82323563,-0.27383223,1.4162911,-1.6780468,5.952653
762,2024-05-15 22:11:27.083446,-0.54354596,-0.8432483,-0.30604777,1.4217888,-1.5332718,5.747402
763,2024-05-15 22:11:27.100019,-0.25796852,-0.8700946,-0.27773714,1.534799,-1.2321151,5.153641
764,2024-05-15 22:11:27.117659,-0.27310005,-0.94868106,-0.34168017,2.033876,-0.8539896,4.641125
765,2024-05-15 22:11:27.133415,-0.19939478,-0.9816288,-0.5528202,1.9813415,-0.9999864,4.61608
766,2024-05-15 22:11:27.150205,-0.09835507,-1.0194577,-0.62945414,1.7803668,-1.1624765,4.581871
767,2024-05-15 22:11:27.166408,0.32923323,-1.2671757,-0.58747625,1.1951579,-1.4953982,4.3906703
768,2024-05-15 22:11:27.184515,0.5525761,-1.3162313,-0.5537964,1.0882565,-1.2620476,4.0913463
769,2024-05-15 22:11:27.199606,0.8835178,-1.3889602,-0.556237,1.1878275,-0.7635816,3.2886693
770,2024-05-15 22:11:27.217780,0.86740994,-1.3928652,-0.564779,1.1896601,-0.7165449,2.9850693
771,2024-05-15 22:11:27.232948,0.5633146,-1.4306941,-0.8215272,0.68630713,-1.3579534,2.9062676
772,2024-05-15 22:11:27.248799,0.81640196,-1.7038248,-1.1246463,-0.12370021,-1.8723019,3.726049
773,2024-05-15 22:11:27.267717,1.5961955,-2.0943162,-1.0997524,-0.8176431,-1.459357,3.9227476
774,2024-05-15 22:11:27.283378,1.9454412,-2.1943798,-0.89986956,-0.9025534,-0.8393288,3.7523162
775,2024-05-15 22:11:27.300570,2.3420343,-2.2492926,-0.43124917,-0.5177083,0.7104363,2.8543441
776,2024-05-15 22:11:27.317745,2.4103703,-2.2280595,-0.22624107,-0.051618114,1.2027937,2.2288182
777,2024-05-15 22:11:27.333367,2.4579616,-2.2182972,-0.2711476,0.73273283,1.3994923,1.1671344
778,2024-05-15 22:11:27.351047,2.4860282,-2.213416,-0.31239328,0.82619524,1.3713925,0.9600511
779,2024-05-15 22:11:27.366372,2.4860282,-2.213416,-0.31239328,0.82619524,1.3713925,0.9600511
780,2024-05-15 22:11:27.384354,2.602962,-2.2224462,-0.439059,0.82619524,1.3713925,0.9600511
781,2024-05-15 22:11:27.400000,2.602962,-2.2224462,-0.439059,0.82619524,1.3713925,0.9600511
782,2024-05-15 22:11:27.417271,1.3264817,-1.6423222,-0.49738866,3.090062,1.4886786,-3.8132498
783,2024-05-15 22:11:27.437667,1.0001771,-1.4956133,-0.761001,3.320358,1.4013249,-4.188932
784,2024-05-15 22:11:27.452273,0.55184394,-1.2671757,-1.0104275,2.8060095,1.0928379,-4.323933
785,2024-05-15 22:11:27.467444,0.41880223,-1.1783389,-1.0255591,2.4804184,1.0048733,-4.361807
786,2024-05-15 22:11:27.482897,0.10152781,-0.94819295,-0.978212,1.7088956,1.2932017,-4.4870343
787,2024-05-15 22:11:27.500815,-0.20500809,-0.7937047,-0.7758885,1.1071932,1.7195857,-4.5719447
788,2024-05-15 22:11:27.516655,-0.5235333,-0.6211562,-0.5125507,0.96852684,1.7776178,-4.4949756
789,2024-05-15 22:11:27.534369,-0.58527976,-0.5811308,-0.42270714,0.8035932,1.7947221,-4.089972
790,2024-05-15 22:11:27.549976,-0.62823385,-0.51743186,-0.30043447,0.7987063,1.7763962,-3.9109883
791,2024-05-15 22:11:27.567678,-0.5247536,-0.4554108,-0.03807293,1.1725558,1.6664404,-3.8963275
792,2024-05-15 22:11:27.583310,-0.55867755,-0.4283205,0.038561042,1.3857478,1.6077974,-4.044157
793,2024-05-15 22:11:27.600769,-0.7832102,-0.366574,0.07858644,1.7461584,1.3988814,-4.1156282
794,2024-05-15 22:11:27.616598,-0.8691184,-0.34753752,0.050031736,1.8726074,1.1771374,-4.029496
795,2024-05-15 22:11:27.632266,-0.8430042,-0.2633378,0.04807928,1.8310685,0.7733554,-3.9158752
796,2024-05-15 22:11:27.651000,-0.59284556,-0.264314,-0.044174362,1.6172657,0.06841691,-4.5530076
797,2024-05-15 22:11:27.666859,-0.573565,-0.32410803,-0.0043930304,1.1896601,-0.9560041,-5.7374754
798,2024-05-15 22:11:27.684058,-0.573565,-0.32410803,-0.0043930304,1.1896601,-0.9560041,-5.7374754
799,2024-05-15 22:11:27.699854,-0.8954765,-0.41294485,0.4502856,2.1029036,-1.0592403,-7.1192527
800,2024-05-15 22:11:27.716565,-1.1126875,-0.42929673,0.3441207,2.4895813,-1.0659598,-7.3324447
801,2024-05-15 22:11:27.732239,-1.2525322,-0.4876264,0.14423785,2.6355782,-1.5076154,-7.725842
802,2024-05-15 22:11:27.750606,-1.8358595,-0.4612682,-0.25211114,1.5506815,-1.6383406,-7.951862
803,2024-05-15 22:11:27.782626,-1.8961419,-0.33509058,-0.117635585,1.5293012,-1.3750577,-7.8944407
804,2024-05-15 22:11:27.801478,-2.332028,0.10909359,-0.7468457,3.035084,0.116675265,-7.4369025
805,2024-05-15 22:11:27.817656,-2.2519772,0.16254212,-1.0628998,0.6704246,-1.0965031,-7.778376
806,2024-05-15 22:11:27.832887,-2.2668648,0.1295944,-0.7841864,-0.2593123,-1.1087204,-7.792426
807,2024-05-15 22:11:27.848529,-2.485784,0.05662128,-0.5025444,-1.0491611,-1.0390818,-7.766159
808,2024-05-15 22:11:27.867022,-2.6688576,-0.024161667,-0.3048275,-1.4388931,-0.5876524,-7.671475
809,2024-05-15 22:11:27.882171,-2.8362808,0.024893839,-0.044662476,-1.2263119,0.4605924,-7.5004325
810,2024-05-15 22:11:27.900330,-3.0393364,0.27773714,0.07370529,-0.54336464,2.1093178,-7.2982364
811,2024-05-15 22:11:27.916609,-3.131834,0.44686884,-0.10518867,-0.4437936,2.1978931,-7.2096605
812,2024-05-15 22:11:27.935608,-3.2689943,0.8273846,-0.473227,-1.1322387,1.6914859,-6.5627546
813,2024-05-15 22:11:27.950613,-3.5306542,1.0377619,-0.17450093,-2.0405953,1.2504412,-5.730756
814,2024-05-15 22:11:27.969119,-3.8564706,1.4814581,0.42734426,-2.1090124,0.75808376,-3.780874
815,2024-05-15 22:11:27.985362,-3.6260808,1.6171844,0.7495303,-1.7589865,0.571159,-2.8444176
816,2024-05-15 22:11:28.000444,-3.174544,1.714319,0.9611279,-0.40958515,0.33841935,-1.6801085
817,2024-05-15 22:11:28.018320,-3.1413524,1.7072414,0.7998061,0.06627888,-0.005497787,-1.3227524
818,2024-05-15 22:11:28.033748,-3.2030988,1.6113269,0.191829,0.10354166,-1.2076806,-0.49258646
819,2024-05-15 22:11:28.050887,-3.3802843,1.4802377,0.3660859,0.094989546,-1.5033394,0.7431939
820,2024-05-15 22:11:28.068994,-3.156484,1.2622945,0.19573392,0.8396343,-1.2180653,2.360765
821,2024-05-15 22:11:28.084765,-3.311216,1.3809065,0.32410803,0.8396343,-1.2180653,2.360765
822,2024-05-15 22:11:28.100837,-3.311216,1.3809065,0.32410803,0.8396343,-1.2180653,2.360765
823,2024-05-15 22:11:28.119237,-2.7110794,0.8103006,-0.3236199,0.2837469,-1.7886134,3.5690565
824,2024-05-15 22:11:28.134226,-2.6139445,0.66166973,-0.2523552,-0.16279559,-2.298075,3.911752
825,2024-05-15 22:11:28.151396,-2.632493,0.54330194,-0.31141704,-0.66737026,-2.8765645,4.2025237
826,2024-05-15 22:11:28.169028,-2.6471364,0.594554,-0.2853029,-1.1004738,-3.2351422,4.1689262
827,2024-05-15 22:11:28.184182,-3.024205,0.6235968,-0.15448824,-1.7351627,-3.9907827,3.966119
828,2024-05-15 22:11:28.199416,-3.3592954,0.50669336,0.10006347,-1.9599612,-4.2106943,4.002771
829,2024-05-15 22:11:28.218961,-3.934813,-0.08297946,1.1388016,-0.22632557,-3.7195585,5.7034197
830,2024-05-15 22:11:28.234089,-3.8306005,-0.31678632,0.88229746,0.7296785,-3.7348301,6.3002353
831,2024-05-15 22:11:28.252637,-3.7451806,-0.641657,0.1632743,0.8707884,-4.6352453,6.6789713
832,2024-05-15 22:11:28.269816,-3.5279696,-0.9120724,0.0302631,0.70707655,-5.3316317,7.0283866
833,2024-05-15 22:11:28.285087,-3.2628927,-1.2483834,-0.10665302,1.2873985,-4.8478265,7.4724855
834,2024-05-15 22:11:28.302495,-3.1315901,-1.3076892,-0.21843125,1.4731015,-4.8099527,7.7571487
835,2024-05-15 22:11:28.317993,-2.9553807,-1.3562566,-0.336799,1.5195273,-4.937013,7.9666753
836,2024-05-15 22:11:28.335107,-2.4071977,-1.500525,-0.30897647,1.751656,-5.359121,8.179868
837,2024-05-15 22:11:28.350482,-1.7636187,-1.5622715,-0.43979117,2.3270912,-4.235129,7.5494547
838,2024-05-15 22:11:28.366411,-1.705045,-1.5146803,-0.51865214,2.3441954,-3.8423424,7.424838
839,2024-05-15 22:11:28.382124,-1.6206012,-1.2125069,-0.8747317,1.4724907,-3.1392365,7.1646094
840,2024-05-15 22:11:28.402003,-1.2010362,-1.1456352,-0.6975461,0.999681,-3.5924985,6.958748
841,2024-05-15 22:11:28.417997,-0.9647888,-1.1422184,-0.67728937,1.0998629,-3.3279939,6.6789713
842,2024-05-15 22:11:28.435000,-0.72024345,-0.999933,-0.73903584,1.3295482,-2.4361305,6.2312074
843,2024-05-15 22:11:28.450357,-0.5442782,-0.95282996,-0.8879108,1.4401149,-1.6316211,5.8805704
844,2024-05-15 22:11:28.466330,-0.5442782,-0.95282996,-0.8879108,1.4401149,-1.6316211,5.8805704
845,2024-05-15 22:11:28.483873,-0.16205402,-0.96161604,-0.8896192,1.5848899,-0.8735373,5.3729415
846,2024-05-15 22:11:28.499673,0.057109397,-1.0978,-0.87229115,1.3081679,-1.0134255,5.149976
847,2024-05-15 22:11:28.516969,0.48689422,-1.1327002,-0.72195184,1.1670581,-0.9621128,4.9514446
848,2024-05-15 22:11:28.533941,0.5511118,-1.1383135,-0.57869023,0.89644474,-0.6731735,4.1481566
849,2024-05-15 22:11:28.549202,0.042465962,-1.1763865,-0.4737151,0.8176431,-1.1575897,3.8488328
850,2024-05-15 22:11:28.567149,0.19841854,-1.4463137,-0.564779,1.0332786,-1.591304,4.52445
851,2024-05-15 22:11:28.583973,0.39854547,-1.5263951,-0.6472703,1.1194105,-1.2125676,4.671057
852,2024-05-15 22:11:28.599242,0.58552384,-1.6264585,-0.69412935,0.84879726,-0.02565634,4.6087494
853,2024-05-15 22:11:28.617322,0.80468726,-1.9578882,-0.5645349,0.44012842,-0.25045475,4.8341584
854,2024-05-15 22:11:28.634700,1.0428871,-2.1348298,-0.5384208,0.27458394,-0.30604348,4.741307
855,2024-05-15 22:11:28.650231,1.5896058,-2.4774861,-0.4502856,0.3381139,-0.1740966,4.030871
856,2024-05-15 22:11:28.668073,1.5896058,-2.4774861,-0.4502856,0.56107974,0.06291912,3.5635588
857,2024-05-15 22:11:28.683916,2.115549,-2.6000333,-0.51645565,0.64904433,0.5705481,2.5134814
858,2024-05-15 22:11:28.701280,2.3732738,-2.6781316,-0.38316986,0.5671884,0.54428095,1.4065936
859,2024-05-15 22:11:28.716617,2.5739193,-2.683989,-0.23575929,0.6246097,0.42821655,0.7169267
860,2024-05-15 22:11:28.734587,2.5175421,-2.6720302,-0.19646609,1.2055426,0.4550946,-1.2543354
861,2024-05-15 22:11:28.750604,2.1643608,-2.5561032,-0.19915071,2.0546453,0.50579643,-2.8755717
862,2024-05-15 22:11:28.767187,2.0772324,-2.5321856,-0.21159762,2.2525656,0.54000485,-3.1180854
863,2024-05-15 22:11:28.783859,1.4743804,-2.2990801,-0.53475994,3.0106494,0.70066243,-3.8450148
864,2024-05-15 22:11:28.800530,1.4743804,-2.2990801,-0.53475994,3.0106494,0.70066243,-3.8450148
865,2024-05-15 22:11:28.817630,0.7832102,-1.9093208,-1.0970678,3.3783903,0.5149594,-5.33797
866,2024-05-15 22:11:28.832864,0.14911897,-1.4702314,-1.208602,2.1908681,0.80878556,-5.6159134
867,2024-05-15 22:11:28.850655,-0.3431445,-1.1585703,-0.8351944,1.4822645,1.3408492,-5.4754143
868,2024-05-15 22:11:28.866001,-0.49348375,-1.0026177,-0.6572767,1.312444,1.4043792,-5.195638
869,2024-05-15 22:11:28.883858,-0.4915313,-0.8061516,-0.3487578,1.3942999,1.3286319,-4.879821
870,2024-05-15 22:11:28.899150,-0.41538543,-0.67802155,-0.21159762,1.8891008,1.3750577,-4.8755445
871,2024-05-15 22:11:28.915148,-0.42685616,-0.649955,-0.2562601,2.2128594,1.382388,-4.9347987
872,2024-05-15 22:11:28.934724,-0.4183141,-0.6343353,-0.3863426,2.3936756,1.2461652,-5.058193
873,2024-05-15 22:11:28.950381,-0.4807928,-0.5957743,-0.32508424,2.459038,1.1960741,-5.1803665
874,2024-05-15 22:11:28.967163,-0.5742972,-0.5657552,-0.32386398,2.6184738,1.0592403,-5.2701635
875,2024-05-15 22:11:28.983851,-0.61798346,-0.55989784,-0.36730617,2.649017,0.9059132,-5.3336935
876,2024-05-15 22:11:28.999261,-0.74440515,-0.57405317,-0.46273252,2.5170703,0.40011674,-5.7289233
877,2024-05-15 22:11:29.016109,-0.8242119,-0.58527976,-0.5389089,2.2947154,0.12950343,-6.1278186
878,2024-05-15 22:11:29.033803,-1.1676003,-0.56209433,-0.46834585,1.8536706,-0.057421334,-6.634226
879,2024-05-15 22:11:29.049283,-1.4536355,-0.47664383,-0.35705575,2.0015,0.172264,-6.73624
880,2024-05-15 22:11:29.066112,-1.538598,-0.4556549,-0.37609223,2.0735822,0.17592919,-6.791218
881,2024-05-15 22:11:29.083692,-1.8282939,-0.504985,-0.22575295,2.068695,0.21563543,-6.985473
882,2024-05-15 22:11:29.099459,-2.2331848,-0.3585201,-0.06760386,2.8420506,0.43982297,-6.9335494
883,2024-05-15 22:11:29.117300,-2.345451,-0.30726805,-0.16034561,3.071125,0.2968805,-6.8633003
884,2024-05-15 22:11:29.132737,-2.4687002,-0.26943922,-0.29823795,3.130379,0.027488936,-6.805268
885,2024-05-15 22:11:29.150292,-2.508512,-0.22111587,-0.44320798,2.9110782,-0.38606682,-6.672099
886,2024-05-15 22:11:29.165969,-2.4882247,-0.16254212,-0.5515999,2.5433373,-1.0195341,-6.579859
887,2024-05-15 22:11:29.183367,-2.447711,-0.10128376,-0.60382813,2.0986276,-1.1661417,-6.4576855
888,2024-05-15 22:11:29.200404,-2.5282805,0.09445015,-0.41294485,2.4755313,0.21013765,-5.975713
889,2024-05-15 22:11:29.216065,-2.5002139,0.13960074,-0.48445365,2.5836546,0.46609017,-5.7545795
890,2024-05-15 22:11:29.233415,-2.1323893,0.34192422,-1.0157968,2.1908681,-0.2657264,-5.6879954
891,2024-05-15 22:11:29.249240,-2.64494,0.4515059,-0.43466598,0.34422258,-1.2315043,-6.401486
892,2024-05-15 22:11:29.267002,-2.9275582,0.88180935,-0.4527262,0.9166033,-0.14294247,-5.413717
893,2024-05-15 22:11:29.283525,-2.8345723,1.0001771,-0.63043034,0.981355,-0.119729586,-5.0221524
894,2024-05-15 22:11:29.298927,-2.6754472,1.3264817,-0.88107723,0.40103304,-1.2198979,-5.064913
895,2024-05-15 22:11:29.317002,-3.0415328,1.4797496,-0.83836716,-0.6209445,-1.8234328,-4.832784
896,2024-05-15 22:11:29.332753,-3.3373303,1.6579418,-0.56502306,-0.8164214,-1.3475688,-4.2970552
897,2024-05-15 22:11:29.350388,-3.6478016,2.0948043,-0.5642909,-0.90377516,-0.9254609,-2.5023332
898,2024-05-15 22:11:29.366013,-3.5494466,2.199749,-0.5879644,-1.104139,-0.9309586,-1.8743637
899,2024-05-15 22:11:29.383674,-3.4063985,2.1770518,-0.19939478,-1.4932601,-0.7110472,-0.38812852
900,2024-05-15 22:11:29.399278,-3.3605156,2.1138408,0.19500175,-1.303281,-0.81245077,0.7908414
901,2024-05-15 22:11:29.414978,-3.3221986,2.050386,0.28554696,-0.9104946,-0.9120218,1.4603497
902,2024-05-15 22:11:29.434057,-3.2379992,1.7397012,0.136428,-0.13591751,-0.7733554,2.9600239
903,2024-05-15 22:11:29.449846,-3.2006583,1.4358193,-0.062478654,0.023518313,-0.6921103,4.06569
904,2024-05-15 22:11:29.465409,-3.1154823,1.3115941,-0.059305906,0.013744468,-0.61208695,4.696103
905,2024-05-15 22:11:29.483066,-2.870693,0.99090296,0.016107777,0.14874569,-0.28099802,5.4651823
906,2024-05-15 22:11:29.498722,-2.870693,0.99090296,0.016107777,0.14874569,-0.28099802,5.4651823
907,2024-05-15 22:11:29.516661,-2.870693,0.99090296,0.016107777,0.14874569,-0.28099802,5.4651823
908,2024-05-15 22:11:29.532291,-2.870693,0.99090296,0.016107777,0.14874569,-0.28099802,5.4651823
909,2024-05-15 22:11:29.550090,-3.4061544,0.42246306,0.28359452,0.75900006,-0.40194935,7.2428
910,2024-05-15 22:11:29.568747,-3.5711677,0.24332508,0.05296042,1.425454,0.07574729,8.397946
911,2024-05-15 22:11:29.584812,-3.2660656,0.023429496,-0.50059193,1.425454,0.07574729,8.397946
912,2024-05-15 22:11:29.600067,-2.926338,-0.14277348,-0.7980977,-0.6032294,-1.4184291,8.511567
913,2024-05-15 22:11:29.619734,-2.3845003,-0.34949,-0.7558758,-1.1517864,-1.6633861,8.051586
914,2024-05-15 22:11:29.635718,-2.289074,-0.43417785,-0.8124971,-1.321607,-1.5619824,7.8121266
915,2024-05-15 22:11:29.651172,-2.1985288,-0.42929673,-0.8942563,-1.321607,-1.5619824,7.8121266
916,2024-05-15 22:11:29.666928,-1.8695395,-0.41221267,-0.9086556,-2.0387628,-1.9297233,7.5103593
917,2024-05-15 22:11:29.686366,-1.493905,-0.5042528,-0.7512387,-2.2623394,-1.9107865,7.0839753
918,2024-05-15 22:11:29.702036,-1.1519806,-0.47810817,-0.69046843,-2.2867742,-1.6230689,6.5018206
919,2024-05-15 22:11:29.717631,-1.0145764,-0.38463423,-0.55965376,-2.4107797,-1.6444492,5.856136
920,2024-05-15 22:11:29.732686,-1.1178128,-0.37633628,-0.47639978,-2.4058928,-1.8069394,5.5739164
921,2024-05-15 22:11:29.752908,-1.1095147,-0.38805103,-0.42417148,-2.2886066,-2.26631,5.673487
922,2024-05-15 22:11:29.768880,-0.91378087,-0.41026023,-0.2818861,-1.7895297,-2.0091357,5.685094
923,2024-05-15 22:11:29.784679,-0.8700946,-0.41636166,-0.25650415,-1.4553864,-1.7574593,5.6514964
924,2024-05-15 22:11:29.802698,-0.73147005,-0.4729829,-0.24478942,-1.0735956,-1.9370537,5.49878
925,2024-05-15 22:11:29.817983,-0.6814383,-0.56038594,-0.2591888,-0.70096785,-2.2284365,5.1518083
926,2024-05-15 22:11:29.836573,-0.77100736,-0.6145667,-0.2848148,-0.54519725,-2.3420575,5.1475325
927,2024-05-15 22:11:29.851897,-0.7365953,-0.7370834,-0.26553428,0.1518,-2.3286183,5.471902
928,2024-05-15 22:11:29.867211,-0.53793263,-0.95551467,-0.42270714,0.57879484,-2.1148155,5.570862
929,2024-05-15 22:11:29.886372,-0.4698102,-1.101949,-0.56502306,1.4608842,-1.5283848,5.5971293
930,2024-05-15 22:11:29.901851,-0.06687169,-1.4929286,-0.7878473,2.1633792,-1.246776,5.4236436
931,2024-05-15 22:11:29.917005,0.17816179,-1.6464713,-0.9391628,2.309376,-0.9779953,5.1279845
932,2024-05-15 22:11:29.936025,0.28213018,-1.8998026,-1.2835276,2.0027218,-0.73426,4.8103347
933,2024-05-15 22:11:29.951339,0.28213018,-1.8998026,-1.2835276,2.0027218,-0.73426,4.8103347
934,2024-05-15 22:11:29.968648,1.0204339,-2.4189124,-0.95258594,-0.15974127,-0.61208695,4.501237
935,2024-05-15 22:11:29.984418,1.1639395,-2.4623544,-0.78198993,-0.16157386,-0.44593164,4.391281
936,2024-05-15 22:11:30.000062,1.5695932,-2.5963724,-0.5332956,0.5873469,0.61758476,3.6020434
937,2024-05-15 22:11:30.019638,1.8744206,-2.658363,-0.5452544,1.0626001,1.3090842,2.511038
938,2024-05-15 22:11:30.036489,2.0049913,-2.6149209,-0.6057806,1.3203852,1.5338826,1.1903473
939,2024-05-15 22:11:30.050923,2.059416,-2.5670857,-0.6577648,1.2513574,1.5381587,0.47074804
940,2024-05-15 22:11:30.067917,2.0452607,-2.5297449,-0.6567886,1.0772609,1.4587462,-0.23663393
941,2024-05-15 22:11:30.083485,1.9181069,-2.3849885,-0.45345837,0.8353582,1.1594223,-1.5591571
942,2024-05-15 22:11:30.102657,1.7335995,-2.2268393,-0.2037878,1.1462886,1.0519099,-2.6574929
943,2024-05-15 22:11:30.117514,1.5700814,-2.126776,-0.09859913,1.6875153,1.215011,-3.3972507
944,2024-05-15 22:11:30.133211,1.1717494,-1.9171307,-0.18841219,2.4480424,1.600467,-4.212145
945,2024-05-15 22:11:30.152717,0.83275384,-1.7113904,-0.36755022,2.7852402,1.676825,-4.7539825
946,2024-05-15 22:11:30.167852,0.47395915,-1.4594928,-0.47810817,2.685058,1.6291776,-4.9628983
947,2024-05-15 22:11:30.185843,0.13716017,-1.1824878,-0.38805103,2.259896,1.4343116,-5.16204
948,2024-05-15 22:11:30.201543,0.045638707,-1.0755908,-0.3590082,2.1749856,1.3573426,-5.0698
949,2024-05-15 22:11:30.217153,-0.08712844,-0.91695356,-0.31678632,2.151162,1.4789047,-4.877377
950,2024-05-15 22:11:30.232909,-0.14204131,-0.8390993,-0.31312546,2.1627684,1.5485435,-4.783915
951,2024-05-15 22:11:30.248525,-0.19402552,-0.78906757,-0.34045988,2.1572707,1.5784758,-4.719774
952,2024-05-15 22:11:30.265187,-0.26553428,-0.67948586,-0.43198135,1.8671097,1.5314392,-4.543234
953,2024-05-15 22:11:30.282293,-0.26870704,-0.6741166,-0.43246946,1.7864754,1.5045611,-4.5414014
954,2024-05-15 22:11:30.299616,-0.28115395,-0.55696917,-0.35827604,1.4266758,1.3842206,-4.580497
955,2024-05-15 22:11:30.314669,-0.27651685,-0.5889406,-0.39488465,1.2739595,1.2724323,-4.6617417
956,2024-05-15 22:11:30.331343,-0.46248847,-0.42197496,-0.07224095,1.4859297,1.1349876,-4.701448
957,2024-05-15 22:11:30.349971,-0.45223808,-0.32093528,-0.15155955,1.6392568,0.7837401,-4.8932595
958,2024-05-15 22:11:30.365093,-0.48542988,-0.2506468,-0.22184804,1.616044,0.5876524,-5.0832386
959,2024-05-15 22:11:30.382772,-0.68924814,-0.22160399,-0.33875147,1.4217888,0.3036,-5.450369
960,2024-05-15 22:11:30.398417,-0.9040186,-0.15375607,-0.42905265,1.1120802,0.1777618,-5.6678367
961,2024-05-15 22:11:30.415676,-0.91036403,-0.13398743,-0.39659303,0.5684101,-0.022602014,-6.124764
962,2024-05-15 22:11:30.432113,-0.95893145,-0.051007964,-0.17718557,0.44501534,-0.0012217305,-6.4027076
963,2024-05-15 22:11:30.448071,-1.3328272,0.079318605,0.2796896,0.7528914,0.33169982,-6.510831
964,2024-05-15 22:11:30.465091,-1.5932667,0.05735345,0.13032657,1.820073,1.2168436,-6.2096744
965,2024-05-15 22:11:30.483356,-1.7277422,0.020256752,-0.24405725,1.6111571,0.7312057,-5.7246475
966,2024-05-15 22:11:30.498510,-1.6908896,-0.07297312,-0.29482117,0.6942484,-0.22235495,-6.012365
967,2024-05-15 22:11:30.516643,-1.8751528,-0.029774986,0.38316986,1.0595458,-0.03176499,-6.260987
968,2024-05-15 22:11:30.532274,-1.9305538,0.03441207,0.47493544,1.8664987,0.29871312,-6.034356
969,2024-05-15 22:11:30.549764,-1.9759486,-0.050031736,-0.05344854,3.1248813,0.47952923,-5.799173
970,2024-05-15 22:11:30.565064,-2.0057235,-0.0924977,-0.4429639,3.043636,0.19975294,-5.813223
971,2024-05-15 22:11:30.581711,-2.0057235,-0.0924977,-0.4429639,3.043636,0.19975294,-5.813223
972,2024-05-15 22:11:30.598351,-2.276627,0.2884757,-0.47932845,2.826168,0.040317107,-5.8455987
973,2024-05-15 22:11:30.616478,-2.378399,0.469078,-0.60163164,1.9501873,0.64812803,-5.840101
974,2024-05-15 22:11:30.631737,-2.3937745,0.6748488,-0.7431848,0.84513205,-0.01282817,-5.639737
975,2024-05-15 22:11:30.648548,-2.344475,0.8027348,-0.75221497,0.27214047,-0.49541172,-5.7484713
976,2024-05-15 22:11:30.666128,-2.5460966,1.0863293,-0.35315084,-0.5152648,-0.9877691,-5.8199425
977,2024-05-15 22:11:30.682245,-2.7811239,1.2696164,0.020256752,-0.30634892,-0.4538729,-5.312924
978,2024-05-15 22:11:30.699865,-2.9548926,1.57301,0.057109397,0.21044308,0.4111123,-4.332485
979,2024-05-15 22:11:30.715626,-2.9548926,1.57301,0.057109397,0.21044308,0.4111123,-4.332485
980,2024-05-15 22:11:30.733982,-2.538531,2.114573,-0.11665936,-1.0809261,-0.4111123,-2.6348908
981,2024-05-15 22:11:30.749618,-3.0959575,2.38328,0.47395915,-1.0503827,-0.49113566,-1.6739999
982,2024-05-15 22:11:30.768755,-3.0056567,2.3998759,0.63848424,-0.61300325,-0.50823987,0.028481591
983,2024-05-15 22:11:30.784437,-2.9155993,2.3649757,0.62750167,-0.44806966,-0.4709771,0.5385541
984,2024-05-15 22:11:30.802263,-2.861907,2.2558823,0.6109058,-0.24587326,-0.5009095,1.2428817
985,2024-05-15 22:11:30.818212,-2.9336596,1.8522114,0.5789343,0.27214047,-0.93401295,2.818303
986,2024-05-15 22:11:30.833352,-2.9448862,1.7472668,0.48835856,0.27214047,-0.93401295,2.818303
987,2024-05-15 22:11:30.848582,-2.692043,1.3150109,0.26211748,0.38515055,-1.3451253,3.960621
988,2024-05-15 22:11:30.868666,-2.526572,1.0855972,0.021477038,0.36377025,-1.3292428,4.9251776
989,2024-05-15 22:11:30.884052,-2.5160778,1.0258032,-0.12422514,0.16462818,-1.4110987,5.090111
990,2024-05-15 22:11:30.902045,-2.3725414,1.0065227,-0.28164205,-0.7974846,-1.990199,5.1560845
991,2024-05-15 22:11:30.917623,-2.4328237,0.9633245,-0.23185438,-1.2721269,-2.3634377,5.1426454
992,2024-05-15 22:11:30.935169,-2.722062,0.8561833,-0.059549972,-1.9764545,-2.8820622,5.236108
993,2024-05-15 22:11:30.950571,-3.4347093,0.63726395,0.14082102,-2.866485,-3.5741725,5.501223
994,2024-05-15 22:11:30.967606,-3.646337,0.45077375,0.6028519,-3.2433891,-4.5851545,6.4431777
995,2024-05-15 22:11:30.985335,-3.3780878,0.30580372,0.94160336,-2.8420506,-4.7299294,6.9147654
996,2024-05-15 22:11:31.000540,-2.8804553,0.025137896,0.93891877,-1.4364496,-4.3957863,7.071147
997,2024-05-15 22:11:31.016590,-2.7525692,-0.04759116,0.5540405,-1.0241156,-4.656015,7.021667
998,2024-05-15 22:11:31.035525,-2.3415463,-0.2818861,0.13374338,-0.7828238,-5.0982814,6.952639
999,2024-05-15 22:11:31.050897,-2.1009057,-0.3778006,0.020256752,-0.6545421,-4.950452,6.858566
