id,timestamp,acc_x,acc_y,acc_z,gyro_x,gyro_y,gyro_z
0,2024-05-15 22:29:35.992743,-1.1566178,-0.50010383,-0.16205402,-1.1815661,0.5112942,-0.47708577
1,2024-05-15 22:29:36.008527,-1.1566178,-0.50010383,-0.16205402,-1.1815661,0.5112942,-0.47708577
2,2024-05-15 22:29:36.023967,-1.0089632,-0.42124277,-0.014643434,-0.7790059,1.1826351,-1.5754215
3,2024-05-15 22:29:36.035864,-0.9684497,-0.3270367,-0.06296677,-0.6617198,1.2809844,-1.6181821
4,2024-05-15 22:29:36.047976,-0.9120724,-0.2323425,-0.10884953,-0.68310004,1.3426818,-1.6609426
5,2024-05-15 22:29:36.063691,-0.83421814,0.119343996,-0.18768002,-1.1962268,1.459357,-1.9352211
6,2024-05-15 22:29:36.080425,-0.9123165,0.32459614,-0.18987654,-1.6201674,1.4905112,-2.0512855
7,2024-05-15 22:29:36.096088,-1.1641835,0.6467822,0.36388937,-2.3165538,1.5430456,-1.8380935
8,2024-05-15 22:29:36.130499,-1.2068936,1.472672,0.8281168,-0.95004815,1.7623463,-0.41538838
9,2024-05-15 22:29:36.148166,-0.8808331,1.943733,0.6650865,-0.592692,1.5326608,0.5235115
10,2024-05-15 22:29:36.163874,-0.85398686,2.344475,0.51547945,-1.0746647,0.9053023,1.1655309
11,2024-05-15 22:29:36.180192,-0.92744803,2.4137871,0.5386648,-1.2658654,0.6035349,1.455081
12,2024-05-15 22:29:36.197347,-1.3179396,2.6210225,0.8112768,-1.3385584,-0.28588495,2.6163359
13,2024-05-15 22:29:36.214094,-1.7409214,2.5043628,0.88937515,-0.9640981,-0.643852,3.3353243
14,2024-05-15 22:29:36.230391,-1.8146267,2.4184241,0.8793688,-0.30069843,-1.074512,4.3768497
15,2024-05-15 22:29:36.247328,-1.9954731,1.9203033,0.6560564,1.0016663,-1.926669,5.617517
16,2024-05-15 22:29:36.263992,-2.2309883,1.4499747,0.5279263,2.172695,-1.9529362,6.214943
17,2024-05-15 22:29:36.280189,-2.391822,1.1346527,0.27529657,2.613129,-1.7843374,6.436076
18,2024-05-15 22:29:36.297907,-2.3969471,0.94916916,0.11543907,2.984535,-1.3469579,6.8184776
19,2024-05-15 22:29:36.313963,-2.3312957,0.5103542,0.019036464,2.7982209,-1.3335189,6.857573
20,2024-05-15 22:29:36.330148,-2.361803,0.16107778,0.07199689,2.780506,-1.3310753,6.5209866
21,2024-05-15 22:29:36.347446,-2.3876731,-0.0656514,0.1432616,2.9772046,-1.1936307,6.298021
22,2024-05-15 22:29:36.363507,-2.3998759,-0.19134088,0.18597162,3.4029775,-0.625526,5.9815927
23,2024-05-15 22:29:36.380409,-2.4059772,-0.6065128,0.14082102,3.5184312,-0.35002577,5.6688294
24,2024-05-15 22:29:36.397336,-2.2412388,-0.9965162,-0.105676785,3.3815973,0.057421334,4.5387287
25,2024-05-15 22:29:36.414018,-1.9649658,-1.23374,-0.21135357,2.5783095,0.5626069,3.5973854
26,2024-05-15 22:29:36.430665,-1.5529974,-1.400431,-0.18523945,0.7872526,0.9669997,2.171015
27,2024-05-15 22:29:36.447312,-1.4253248,-1.4524152,-0.14960709,0.17027868,0.852157,1.6102408
28,2024-05-15 22:29:36.464235,-1.0053023,-1.6127913,0.06613952,-1.1400273,0.12339478,-0.2443461
29,2024-05-15 22:29:36.480420,-0.633115,-1.5739862,0.24064046,-1.3684908,0.21930063,-1.518611
30,2024-05-15 22:29:36.497273,-0.49568027,-1.5451875,0.28261828,-1.2609786,0.49968776,-2.3225098
31,2024-05-15 22:29:36.513948,-0.42124277,-1.3821267,0.24552159,-0.90301156,0.8063421,-3.8166862
32,2024-05-15 22:29:36.530591,-0.5213368,-1.3272138,0.17791773,-0.82359904,0.8240572,-4.2106943
33,2024-05-15 22:29:36.547239,-0.5213368,-1.3272138,0.17791773,-0.82359904,0.8240572,-4.2106943
34,2024-05-15 22:29:36.563915,-0.5213368,-1.3272138,0.17791773,-0.82359904,0.8240572,-4.2106943
35,2024-05-15 22:29:36.580568,-0.5213368,-1.3272138,0.17791773,-0.82359904,0.8240572,-4.2106943
36,2024-05-15 22:29:36.598138,-0.5213368,-1.3272138,0.17791773,-0.82359904,0.8240572,-4.2106943
37,2024-05-15 22:29:36.613762,-0.5213368,-1.3272138,0.17791773,-0.82359904,0.8240572,-4.2106943
38,2024-05-15 22:29:36.630606,-0.5213368,-1.3272138,0.17791773,-0.82359904,0.8240572,-4.2106943
39,2024-05-15 22:29:36.647210,-0.5213368,-1.3272138,0.17791773,-0.82359904,0.8240572,-4.2106943
40,2024-05-15 22:29:36.663861,-0.5213368,-1.3272138,0.17791773,-0.82359904,0.8240572,-4.2106943
41,2024-05-15 22:29:36.681166,-0.5213368,-1.3272138,0.17791773,-0.82359904,0.8240572,-4.2106943
42,2024-05-15 22:29:36.697011,-2.2807758,2.2832165,0.097134784,-2.446668,1.3408492,-5.667608
43,2024-05-15 22:29:36.713930,-2.190475,2.5063155,0.19451363,-5.438075,0.40683624,-4.3866234
44,2024-05-15 22:29:36.730854,-1.8868676,2.710103,1.4936609,-5.832694,0.30787608,-3.0115657
45,2024-05-15 22:29:36.746902,-1.8092574,2.752081,1.7436061,-4.808884,0.39584067,-2.2608123
46,2024-05-15 22:29:36.763856,-1.493905,2.8123634,1.807061,-2.315332,0.33658674,-0.66523224
47,2024-05-15 22:29:36.780511,-0.9364782,2.8592222,1.1585703,-0.5908594,-0.24495697,0.47219884
48,2024-05-15 22:29:36.797306,-0.867654,2.8655677,1.0009092,-0.43386704,-0.52656585,0.6774496
49,2024-05-15 22:29:36.814420,-1.1619871,2.7196214,0.70950496,-0.46868637,-1.65911,1.3976597
50,2024-05-15 22:29:36.830486,-1.4160507,2.3927984,0.8739995,0.26923886,-2.3273966,2.701246
51,2024-05-15 22:29:36.847166,-1.4084848,2.2097552,0.8644812,1.1971432,-2.3585508,3.345098
52,2024-05-15 22:29:36.864550,-1.5839925,1.9603289,0.6475144,2.5196664,-2.307238,4.0818014
53,2024-05-15 22:29:36.879906,-1.7951021,1.7572733,0.30116665,3.048065,-2.4049764,4.817283
54,2024-05-15 22:29:36.897168,-1.8753968,1.6874728,0.14204131,2.9442177,-2.4630086,5.0231447
55,2024-05-15 22:29:36.913850,-2.3034732,1.490488,0.27090356,2.0737348,-2.7177396,5.9803705
56,2024-05-15 22:29:36.930319,-2.4525921,1.2627827,0.78979975,2.4481952,-2.6511552,6.768387
57,2024-05-15 22:29:36.947122,-2.5224233,1.1810235,0.8813212,2.725528,-2.6774223,6.9015555
58,2024-05-15 22:29:36.963787,-3.0322587,0.93891877,0.9889505,3.754225,-2.9639182,7.3096137
59,2024-05-15 22:29:36.980244,-3.403226,0.9669853,1.0746145,3.9808562,-2.978579,7.5264707
60,2024-05-15 22:29:36.996703,-3.5997224,0.9386747,1.1295274,3.9203804,-2.9309313,7.4953165
61,2024-05-15 22:29:37.013815,-3.6807494,0.22648512,1.3599174,3.6070065,-3.5472944,7.456832
62,2024-05-15 22:29:37.030810,-3.0581288,-0.6028519,1.455832,4.3779187,-3.6383133,6.368881
63,2024-05-15 22:29:37.048191,-2.9958942,-0.7004748,1.4182471,4.6131015,-3.5485163,6.145915
64,2024-05-15 22:29:37.063542,-2.3598506,-1.8138945,0.67069983,5.4628153,-2.7531698,5.148983
65,2024-05-15 22:29:37.079898,-1.6484238,-2.7096152,-0.09567044,4.3999095,0.27488935,3.5863898
66,2024-05-15 22:29:37.097073,-1.149052,-2.9424455,-0.26626647,3.3834298,0.77763146,2.9804115
67,2024-05-15 22:29:37.114659,-0.040513504,-2.9771018,-0.5398851,1.0462594,0.96761054,0.6554584
68,2024-05-15 22:29:37.129902,0.2853029,-2.9231653,-0.52377737,0.13790283,1.0537425,-0.9016371
69,2024-05-15 22:29:37.147055,0.33582276,-2.935856,-0.345341,-1.7490599,1.0995574,-3.363424
70,2024-05-15 22:29:37.163701,-0.12080834,-2.8216374,-0.037584815,-3.2640057,0.4373795,-6.7897673
71,2024-05-15 22:29:37.180361,-0.12080834,-2.8216374,-0.037584815,-3.2640057,0.4373795,-6.7897673
72,2024-05-15 22:29:37.197021,-0.12080834,-2.8216374,-0.037584815,-3.2640057,0.4373795,-6.7897673
73,2024-05-15 22:29:37.213687,-0.12080834,-2.8216374,-0.037584815,-3.2640057,0.4373795,-6.7897673
74,2024-05-15 22:29:37.230327,-0.12080834,-2.8216374,-0.037584815,-3.2640057,0.4373795,-6.7897673
75,2024-05-15 22:29:37.247948,-0.12080834,-2.8216374,-0.037584815,-3.2640057,0.4373795,-6.7897673
76,2024-05-15 22:29:37.263573,-0.12080834,-2.8216374,-0.037584815,-3.2640057,0.4373795,-6.7897673
77,2024-05-15 22:29:37.280339,-0.12080834,-2.8216374,-0.037584815,-3.2640057,0.4373795,-6.7897673
78,2024-05-15 22:29:37.296971,-0.12080834,-2.8216374,-0.037584815,-3.2640057,0.4373795,-6.7897673
79,2024-05-15 22:29:37.313301,-3.807415,1.7777741,0.769543,-3.127172,2.0366247,-5.7378573
80,2024-05-15 22:29:37.331490,-2.998823,2.0957806,0.76270944,-3.0892982,2.0677788,-5.1844134
81,2024-05-15 22:29:37.363129,-2.9458625,3.2636251,0.79858583,-5.0770535,0.25717425,-4.7152686
82,2024-05-15 22:29:37.380052,-3.0259132,3.2619166,1.0875497,-5.556583,-0.15699236,-3.8747182
83,2024-05-15 22:29:37.397121,-2.879723,3.3200026,2.2673528,-4.362952,0.31642818,-2.1520782
84,2024-05-15 22:29:37.414206,-1.81243,3.2096884,2.0916317,-0.4082107,-0.33414328,0.87964594
85,2024-05-15 22:29:37.429776,-1.0243388,2.7835646,1.2642471,0.49586987,-0.8717047,1.3573426
86,2024-05-15 22:29:37.446955,-0.93501383,2.5924675,0.8915716,2.6717718,-2.3383923,2.1160371
87,2024-05-15 22:29:37.463589,-1.2264183,2.1516697,-0.2562601,3.173903,-2.5601363,3.0292807
88,2024-05-15 22:29:37.480187,-1.1624752,1.8912607,-0.54891527,2.2459989,-2.2455406,4.510018
89,2024-05-15 22:29:37.496942,-1.0192136,1.802912,-0.5364683,2.0621283,-2.0928242,4.721988
90,2024-05-15 22:29:37.513583,-1.0094513,1.4694992,-0.22819352,1.6296358,-1.1001683,5.2601604
91,2024-05-15 22:29:37.530203,-1.144415,1.3269697,-0.082491346,1.6540704,-0.9120218,5.553987
92,2024-05-15 22:29:37.546901,-1.3933533,1.1544212,0.264314,2.072513,-0.838718,6.0720005
93,2024-05-15 22:29:37.563315,-1.9944968,0.99407566,0.36755022,3.0352366,-0.9486737,7.0951996
94,2024-05-15 22:29:37.579752,-2.0411117,0.88180935,0.30287504,3.1494684,-1.0262536,7.4806557
95,2024-05-15 22:29:37.596410,-1.8348833,0.5730769,0.21721096,2.956435,-1.1502593,7.764708
96,2024-05-15 22:29:37.613529,-1.9757043,0.37536004,0.47469133,2.4433084,-1.0348058,7.3957458
97,2024-05-15 22:29:37.630418,-2.173879,0.106164895,0.9396509,2.0529654,-0.61819565,7.009068
98,2024-05-15 22:29:37.647506,-2.1702182,0.090789296,1.1290393,1.9753854,-0.5161811,6.563136
99,2024-05-15 22:29:37.663263,-2.2995684,0.04807928,1.443141,2.6650524,-0.9969321,4.950452
100,2024-05-15 22:29:37.679753,-2.6861856,-0.47859627,1.0118918,3.3449454,-1.7311921,3.1844406
101,2024-05-15 22:29:37.696857,-2.7066865,-0.7007189,0.79590124,3.3113477,-1.8228219,2.701246
102,2024-05-15 22:29:37.713510,-1.8016915,-1.1649158,0.183287,2.5196664,-1.3854424,1.0140363
103,2024-05-15 22:29:37.729859,-0.99041486,-1.4651061,-0.14594623,0.8000808,-0.5015204,-0.70432764
104,2024-05-15 22:29:37.746825,-0.8688744,-1.5849687,-0.1666911,0.13607024,-0.34330627,-1.1661417
105,2024-05-15 22:29:37.763521,-0.26114124,-1.5544616,-0.0021965152,-1.4204144,-1.0885619,-3.1025846
106,2024-05-15 22:29:37.780524,-0.26187342,-1.5534854,0.041733786,-1.6452128,-1.6786577,-4.874094
107,2024-05-15 22:29:37.796849,-0.3773125,-1.5324965,-0.008053889,-1.6091717,-1.7776178,-5.327356
108,2024-05-15 22:29:37.813500,-0.8124971,-1.4155625,-0.15375607,-1.5865698,-1.9737056,-5.9168406
109,2024-05-15 22:29:37.830133,-0.8124971,-1.4155625,-0.15375607,-1.5865698,-1.9737056,-5.9168406
110,2024-05-15 22:29:37.846804,-0.8124971,-1.4155625,-0.15375607,-1.5865698,-1.9737056,-5.9168406
111,2024-05-15 22:29:37.863479,-0.8124971,-1.4155625,-0.15375607,-1.5865698,-1.9737056,-5.9168406
112,2024-05-15 22:29:37.880115,-0.8124971,-1.4155625,-0.15375607,-1.5865698,-1.9737056,-5.9168406
113,2024-05-15 22:29:37.896784,-0.8124971,-1.4155625,-0.15375607,-1.5865698,-1.9737056,-5.9168406
114,2024-05-15 22:29:37.914365,-0.8124971,-1.4155625,-0.15375607,-1.5865698,-1.9737056,-5.9168406
115,2024-05-15 22:29:37.929991,-0.8124971,-1.4155625,-0.15375607,-1.5865698,-1.9737056,-5.9168406
116,2024-05-15 22:29:37.946798,-0.8124971,-1.4155625,-0.15375607,-1.5865698,-1.9737056,-5.9168406
117,2024-05-15 22:29:37.963406,-0.8124971,-1.4155625,-0.15375607,-1.5865698,-1.9737056,-5.9168406
118,2024-05-15 22:29:37.980580,-0.8124971,-1.4155625,-0.15375607,-1.5865698,-1.9737056,-5.9168406
119,2024-05-15 22:29:37.996212,-0.8124971,-1.4155625,-0.15375607,-1.5865698,-1.9737056,-5.9168406
120,2024-05-15 22:29:38.013023,-0.97333086,3.1049879,0.9640566,-1.5523612,-0.602924,-1.3151928
121,2024-05-15 22:29:38.030024,-0.91378087,3.0918088,1.0953594,-1.0453432,-1.681712,0.43066
122,2024-05-15 22:29:38.046751,-0.85032594,2.9160874,1.1217176,-0.28848112,-1.5467108,1.0720685
123,2024-05-15 22:29:38.063430,-0.8317776,2.6547022,0.87131494,0.5306892,-1.5741998,1.7256943
124,2024-05-15 22:29:38.080915,-0.94038314,2.2390423,0.92354316,2.0810652,-1.6945401,2.5491407
125,2024-05-15 22:29:38.096769,-0.9948079,2.0394034,0.7788172,2.6277895,-1.5992452,2.7666087
126,2024-05-15 22:29:38.113430,-1.1012168,1.6799071,0.53305155,3.2716415,-1.4520267,3.1569517
127,2024-05-15 22:29:38.129531,-1.1248904,1.3084214,0.4566311,3.8611264,-1.1826351,3.6480873
128,2024-05-15 22:29:38.146202,-0.9811407,0.8256762,0.044662476,4.4866524,-0.8210029,3.9730675
129,2024-05-15 22:29:38.163121,-1.0140883,0.78809136,0.016595893,4.542852,-0.72692966,4.0683627
130,2024-05-15 22:29:38.179547,-1.0965797,0.5445222,-0.06711575,4.4005203,-0.8888089,4.4214425
131,2024-05-15 22:29:38.213571,-0.92500746,0.20988922,0.024161667,4.3223295,-0.70616025,4.788573
132,2024-05-15 22:29:38.230089,-0.78247803,0.16717921,0.09811102,4.358371,-0.5314528,4.773301
133,2024-05-15 22:29:38.245717,-0.6643543,0.17401282,0.25845662,4.3919683,-0.09101892,4.4849725
134,2024-05-15 22:29:38.262763,-1.01238,0.1244692,0.6343353,4.6332603,0.61636305,3.663359
135,2024-05-15 22:29:38.279630,-1.5310321,0.4966565,0.55892164,4.7774243,0.6908886,2.0824397
136,2024-05-15 22:29:38.296266,-1.7716725,0.6172513,0.3226437,4.0877576,0.75625116,1.4782939
137,2024-05-15 22:29:38.313854,-2.4284306,0.6719201,-0.01952458,1.0804679,0.8729264,0.7079928
138,2024-05-15 22:29:38.331015,-2.7747784,0.2779812,0.21794313,-2.641534,0.35918877,0.9505063
139,2024-05-15 22:29:38.346952,-2.2719898,-0.38219365,0.92427534,-4.6207376,-0.08857546,1.2822062
140,2024-05-15 22:29:38.363796,-1.2605861,-0.8020026,1.4453375,-4.3818893,0.039095376,0.8533788
141,2024-05-15 22:29:38.379617,-0.7258568,-0.9808966,1.4699873,-2.7759244,0.40866885,-0.42394048
142,2024-05-15 22:29:38.396346,-0.48445365,-0.87448764,1.076323,-1.100321,0.3378085,-1.9028453
143,2024-05-15 22:29:38.414203,-0.45345837,-0.73903584,0.447601,-0.14309518,-0.10995574,-3.2577443
144,2024-05-15 22:29:38.430206,-0.5977267,-0.4846977,-0.10177187,-0.21395555,-0.6872234,-4.2394047
145,2024-05-15 22:29:38.446304,-0.66020536,-0.34460884,-0.2853029,-0.5169447,-0.7367035,-4.8014007
146,2024-05-15 22:29:38.463055,-0.66020536,-0.34460884,-0.2853029,-0.5169447,-0.7367035,-4.8014007
147,2024-05-15 22:29:38.479818,-0.66020536,-0.34460884,-0.2853029,-0.5169447,-0.7367035,-4.8014007
148,2024-05-15 22:29:38.496454,-0.66020536,-0.34460884,-0.2853029,-0.5169447,-0.7367035,-4.8014007
149,2024-05-15 22:29:38.512999,-0.66020536,-0.34460884,-0.2853029,-0.5169447,-0.7367035,-4.8014007
150,2024-05-15 22:29:38.529744,-0.66020536,-0.34460884,-0.2853029,-0.5169447,-0.7367035,-4.8014007
151,2024-05-15 22:29:38.546486,-0.66020536,-0.34460884,-0.2853029,-0.5169447,-0.7367035,-4.8014007
152,2024-05-15 22:29:38.564005,-0.66020536,-0.34460884,-0.2853029,-0.5169447,-0.7367035,-4.8014007
153,2024-05-15 22:29:38.582570,-1.3347796,1.2161677,0.045638707,-4.3036985,2.0384574,-3.2430835
154,2024-05-15 22:29:38.597495,-0.5703923,1.5678847,0.6558123,-3.797291,2.6645942,-3.0182853
155,2024-05-15 22:29:38.614260,-0.6253052,1.9390959,0.8949884,-3.0001118,2.4324653,-2.823419
156,2024-05-15 22:29:38.629911,-1.0650963,2.6654406,1.1341646,-1.594511,1.8057177,-1.9785925
157,2024-05-15 22:29:38.646501,-1.2430141,2.8272507,1.0214101,-1.1760683,1.3805555,-1.3035865
158,2024-05-15 22:29:38.662662,-1.059483,2.9029086,0.701207,-1.2347114,0.56382865,-0.15332718
159,2024-05-15 22:29:38.679344,-0.87863666,2.862639,0.63628775,-1.5273159,0.027488936,0.42394048
160,2024-05-15 22:29:38.697127,-0.7851626,2.6000333,0.6933971,-1.8229746,-1.29198,1.3445144
161,2024-05-15 22:29:38.713077,-0.7707633,2.4452705,0.76246536,-1.6207782,-1.8930714,1.7098118
162,2024-05-15 22:29:38.730445,-0.73317844,2.1248233,1.1173246,-0.2835942,-2.485,2.2406538
163,2024-05-15 22:29:38.746489,-0.87497574,1.8038882,1.0377619,2.1024454,-2.58396,2.552806
164,2024-05-15 22:29:38.762677,-1.0494766,1.6179165,0.761001,3.2398765,-2.7116308,2.8490756
165,2024-05-15 22:29:38.779818,-1.1241581,1.2615625,0.15473229,4.2307,-3.018896,3.5338554
166,2024-05-15 22:29:38.796478,-1.0968238,0.9562468,-0.23990828,4.11769,-3.101363,4.07386
167,2024-05-15 22:29:38.813103,-1.0409347,0.8115209,-0.2979939,3.9197695,-2.9852984,4.2785
168,2024-05-15 22:29:38.829812,-1.0726621,0.65190744,-0.1244692,3.909385,-2.5503623,4.479475
169,2024-05-15 22:29:38.846508,-1.2278825,0.6421451,0.060770255,4.397466,-1.9083431,4.6725082
170,2024-05-15 22:29:38.862594,-1.3525957,0.6746047,0.12349297,4.570341,-1.6328428,4.7714686
171,2024-05-15 22:29:38.880386,-1.5405504,0.8639931,0.2306341,4.544685,-0.7134906,5.3334646
172,2024-05-15 22:29:38.896262,-1.3596735,0.7741801,0.4300289,3.5141551,-0.19853121,5.720753
173,2024-05-15 22:29:38.912633,-0.91060805,0.6409248,0.9376984,2.906955,-0.20463985,5.435479
174,2024-05-15 22:29:38.929275,-0.697058,0.645806,1.1983516,2.7682886,-0.6988298,3.979787
175,2024-05-15 22:29:38.946423,-1.0907223,0.6736285,1.0079869,2.974761,-1.3921618,1.409877
176,2024-05-15 22:29:38.962582,-1.8873558,0.27139166,0.8220153,2.816547,-1.3720033,0.73426
177,2024-05-15 22:29:38.979760,-1.888332,-0.0319715,0.684367,2.2160664,-0.7996226,0.7324274
178,2024-05-15 22:29:38.996442,-1.3740729,-0.53744453,0.3031191,1.3413074,-0.79045963,0.50640726
179,2024-05-15 22:29:39.012846,-1.0426431,-0.74611354,0.20305562,0.6339254,-0.79412484,0.07941248
180,2024-05-15 22:29:39.029726,-0.44223174,-0.9750392,0.11031388,-0.9421069,-0.96944314,-1.2082914
181,2024-05-15 22:29:39.046403,-0.15180361,-1.0136002,0.34387666,-1.8577939,-1.241889,-2.806315
182,2024-05-15 22:29:39.063271,-0.24088451,-1.0397143,0.37121108,-1.7979292,-1.758681,-4.302324
183,2024-05-15 22:29:39.079686,-0.40562314,-1.0279996,0.32459614,-1.667204,-1.9694295,-4.7616944
184,2024-05-15 22:29:39.096373,-0.61285824,-0.9948079,0.28237423,-1.5224289,-2.0909917,-4.9449544
185,2024-05-15 22:29:39.113048,-0.61285824,-0.9948079,0.28237423,-1.5224289,-2.0909917,-4.9449544
186,2024-05-15 22:29:39.129692,-0.61285824,-0.9948079,0.28237423,-1.5224289,-2.0909917,-4.9449544
187,2024-05-15 22:29:39.146360,-0.61285824,-0.9948079,0.28237423,-1.5224289,-2.0909917,-4.9449544
188,2024-05-15 22:29:39.163030,-0.61285824,-0.9948079,0.28237423,-1.5224289,-2.0909917,-4.9449544
189,2024-05-15 22:29:39.179683,-0.61285824,-0.9948079,0.28237423,-1.5224289,-2.0909917,-4.9449544
190,2024-05-15 22:29:39.196338,-0.61285824,-0.9948079,0.28237423,-1.5224289,-2.0909917,-4.9449544
191,2024-05-15 22:29:39.213004,-0.61285824,-0.9948079,0.28237423,-1.5224289,-2.0909917,-4.9449544
192,2024-05-15 22:29:39.230621,-0.61285824,-0.9948079,0.28237423,-1.5224289,-2.0909917,-4.9449544
193,2024-05-15 22:29:39.245765,-1.0514292,-0.4373506,-0.22160399,-2.0679317,-1.0622946,-4.433049
194,2024-05-15 22:29:39.262478,-1.5093111,1.926893,1.170285,-3.9671116,1.8350391,-3.3848042
195,2024-05-15 22:29:39.279644,-2.0716188,2.408906,1.4060442,-3.108846,1.8032742,-3.0341678
196,2024-05-15 22:29:39.296315,-1.8622179,2.8223696,0.5274382,-2.0227275,0.81183994,-1.6218473
197,2024-05-15 22:29:39.312756,-1.3999429,2.854097,0.13740423,-2.7832549,-0.047647487,-0.31887165
198,2024-05-15 22:29:39.329626,-1.1868808,2.777463,0.32508424,-3.0740266,-0.24740042,0.2657264
199,2024-05-15 22:29:39.346314,-1.0582627,2.6983883,0.5716126,-3.0330987,-0.34208453,0.5644395
200,2024-05-15 22:29:39.362906,-1.0582627,2.6983883,0.5716126,-2.4387267,-0.64568454,1.0195341
201,2024-05-15 22:29:39.379635,-0.6221324,1.8273177,0.9489251,0.8856019,-1.9792033,1.346347
202,2024-05-15 22:29:39.396304,-0.52377737,1.3472265,0.43368974,2.8202121,-2.5185974,1.2345587
203,2024-05-15 22:29:39.412974,-0.51547945,0.9879743,-0.022941383,3.885561,-2.3695462,1.2834278
204,2024-05-15 22:29:39.429636,-0.50888985,0.79663336,-0.22697324,4.171446,-2.1239784,1.3610078
205,2024-05-15 22:29:39.446313,-0.48957884,0.53475994,-0.44052333,4.279569,-1.9004018,1.4856243
206,2024-05-15 22:29:39.462935,-0.6043163,0.35632357,-0.4795725,4.1286855,-2.1154263,1.6059648
207,2024-05-15 22:29:39.479587,-0.6296982,0.34460884,-0.46590528,4.1225767,-2.1325307,1.6346754
208,2024-05-15 22:29:39.496867,-0.81737816,0.28383857,-0.40293851,4.032169,-1.8362609,2.2547035
209,2024-05-15 22:29:39.513554,-0.59919107,0.36340126,-0.23307467,3.7328448,-0.88453287,2.987742
210,2024-05-15 22:29:39.529489,-0.5728329,0.42587993,-0.15058333,3.4610097,-0.76052725,3.0854805
211,2024-05-15 22:29:39.546233,-0.44955346,0.8739995,0.27041543,2.8037188,-0.947452,2.9791899
212,2024-05-15 22:29:39.562885,-0.28359452,1.5708134,1.5739862,2.8470902,-0.5345071,1.6530013
213,2024-05-15 22:29:39.579612,-0.65068716,1.8858913,2.4789505,3.4903314,0.20280726,1.0054842
214,2024-05-15 22:29:39.596250,-2.204142,1.7130988,2.6095517,7.532427,1.822211,0.3659083
215,2024-05-15 22:29:39.612763,-2.663,1.3252614,0.9494132,7.76089,0.34330627,0.93401295
216,2024-05-15 22:29:39.630129,-2.6700778,1.1002406,0.10714114,6.2031837,-0.6035349,1.1362094
217,2024-05-15 22:29:39.646210,-2.4843197,0.5633146,-0.39805737,2.5434902,-0.22785273,1.5949692
218,2024-05-15 22:29:39.662838,-1.7133428,-0.04490653,0.47347105,-1.512655,1.5534303,3.3066137
219,2024-05-15 22:29:39.679497,-1.2857242,-0.46029195,0.89718497,-2.211485,1.7550159,3.5063665
220,2024-05-15 22:29:39.696800,-0.38585448,-0.89864933,1.3469825,-1.9280435,1.3884968,2.5344799
221,2024-05-15 22:29:39.713483,-0.015375607,-1.0567983,1.1617429,0.05665775,0.42455134,0.47158796
222,2024-05-15 22:29:39.730245,0.017572122,-1.0670488,0.8432483,0.8037459,0.15760323,-0.42455134
223,2024-05-15 22:29:39.746164,0.017572122,-1.0670488,0.8432483,0.8037459,0.15760323,-0.42455134
224,2024-05-15 22:29:39.762826,0.017572122,-1.0670488,0.8432483,0.8037459,0.15760323,-0.42455134
225,2024-05-15 22:29:39.779493,0.017572122,-1.0670488,0.8432483,0.8037459,0.15760323,-0.42455134
226,2024-05-15 22:29:39.796135,0.017572122,-1.0670488,0.8432483,0.8037459,0.15760323,-0.42455134
227,2024-05-15 22:29:39.812810,0.017572122,-1.0670488,0.8432483,0.8037459,0.15760323,-0.42455134
228,2024-05-15 22:29:39.829465,0.017572122,-1.0670488,0.8432483,0.8037459,0.15760323,-0.42455134
229,2024-05-15 22:29:39.846105,0.017572122,-1.0670488,0.8432483,0.8037459,0.15760323,-0.42455134
230,2024-05-15 22:29:39.863700,0.017572122,-1.0670488,0.8432483,0.8037459,0.15760323,-0.42455134
231,2024-05-15 22:29:39.879322,0.017572122,-1.0670488,0.8432483,0.8037459,0.15760323,-0.42455134
232,2024-05-15 22:29:39.896242,-0.6433654,-0.44369608,-0.18206671,-3.7997346,-0.17715092,-2.3451116
233,2024-05-15 22:29:39.912781,-1.4419208,1.3635783,1.1878572,-6.489985,1.6084082,-4.3255367
234,2024-05-15 22:29:39.929335,-1.9449532,1.8038882,1.717492,-6.083149,1.9230038,-4.501466
235,2024-05-15 22:29:39.946088,-2.4953022,2.1953561,1.5642239,-2.5169175,2.140472,-3.0201178
236,2024-05-15 22:29:39.962642,-1.6528167,2.4848077,0.48787045,-2.424066,1.0231993,-2.1502457
237,2024-05-15 22:29:39.979327,-1.4712076,2.5312092,0.22746135,-3.1381674,0.42821655,-1.8625281
238,2024-05-15 22:29:39.996895,-1.4665705,2.5929558,0.7971215,-4.014148,-0.4196644,-0.97494096
239,2024-05-15 22:29:40.012273,-1.251312,2.442098,1.195911,-3.0300443,-0.9663888,0.062308256
240,2024-05-15 22:29:40.028505,-1.1846844,2.3859646,1.2012802,-2.844952,-1.0525209,0.1704314
241,2024-05-15 22:29:40.046086,-0.6575208,1.892237,0.9882183,-0.3061962,-2.252871,0.72387534
242,2024-05-15 22:29:40.062643,-0.44564855,1.4707196,0.641657,1.6412421,-2.6670377,0.5216789
243,2024-05-15 22:29:40.079863,-0.44394013,1.0943832,0.18475133,2.5471554,-2.6487117,0.40866885
244,2024-05-15 22:29:40.096051,-0.48152497,0.9301327,-0.011226633,3.8531852,-2.6010642,0.35002577
245,2024-05-15 22:29:40.112645,-0.5440341,0.658497,-0.39268813,4.5587344,-2.3780985,0.4465425
246,2024-05-15 22:29:40.129356,-0.556237,0.5950421,-0.47713193,4.6088257,-2.3402247,0.48075095
247,2024-05-15 22:29:40.146000,-0.5396411,0.46492904,-0.6577648,4.7279444,-1.423316,0.9981538
248,2024-05-15 22:29:40.162949,-0.5301228,0.43979117,-0.6782656,4.610658,-1.1520919,1.146594
249,2024-05-15 22:29:40.179621,-0.5755175,0.44882128,-0.43320164,3.8183658,-0.040927973,2.3554964
250,2024-05-15 22:29:40.196024,-0.5337837,0.49568027,-0.24503349,3.6283867,0.09896017,2.679255
251,2024-05-15 22:29:40.212657,0.06467517,0.8022467,0.3372871,3.3663256,0.47158796,2.4452937
252,2024-05-15 22:29:40.229319,-0.16498269,1.3848114,1.633048,4.081038,2.339614,0.099571034
253,2024-05-15 22:29:40.245976,-0.94868106,1.4297179,1.9503224,4.8812714,2.9706378,-0.43066
254,2024-05-15 22:29:40.262524,-1.8019358,1.4636419,1.9796093,5.780465,3.0567696,-0.31887165
255,2024-05-15 22:29:40.279007,-2.7142522,1.1339204,0.45297024,3.9924626,1.0995574,1.5864171
256,2024-05-15 22:29:40.295968,-2.585634,0.9045067,0.18963248,2.1335995,0.5723807,1.8289305
257,2024-05-15 22:29:40.312662,-2.2790678,0.3585201,0.48396555,-0.9213375,0.5180137,2.207667
258,2024-05-15 22:29:40.328797,-1.658674,-0.20134723,1.0572865,-2.0722077,1.1954633,2.637716
259,2024-05-15 22:29:40.346591,-1.3159872,-0.4471129,1.1009728,-2.161394,1.2895365,2.5589144
260,2024-05-15 22:29:40.362503,-0.6121261,-0.7495303,1.0875497,-1.7313448,0.9981538,1.5296066
261,2024-05-15 22:29:40.379296,-0.6121261,-0.7495303,1.0875497,-1.7313448,0.9981538,1.5296066
262,2024-05-15 22:29:40.395944,-0.6121261,-0.7495303,1.0875497,-1.7313448,0.9981538,1.5296066
263,2024-05-15 22:29:40.412596,-0.6121261,-0.7495303,1.0875497,-1.7313448,0.9981538,1.5296066
264,2024-05-15 22:29:40.429277,-0.6121261,-0.7495303,1.0875497,-1.7313448,0.9981538,1.5296066
265,2024-05-15 22:29:40.445925,-0.6121261,-0.7495303,1.0875497,-1.7313448,0.9981538,1.5296066
266,2024-05-15 22:29:40.462571,-0.6121261,-0.7495303,1.0875497,-1.7313448,0.9981538,1.5296066
267,2024-05-15 22:29:40.479223,-0.6121261,-0.7495303,1.0875497,-1.7313448,0.9981538,1.5296066
268,2024-05-15 22:29:40.495935,-0.6121261,-0.7495303,1.0875497,-1.7313448,0.9981538,1.5296066
269,2024-05-15 22:29:40.513573,-0.6121261,-0.7495303,1.0875497,-1.7313448,0.9981538,1.5296066
270,2024-05-15 22:29:40.529202,-0.13081467,-0.38341394,-0.48835856,-2.1351268,0.73914695,-2.2681427
271,2024-05-15 22:29:40.546945,-0.2818861,0.68534327,0.054424766,-4.1314344,1.3298537,-2.747061
272,2024-05-15 22:29:40.562628,-0.3116611,1.3813945,0.25796852,-4.21329,1.432479,-3.7458258
273,2024-05-15 22:29:40.578849,-1.6181606,2.0750358,0.78247803,-3.8235583,1.7935003,-4.457484
274,2024-05-15 22:29:40.612741,-1.577647,2.718157,0.1889003,-2.541963,0.6114761,-1.649947
275,2024-05-15 22:29:40.628627,-1.3264817,2.7447593,-0.0026846298,-2.9011517,0.31948254,-1.3090842
276,2024-05-15 22:29:40.645102,-0.9428237,2.7340207,0.37877685,-3.2994359,-0.24312437,-0.4746423
277,2024-05-15 22:29:40.661810,-0.89254785,2.71352,0.5664874,-2.886491,-0.30482176,-0.30298916
278,2024-05-15 22:29:40.679769,-0.8654575,2.5238876,0.7085287,-1.6836973,-0.65179324,0.11056661
279,2024-05-15 22:29:40.696099,-0.89035136,2.2990801,0.7180469,-0.44974953,-1.1924089,0.59742624
280,2024-05-15 22:29:40.712735,-0.86204064,1.5874094,0.46224442,0.7823657,-1.7953329,1.1728612
281,2024-05-15 22:29:40.729490,-0.7195113,1.1922501,0.33899552,2.467132,-2.7568347,1.4935656
282,2024-05-15 22:29:40.746073,-0.7941928,0.9962722,0.30970863,3.0083587,-2.8845057,1.4220943
283,2024-05-15 22:29:40.762430,-0.8681421,0.5943099,0.13911264,4.167781,-3.0164526,1.6016886
284,2024-05-15 22:29:40.779523,-0.72756517,0.32459614,-0.082735404,5.0718613,-2.787989,1.7397442
285,2024-05-15 22:29:40.795809,-0.6736285,0.23429495,-0.18133454,5.3467507,-2.4923303,1.6982054
286,2024-05-15 22:29:40.812491,-0.66093755,0.2608972,-0.28969595,5.504965,-1.5503759,1.7599027
287,2024-05-15 22:29:40.829429,-0.692909,0.40708748,-0.19988288,5.43777,-1.1087204,1.8924606
288,2024-05-15 22:29:40.845570,-0.692909,0.40708748,-0.19988288,5.241682,-0.4392121,2.2204952
289,2024-05-15 22:29:40.862019,-0.51694375,0.59284556,-0.010982576,4.5055895,0.19914207,2.7036896
290,2024-05-15 22:29:40.878928,-0.102504045,0.9057269,0.9340376,4.01201,0.32498032,2.5442538
291,2024-05-15 22:29:40.895795,-0.41562948,1.0487446,1.2361805,4.303393,1.1496484,0.31215215
292,2024-05-15 22:29:40.912436,-1.7897328,1.0392263,1.1717494,4.881882,1.2705997,-0.5369505
293,2024-05-15 22:29:40.928842,-2.3637555,0.918662,0.4417436,3.9564214,1.215011,0.21502456
294,2024-05-15 22:29:40.945751,-2.3076222,0.8044432,0.14106509,2.5764768,1.1936307,0.72082096
295,2024-05-15 22:29:40.962172,-2.110424,0.5938218,-0.037584815,-0.36667186,0.8765916,1.3469579
296,2024-05-15 22:29:40.978584,-1.2642471,-0.15229172,0.5269501,-1.789377,0.6273586,1.518611
297,2024-05-15 22:29:40.995749,-1.102193,-0.2523552,0.6177394,-3.3092098,0.2565634,1.5082263
298,2024-05-15 22:29:41.012414,-0.66020536,-0.46932206,0.8317776,-3.4185545,0.03481932,1.0580186
299,2024-05-15 22:29:41.029085,-0.66020536,-0.46932206,0.8317776,-3.4185545,0.03481932,1.0580186
300,2024-05-15 22:29:41.045738,-0.66020536,-0.46932206,0.8317776,-3.4185545,0.03481932,1.0580186
301,2024-05-15 22:29:41.062332,-0.66020536,-0.46932206,0.8317776,-3.4185545,0.03481932,1.0580186
302,2024-05-15 22:29:41.079032,-0.66020536,-0.46932206,0.8317776,-3.4185545,0.03481932,1.0580186
303,2024-05-15 22:29:41.095720,-0.66020536,-0.46932206,0.8317776,-3.4185545,0.03481932,1.0580186
304,2024-05-15 22:29:41.112365,-0.66020536,-0.46932206,0.8317776,-3.4185545,0.03481932,1.0580186
305,2024-05-15 22:29:41.129037,-0.66020536,-0.46932206,0.8317776,-3.4185545,0.03481932,1.0580186
306,2024-05-15 22:29:41.145679,-0.66020536,-0.46932206,0.8317776,-3.4185545,0.03481932,1.0580186
307,2024-05-15 22:29:41.161924,-0.28798756,0.53793263,-0.16815543,-4.6060767,1.2681563,-1.3390167
308,2024-05-15 22:29:41.180186,-0.055400997,0.71243364,-0.11251039,-4.9243374,1.78617,-1.7690657
309,2024-05-15 22:29:41.195671,0.2072046,1.0799838,0.1210524,-4.934722,1.9236146,-1.967597
310,2024-05-15 22:29:41.212120,-0.36242503,1.8753968,0.7580723,-4.2255077,2.670703,-3.6920695
311,2024-05-15 22:29:41.228839,-1.5190734,2.319093,0.9735749,-2.6219864,2.1288655,-3.222925
312,2024-05-15 22:29:41.245664,-1.5676408,2.413299,0.91085213,-2.414903,1.9608774,-3.0121765
313,2024-05-15 22:29:41.262346,-1.1600347,2.7057102,0.28383857,-2.1015291,0.44226643,-1.073901
314,2024-05-15 22:29:41.279813,-1.0048141,2.6293201,0.32679266,-2.3086126,-0.49174652,-0.014049901
315,2024-05-15 22:29:41.295672,-0.69388527,2.391578,0.5445222,-2.229811,-0.7629707,0.15454891
316,2024-05-15 22:29:41.311772,-0.56063,2.1631403,0.7773528,-1.7508925,-1.396438,0.2602286
317,2024-05-15 22:29:41.328956,-0.5511118,2.1216507,0.81786627,-1.6116152,-1.5118915,0.24312437
318,2024-05-15 22:29:41.345384,-0.6323828,1.7819229,1.0355655,-1.6116152,-1.5118915,0.24312437
319,2024-05-15 22:29:41.362293,-1.3050046,1.1536891,0.6650865,5.02849,-3.345098,0.5131268
320,2024-05-15 22:29:41.379512,-1.1253785,0.7505066,-0.15473229,6.1365995,-3.285844,1.2040154
321,2024-05-15 22:29:41.395639,-0.96308035,0.60944146,-0.44613665,6.1860795,-3.2064316,1.368949
322,2024-05-15 22:29:41.412311,-0.66215783,0.4144092,-0.8915716,5.584988,-2.791654,1.6175711
323,2024-05-15 22:29:41.428419,-0.63628775,0.422219,-0.8776604,5.105459,-2.3041837,1.6548339
324,2024-05-15 22:29:41.445270,-0.64385355,0.5247536,-0.6172513,4.6033278,-1.2596041,1.8686367
325,2024-05-15 22:29:41.461746,-0.66215783,0.577714,-0.35925224,4.402964,-0.39400807,2.1862867
326,2024-05-15 22:29:41.478687,-0.46688148,0.70389163,0.117879644,3.9778018,0.43554693,2.705522
327,2024-05-15 22:29:41.495570,-0.307024,0.7004748,0.25040275,3.1513011,1.0073168,3.0396655
328,2024-05-15 22:29:41.512243,-0.2596769,0.8283608,0.8356825,1.4323263,1.7159204,2.3823745
329,2024-05-15 22:29:41.529333,-0.7187791,0.46541715,2.0362306,0.5111415,1.6340646,1.4361442
330,2024-05-15 22:29:41.545548,-0.9396509,0.26211748,2.1294606,0.93447113,1.1184943,1.0897835
331,2024-05-15 22:29:41.562242,-1.4370396,-0.076389916,1.6132795,2.7499626,-1.6420058,-0.72387534
332,2024-05-15 22:29:41.579109,-1.6511083,-0.10055158,1.255705,3.2178855,-2.2797492,-1.3078625
333,2024-05-15 22:29:41.595546,-1.5608071,-0.05418071,0.73732746,2.8489227,-2.2492058,-1.6578883
334,2024-05-15 22:29:41.611921,-1.4341109,0.050763905,0.13325526,0.4812091,-0.53878313,-1.7672331
335,2024-05-15 22:29:41.628880,-1.5722778,0.12007617,0.17523311,-1.4106406,-0.061086524,-1.6145169
336,2024-05-15 22:29:41.645387,-1.4402124,0.032703668,0.31825066,-2.6439774,-0.7800749,-1.4776831
337,2024-05-15 22:29:41.662167,-1.4402124,0.032703668,0.31825066,-2.6439774,-0.7800749,-1.4776831
338,2024-05-15 22:29:41.678837,-1.4402124,0.032703668,0.31825066,-2.6439774,-0.7800749,-1.4776831
339,2024-05-15 22:29:41.695518,-1.4402124,0.032703668,0.31825066,-2.6439774,-0.7800749,-1.4776831
340,2024-05-15 22:29:41.712160,-1.4402124,0.032703668,0.31825066,-2.6439774,-0.7800749,-1.4776831
341,2024-05-15 22:29:41.728842,-1.4402124,0.032703668,0.31825066,-2.6439774,-0.7800749,-1.4776831
342,2024-05-15 22:29:41.745467,-1.4402124,0.032703668,0.31825066,-2.6439774,-0.7800749,-1.4776831
343,2024-05-15 22:29:41.762138,-1.4402124,0.032703668,0.31825066,-2.6439774,-0.7800749,-1.4776831
344,2024-05-15 22:29:41.778809,-1.4402124,0.032703668,0.31825066,-2.6439774,-0.7800749,-1.4776831
345,2024-05-15 22:29:41.794883,-1.4402124,0.032703668,0.31825066,-2.6439774,-0.7800749,-1.4776831
346,2024-05-15 22:29:41.811708,0.23600335,0.6921768,0.5957743,-5.124701,3.4061847,-1.8790215
347,2024-05-15 22:29:41.829684,-0.041977845,1.1822438,0.966009,-4.224897,4.4171667,-3.1496212
348,2024-05-15 22:29:41.845325,-0.72195184,1.5117517,1.1856606,-3.370907,4.918076,-3.6517525
349,2024-05-15 22:29:41.862132,-1.6984553,2.1050549,1.0521613,-1.7234036,4.003,-2.7348437
350,2024-05-15 22:29:41.879508,-0.92378724,2.5502458,0.5921134,-1.9775236,1.4251486,-1.5332718
351,2024-05-15 22:29:41.895459,-0.92378724,2.5502458,0.5921134,-1.9775236,1.4251486,-1.5332718
352,2024-05-15 22:29:41.911864,-0.77100736,2.5802648,0.98406935,-1.4234687,0.35369098,-1.5155567
353,2024-05-15 22:29:41.929382,-0.7341547,2.5712345,1.1522248,-1.195616,0.22052236,-1.5460999
354,2024-05-15 22:29:41.944911,-1.6679484,2.0511181,1.1717494,1.5960382,-1.709201,-0.5552765
355,2024-05-15 22:29:41.962101,-1.658918,1.7597138,0.84105176,2.9894218,-2.9034426,0.56688297
356,2024-05-15 22:29:41.979023,-1.2366686,1.2686402,0.2255089,4.1610613,-4.02438,1.3249667
357,2024-05-15 22:29:41.995269,-0.8520344,0.786627,-0.26114124,4.362647,-4.1563272,1.3536774
358,2024-05-15 22:29:42.012062,-0.5918693,0.4949481,-0.5664874,4.4719915,-3.8270707,1.3286319
359,2024-05-15 22:29:42.028833,-0.5118186,0.35461518,-0.6575208,4.2728496,-2.4550674,1.1881329
360,2024-05-15 22:29:42.044850,-0.5118186,0.35461518,-0.6575208,4.2728496,-2.4550674,1.1881329
361,2024-05-15 22:29:42.061729,-0.6057806,0.3487578,-0.56063,4.2697954,-0.93584555,1.6236799
362,2024-05-15 22:29:42.078216,-0.6748488,0.43588626,-0.40562314,4.0150647,-0.33536503,2.329229
363,2024-05-15 22:29:42.094811,-0.53231937,0.5901609,-0.23039004,3.6613736,-0.31337386,2.5179865
364,2024-05-15 22:29:42.110227,-0.38756293,0.79858583,0.38561043,3.0560062,-0.021991149,2.5082128
365,2024-05-15 22:29:42.127852,-0.39927766,1.0985322,1.2322756,4.018119,1.35551,1.6847663
366,2024-05-15 22:29:42.144823,-0.39927766,1.0985322,1.2322756,4.018119,1.35551,1.6847663
367,2024-05-15 22:29:42.161529,-1.2932898,1.2703484,1.2525322,4.8800497,2.1844542,0.10262536
368,2024-05-15 22:29:42.178325,-2.4433181,1.0831566,0.7644178,4.3217187,1.0238101,0.12217305
369,2024-05-15 22:29:42.194987,-2.6612918,0.7080406,0.19475769,2.189799,0.43188173,0.97005403
370,2024-05-15 22:29:42.211878,-2.2146363,0.36022848,0.06833603,-0.061850104,0.6291912,1.8961257
371,2024-05-15 22:29:42.228529,-1.7099261,-0.048323333,0.2506468,-1.6696475,0.852157,2.406809
372,2024-05-15 22:29:42.245231,-0.98040843,-0.53622425,0.6140785,-2.9451342,0.97249746,2.4355197
373,2024-05-15 22:29:42.261859,-0.6248171,-0.641657,0.7793053,-2.9616275,0.9505063,2.1331415
374,2024-05-15 22:29:42.279684,-0.1786499,-0.6333591,0.82909304,-1.7967074,0.63713247,0.7330383
375,2024-05-15 22:29:42.295306,-0.16547081,-0.62994224,0.81884265,-1.7038559,0.61453044,0.64873886
376,2024-05-15 22:29:42.311986,-0.16547081,-0.62994224,0.81884265,-1.7038559,0.61453044,0.64873886
377,2024-05-15 22:29:42.328654,-0.16547081,-0.62994224,0.81884265,-1.7038559,0.61453044,0.64873886
378,2024-05-15 22:29:42.345306,-0.16547081,-0.62994224,0.81884265,-1.7038559,0.61453044,0.64873886
379,2024-05-15 22:29:42.361790,-0.16547081,-0.62994224,0.81884265,-1.7038559,0.61453044,0.64873886
380,2024-05-15 22:29:42.378797,-0.09176553,-0.2328306,-0.6563005,-1.8186985,0.63285637,-1.5839735
381,2024-05-15 22:29:42.394013,-0.09176553,-0.2328306,-0.6563005,-1.8186985,0.63285637,-1.5839735
382,2024-05-15 22:29:42.411948,-0.09176553,-0.2328306,-0.6563005,-1.8186985,0.63285637,-1.5839735
383,2024-05-15 22:29:42.428797,-0.20256752,0.18694785,-0.039537273,-4.1638103,1.0366384,-1.4220943
384,2024-05-15 22:29:42.444697,-0.0021965152,0.6487347,-0.09225364,-4.1173844,1.1386528,-1.9956968
385,2024-05-15 22:29:42.462807,0.019036464,0.6487347,-0.09225364,-4.132656,1.1673635,-2.0702224
386,2024-05-15 22:29:42.478089,0.019036464,0.6487347,-0.09225364,-4.132656,1.1673635,-2.0702224
387,2024-05-15 22:29:42.495210,-2.3986557,2.4316034,0.96576506,-1.8431332,2.8600712,-3.0305026
388,2024-05-15 22:29:42.511700,-1.8636822,2.598325,-0.09835507,-2.3391557,1.3481796,-1.7098118
389,2024-05-15 22:29:42.528138,-1.3901806,2.5241315,-0.24088451,-3.769802,0.22113322,-1.2345587
390,2024-05-15 22:29:42.544902,-1.0524054,2.3679044,0.45931572,-4.6127963,-0.26145032,-0.7293731
391,2024-05-15 22:29:42.561817,-1.0053023,2.3330042,0.6987664,-4.4533606,-0.21868975,-0.6420194
392,2024-05-15 22:29:42.579355,-0.8671659,2.1214066,1.2364244,-2.6574166,-0.14660765,-0.13805555
393,2024-05-15 22:29:42.595736,-0.6426332,1.8441576,1.1949348,-0.80832744,-1.1734722,0.12095132
394,2024-05-15 22:29:42.611381,-0.5669755,1.6215774,1.1246463,0.29794952,-2.0134118,0.122783914
395,2024-05-15 22:29:42.628518,-0.51694375,1.2784024,0.9359901,1.9124664,-3.0573804,0.081855945
396,2024-05-15 22:29:42.645172,-0.46370876,0.803467,0.4991276,3.9484801,-3.7507126,0.13194689
397,2024-05-15 22:29:42.661350,-0.43466598,0.6411689,0.298482,4.59111,-3.813021,0.1881465
398,2024-05-15 22:29:42.678489,-0.29384494,0.44735694,-0.14594623,5.6204185,-3.8515053,0.2968805
399,2024-05-15 22:29:42.695084,-0.19451363,0.4556549,-0.53671235,5.8745384,-3.5075881,0.30604348
400,2024-05-15 22:29:42.711355,-0.31678632,0.6555683,-0.6409248,5.403561,-2.3463335,0.6310238
401,2024-05-15 22:29:42.727966,-0.4756676,0.991147,-0.35632357,4.8171306,-0.5699373,1.4856243
402,2024-05-15 22:29:42.744714,-0.5145032,1.1060979,-0.12373702,4.553237,0.13255776,1.8692477
403,2024-05-15 22:29:42.762392,-0.5132829,1.1397778,-0.044662476,4.4884853,0.2968805,1.9230038
404,2024-05-15 22:29:42.779096,-0.82079506,1.5393301,1.1412421,3.9680278,1.7647897,1.0922271
405,2024-05-15 22:29:42.795147,-1.9344587,1.5918025,1.6684363,4.265519,1.5216653,0.48991394
406,2024-05-15 22:29:42.811822,-2.4320915,1.3828589,1.5639799,4.2502475,1.3066407,0.6469063
407,2024-05-15 22:29:42.828465,-2.858246,0.901578,1.080228,3.0059152,0.93462384,1.3817772
408,2024-05-15 22:29:42.845131,-2.464307,0.31751847,0.7380596,0.762818,0.20158553,2.2821925
409,2024-05-15 22:29:42.861792,-2.0923638,-0.034900185,0.7324463,-0.3294091,-0.17592919,2.6090055
410,2024-05-15 22:29:42.878360,-1.0877936,-0.5926015,0.93110895,-1.6134478,-0.49602258,2.5509732
411,2024-05-15 22:29:42.895111,-0.37682438,-0.81518173,1.0209221,-1.5468636,-0.31520647,1.5210545
412,2024-05-15 22:29:42.911621,-0.18743597,-0.8366587,0.99041486,-1.0129673,-0.20891592,0.5546656
413,2024-05-15 22:29:42.928429,-0.10396838,-0.77222764,0.62091213,0.024892759,-0.14660765,-0.89980453
414,2024-05-15 22:29:42.945055,-0.10396838,-0.77222764,0.62091213,0.024892759,-0.14660765,-0.89980453
415,2024-05-15 22:29:42.961512,-0.10396838,-0.77222764,0.62091213,0.024892759,-0.14660765,-0.89980453
416,2024-05-15 22:29:42.977200,-0.10396838,-0.77222764,0.62091213,0.024892759,-0.14660765,-0.89980453
417,2024-05-15 22:29:42.992419,-0.10396838,-0.77222764,0.62091213,0.024892759,-0.14660765,-0.89980453
418,2024-05-15 22:29:43.011722,-0.10396838,-0.77222764,0.62091213,0.024892759,-0.14660765,-0.89980453
419,2024-05-15 22:29:43.028392,-0.10396838,-0.77222764,0.62091213,0.024892759,-0.14660765,-0.89980453
420,2024-05-15 22:29:43.045025,-0.10396838,-0.77222764,0.62091213,0.024892759,-0.14660765,-0.89980453
421,2024-05-15 22:29:43.061701,-0.10396838,-0.77222764,0.62091213,0.024892759,-0.14660765,-0.89980453
422,2024-05-15 22:29:43.078375,-0.10396838,-0.77222764,0.62091213,0.024892759,-0.14660765,-0.89980453
423,2024-05-15 22:29:43.095027,-0.46541715,1.2913374,0.86740994,-4.5871396,2.4648414,-4.012774
424,2024-05-15 22:29:43.112700,-1.7216408,2.1687536,1.4736482,-2.8425088,2.9669726,-4.4990225
425,2024-05-15 22:29:43.128611,-2.2063386,2.4582057,1.4167827,-1.7380643,2.7091873,-3.7690387
426,2024-05-15 22:29:43.145007,-1.7355521,2.9158435,0.32069123,-1.5163202,1.0519099,-1.9755383
427,2024-05-15 22:29:43.161646,-1.3828589,2.883384,0.18865626,-2.147344,0.35308012,-1.4789047
428,2024-05-15 22:29:43.178314,-1.332339,2.80797,0.3956168,-2.905428,-0.26145032,-0.37690386
429,2024-05-15 22:29:43.195590,-1.1236701,2.512661,0.71975535,-2.4521658,-0.7367035,0.548557
430,2024-05-15 22:29:43.211336,-0.8456889,2.178516,0.8913276,-1.1705705,-1.3750577,0.8558222
431,2024-05-15 22:29:43.228305,-0.8105446,2.0023067,0.9364782,-0.44241914,-1.6548339,0.8405506
432,2024-05-15 22:29:43.244994,-0.82250345,1.6162081,0.87131494,1.5386169,-2.0677788,0.79351395
433,2024-05-15 22:29:43.261449,-0.92451936,1.2867004,0.6643543,3.2710307,-1.8741345,1.0024298
434,2024-05-15 22:29:43.278268,-0.9330614,1.1407541,0.48201308,3.8348594,-1.7647897,1.1722504
435,2024-05-15 22:29:43.294494,-0.92427534,0.78003746,0.013179091,4.3779187,-1.7568485,1.6945401
436,2024-05-15 22:29:43.328450,-0.7087728,0.25870067,0.010738519,4.398077,-1.7947221,2.1740694
437,2024-05-15 22:29:43.345021,-0.73732746,0.27456442,0.16058967,4.665025,-1.3573426,2.2473733
438,2024-05-15 22:29:43.360648,-0.76197726,0.30360723,0.24527754,4.8659997,-0.9987647,2.3353379
439,2024-05-15 22:29:43.377439,-0.77271575,0.3355787,0.3104408,5.136002,-0.3659083,2.5448647
440,2024-05-15 22:29:43.395541,-0.64360946,0.44149956,0.3961049,5.01444,0.66828656,2.9034426
441,2024-05-15 22:29:43.411243,-0.46834585,0.5750294,0.8835178,4.3876925,0.80878556,2.2919664
442,2024-05-15 22:29:43.427894,-0.48909074,0.62750167,0.98406935,4.2502475,0.675617,1.8649716
443,2024-05-15 22:29:43.444558,-0.8742436,0.7380596,1.1610109,3.8641808,-0.14905111,-0.034208454
444,2024-05-15 22:29:43.461587,-1.2696164,0.71267766,1.1927383,3.6693149,-0.10445796,-0.42455134
445,2024-05-15 22:29:43.478220,-2.007676,0.48152497,0.9469726,2.8452575,0.344528,0.14905111
446,2024-05-15 22:29:43.495572,-1.666972,0.14228538,0.4502856,1.021214,0.12217305,0.883922
447,2024-05-15 22:29:43.511503,-1.047036,-0.23380683,0.3048275,-1.0355693,-0.5021312,0.93523467
448,2024-05-15 22:29:43.528214,-1.047036,-0.23380683,0.3048275,-1.0355693,-0.5021312,0.93523467
449,2024-05-15 22:29:43.544748,-0.19573392,-0.5623384,0.55770135,-2.3098342,-0.7287622,-0.16920967
450,2024-05-15 22:29:43.561538,-0.111290105,-0.5198724,0.50888985,-1.9653062,-0.5357288,-1.4672983
451,2024-05-15 22:29:43.578202,-0.111290105,-0.5198724,0.50888985,-1.9653062,-0.5357288,-1.4672983
452,2024-05-15 22:29:43.594860,-0.111290105,-0.5198724,0.50888985,-1.9653062,-0.5357288,-1.4672983
453,2024-05-15 22:29:43.611522,-0.111290105,-0.5198724,0.50888985,-1.9653062,-0.5357288,-1.4672983
454,2024-05-15 22:29:43.628181,-0.111290105,-0.5198724,0.50888985,-1.9653062,-0.5357288,-1.4672983
455,2024-05-15 22:29:43.644845,-0.111290105,-0.5198724,0.50888985,-1.9653062,-0.5357288,-1.4672983
456,2024-05-15 22:29:43.661508,-0.111290105,-0.5198724,0.50888985,-1.9653062,-0.5357288,-1.4672983
457,2024-05-15 22:29:43.678163,-0.111290105,-0.5198724,0.50888985,-1.9653062,-0.5357288,-1.4672983
458,2024-05-15 22:29:43.694832,-0.111290105,-0.5198724,0.50888985,-1.9653062,-0.5357288,-1.4672983
459,2024-05-15 22:29:43.711221,-0.7058441,1.1009728,-0.031483386,-1.3025174,0.7593055,-2.6511552
460,2024-05-15 22:29:43.727660,-0.6833908,1.1951789,-0.14594623,-1.290911,0.93767816,-2.6212227
461,2024-05-15 22:29:43.744804,-0.79565716,1.4138541,-0.04344219,-1.7478381,1.0812315,-2.461787
462,2024-05-15 22:29:43.761916,-1.0580187,1.6259704,0.34387666,-1.8956676,0.87109387,-2.175291
463,2024-05-15 22:29:43.777884,-1.2959745,1.6982114,0.50156814,-1.7398969,0.80756384,-1.8716911
464,2024-05-15 22:29:43.794795,-1.4480221,1.8312227,0.49177536,-1.5236506,0.65668017,-0.9957104
465,2024-05-15 22:29:43.811453,-1.5747184,1.9405601,0.5240214,-1.9518672,0.6786713,-0.44348818
466,2024-05-15 22:29:43.828361,-1.5566581,1.9495904,0.60846525,-2.1394029,0.50762904,-0.14538592
467,2024-05-15 22:29:43.844787,-1.645495,1.990348,0.8242119,-2.2414174,-0.13622294,0.029932396
468,2024-05-15 22:29:43.861448,-1.7699642,2.0445285,1.1785829,-1.263422,-1.0409144,0.5821546
469,2024-05-15 22:29:43.875578,-1.8221923,2.0108488,1.2561932,-0.48823404,-1.1936307,0.97066486
470,2024-05-15 22:29:43.894525,-1.4394802,1.7846076,0.94209146,1.5734361,-1.3420709,1.9877555
471,2024-05-15 22:29:43.911331,-1.033857,1.4475341,0.43661842,2.625957,-1.4031575,2.3493876
472,2024-05-15 22:29:43.927674,-0.9689378,1.3137907,0.2779812,2.779895,-1.4581354,2.3976462
473,2024-05-15 22:29:43.944750,-0.94038314,0.9577111,0.13886857,3.3443346,-1.5418239,2.6230555
474,2024-05-15 22:29:43.961438,-1.0406905,0.6167632,0.16180995,3.9509237,-1.1502593,2.977968
475,2024-05-15 22:29:43.978092,-1.0040821,0.49519217,0.16303024,4.2404737,-0.9272934,3.1264083
476,2024-05-15 22:29:43.994741,-0.906215,0.29042813,0.15619664,4.5489607,-0.5839872,3.2162056
477,2024-05-15 22:29:44.011385,-0.906215,0.29042813,0.15619664,4.5489607,-0.5839872,3.2162056
478,2024-05-15 22:29:44.028016,-0.90231013,0.13032657,0.25211114,4.797583,0.037873644,3.3035593
479,2024-05-15 22:29:44.044724,-0.5103542,-0.375116,0.59333366,4.6405907,0.39278635,2.7708848
480,2024-05-15 22:29:44.061177,-0.41196862,-0.41758195,0.60895336,4.4781003,0.17470746,1.3011429
481,2024-05-15 22:29:44.077558,-0.7536793,-0.06955632,0.41245672,4.0700426,0.06719518,0.2742785
482,2024-05-15 22:29:44.094669,-1.2666876,-0.12202863,0.46614933,2.52211,0.77457714,-0.52778757
483,2024-05-15 22:29:44.111050,-1.6044934,-0.15912533,0.5376886,0.36942077,1.0128145,0.25228736
484,2024-05-15 22:29:44.129174,-1.1981075,-0.42148685,0.52548575,-0.20295998,0.752586,0.42210788
485,2024-05-15 22:29:44.144688,-0.9464845,-0.51791996,0.5298788,-2.1009183,-0.32498032,0.13316862
486,2024-05-15 22:29:44.160988,-0.57795805,-0.64434165,0.72878546,-3.194978,-0.6432411,-1.0555751
487,2024-05-15 22:29:44.177778,-0.6091974,-0.6221324,0.75489956,-3.226743,-0.6200282,-1.2516629
488,2024-05-15 22:29:44.194678,-0.6738726,-0.56599927,0.64360946,-2.819296,-0.59315014,-2.4440718
489,2024-05-15 22:29:44.211368,-0.6738726,-0.56599927,0.64360946,-2.819296,-0.59315014,-2.4440718
490,2024-05-15 22:29:44.227786,-0.6738726,-0.56599927,0.64360946,-2.819296,-0.59315014,-2.4440718
491,2024-05-15 22:29:44.244640,-0.6738726,-0.56599927,0.64360946,-2.819296,-0.59315014,-2.4440718
492,2024-05-15 22:29:44.261298,-0.6738726,-0.56599927,0.64360946,-2.819296,-0.59315014,-2.4440718
493,2024-05-15 22:29:44.277968,-0.6738726,-0.56599927,0.64360946,-2.819296,-0.59315014,-2.4440718
494,2024-05-15 22:29:44.294584,-0.6738726,-0.56599927,0.64360946,-2.819296,-0.59315014,-2.4440718
495,2024-05-15 22:29:44.311263,-0.6738726,-0.56599927,0.64360946,-2.819296,-0.59315014,-2.4440718
496,2024-05-15 22:29:44.327932,-0.6738726,-0.56599927,0.64360946,-2.819296,-0.59315014,-2.4440718
497,2024-05-15 22:29:44.344608,-0.6738726,-0.56599927,0.64360946,-2.819296,-0.59315014,-2.4440718
498,2024-05-15 22:29:44.361290,-0.6738726,-0.56599927,0.64360946,-2.819296,-0.59315014,-2.4440718
499,2024-05-15 22:29:44.377929,-0.6738726,-0.56599927,0.64360946,-2.819296,-0.59315014,-2.4440718
500,2024-05-15 22:29:44.394888,-0.978456,0.8779044,1.2230014,-4.337907,0.17959438,-1.4654657
501,2024-05-15 22:29:44.412946,-0.9601517,1.9530071,1.2391092,-1.2915218,2.0140228,0.06719518
502,2024-05-15 22:29:44.428474,-0.99187917,2.123603,0.8286049,-0.30680707,1.9669861,0.73364913
503,2024-05-15 22:29:44.444605,-0.9540503,2.1770518,0.63555557,-0.4466952,1.6065756,1.0341948
504,2024-05-15 22:29:44.461049,-0.9462405,2.1663132,0.6045603,-0.7612908,1.0946705,1.2840388
505,2024-05-15 22:29:44.477895,-0.9294005,2.14508,0.7422086,-0.9286679,0.61269784,1.4721853
506,2024-05-15 22:29:44.494962,-0.86863023,2.0608804,1.2359364,-0.3996586,-0.24251351,1.6261233
507,2024-05-15 22:29:44.510859,-1.1668682,1.7772858,1.57301,2.335185,-0.68416905,1.5601498
508,2024-05-15 22:29:44.527381,-1.2134831,1.3316069,0.99407566,4.291176,-1.133155,1.9523253
509,2024-05-15 22:29:44.544230,-1.1695529,1.1007288,0.66996765,4.6735773,-1.3652838,2.1740694
510,2024-05-15 22:29:44.561007,-1.1039014,0.67997396,0.25406358,4.766429,-1.8319849,2.615725
511,2024-05-15 22:29:44.577405,-1.0909665,0.5559929,0.20525214,4.728555,-1.9236146,2.7421741
512,2024-05-15 22:29:44.594521,-0.98455745,0.16473864,0.18743597,4.73222,-1.9840903,3.114191
513,2024-05-15 22:29:44.611131,-0.8390993,-0.13154685,0.2186753,4.974123,-1.6737708,3.1050282
514,2024-05-15 22:29:44.627406,-0.80566347,-0.18182266,0.25357547,5.0675855,-1.5112807,3.023783
515,2024-05-15 22:29:44.644163,-0.8032229,-0.26992732,0.31068486,5.3675203,-1.0317514,2.787989
516,2024-05-15 22:29:44.661804,-0.7600248,-0.38219365,0.13325526,5.1665454,-0.39950588,2.8032606
517,2024-05-15 22:29:44.677755,-0.68021804,-0.38829508,0.09322987,4.896543,-0.34269542,2.765998
518,2024-05-15 22:29:44.694463,-0.37023485,-0.47078642,0.032459613,3.8605156,-0.35796702,2.2650883
519,2024-05-15 22:29:44.711043,-0.3692586,-0.4148973,0.54842716,1.8892535,0.52534413,-0.72021013
520,2024-05-15 22:29:44.727901,-1.3096417,-0.464685,0.99090296,1.678505,0.99204516,-1.3573426
521,2024-05-15 22:29:44.744415,-1.5996122,-0.47932845,0.86472535,1.510517,2.6615398,-2.1771238
522,2024-05-15 22:29:44.760675,-1.837324,-0.49079913,0.45589894,0.61743206,2.6426032,-1.7165314
523,2024-05-15 22:29:44.777817,-1.8107218,-0.4720067,0.26504618,-0.10827587,2.307238,-1.4819591
524,2024-05-15 22:29:44.794263,-1.3359998,-0.6577648,0.0021965152,-3.3000467,0.3109304,-1.314582
525,2024-05-15 22:29:44.811108,-0.7424526,-0.6328709,0.25430766,-4.784449,-1.2333369,-2.5509732
526,2024-05-15 22:29:44.827298,-0.71853507,-0.55013555,0.3773125,-4.917618,-1.509448,-3.1740558
527,2024-05-15 22:29:44.844475,-1.2942661,-0.17962612,0.71072525,-4.501008,-1.7110336,-4.756197
528,2024-05-15 22:29:44.861100,-1.2942661,-0.17962612,0.71072525,-4.501008,-1.7110336,-4.756197
529,2024-05-15 22:29:44.877765,-1.2942661,-0.17962612,0.71072525,-4.501008,-1.7110336,-4.756197
530,2024-05-15 22:29:44.894414,-1.2942661,-0.17962612,0.71072525,-4.501008,-1.7110336,-4.756197
531,2024-05-15 22:29:44.911044,-1.2942661,-0.17962612,0.71072525,-4.501008,-1.7110336,-4.756197
532,2024-05-15 22:29:44.927743,-1.2942661,-0.17962612,0.71072525,-4.501008,-1.7110336,-4.756197
533,2024-05-15 22:29:44.944392,-1.2942661,-0.17962612,0.71072525,-4.501008,-1.7110336,-4.756197
534,2024-05-15 22:29:44.961055,-1.2942661,-0.17962612,0.71072525,-4.501008,-1.7110336,-4.756197
535,2024-05-15 22:29:44.978512,-1.2942661,-0.17962612,0.71072525,-4.501008,-1.7110336,-4.756197
536,2024-05-15 22:29:44.994408,-0.422219,1.1593024,-0.07590181,-2.854726,2.2736404,-2.1300871
537,2024-05-15 22:29:45.010907,-0.5616062,1.7841195,0.004881145,-2.9921706,3.2840116,-1.767844
538,2024-05-15 22:29:45.029009,-0.97235465,2.2480724,0.58479166,-3.1082351,3.3029485,-1.6426166
539,2024-05-15 22:29:45.044963,-1.0279996,2.272722,0.6567886,-3.000723,3.0140092,-1.2852604
540,2024-05-15 22:29:45.060773,-1.4172709,2.2646682,1.0216541,-2.2957842,1.1569787,0.23579398
541,2024-05-15 22:29:45.077251,-1.3804183,2.2622275,1.1209855,-1.9781344,0.5644395,0.75869465
542,2024-05-15 22:29:45.094359,-1.1092707,2.1626523,1.1885893,-1.2731959,-0.22357668,1.4929546
543,2024-05-15 22:29:45.111028,-1.0250709,1.88882,1.2496036,-0.16752979,-0.82772243,1.7171422
544,2024-05-15 22:29:45.127160,-1.0973119,1.5754505,1.2369126,0.27107146,-1.151481,1.7568485
545,2024-05-15 22:29:45.140505,-1.1473436,1.4575404,1.2334958,1.193478,-1.8918496,1.858863
546,2024-05-15 22:29:45.151068,-1.1937145,1.208846,1.1715053,2.0157025,-2.5277603,1.9840903
547,2024-05-15 22:29:45.161675,-1.1771187,1.0197017,1.0704657,2.770732,-2.9523118,2.0201313
548,2024-05-15 22:29:45.177549,-1.2195846,0.906215,1.0236065,3.2313244,-3.083037,2.035403
549,2024-05-15 22:29:45.194320,-1.3167193,0.684367,0.87082684,4.253302,-3.1716123,2.143526
550,2024-05-15 22:29:45.210929,-1.4319144,0.3333822,0.4424758,5.4597607,-3.3072245,2.4911084
551,2024-05-15 22:29:45.227313,-1.4319144,0.3333822,0.4424758,5.4597607,-3.3072245,2.4911084
552,2024-05-15 22:29:45.244297,-1.3852994,0.10055158,-0.08395569,6.3320765,-3.359148,2.4593434
553,2024-05-15 22:29:45.261009,-1.387496,-0.0043930304,-0.45687518,6.2099032,-2.456289,2.4715607
554,2024-05-15 22:29:45.277650,-1.3176955,-0.01586372,-0.530855,5.8110085,-1.6420058,2.660929
555,2024-05-15 22:29:45.294092,-1.1002406,0.0061014313,-0.41636166,4.928308,-0.14049901,2.905886
556,2024-05-15 22:29:45.310994,-1.0438634,-0.10884953,0.21989559,3.7426186,1.2144,2.4911084
557,2024-05-15 22:29:45.327595,-1.0355655,-0.1466784,0.43051702,3.4261904,1.3274102,1.9523253
558,2024-05-15 22:29:45.344289,-1.067781,-0.122272685,0.51865214,3.0963233,1.2431108,1.2296717
559,2024-05-15 22:29:45.360447,-1.7079737,-0.0656514,0.60041136,1.8709276,1.0934488,0.023823744
560,2024-05-15 22:29:45.378855,-1.9398282,-0.22648512,0.6902244,-0.34773505,0.8961393,1.1655309
561,2024-05-15 22:29:45.394048,-1.7594697,-0.33142975,0.658497,-1.1302534,0.5564982,1.4935656
562,2024-05-15 22:29:45.410633,-0.7756444,-0.67802155,0.77149546,-2.5572345,-0.535118,1.5919148
563,2024-05-15 22:29:45.427613,-0.39659303,-0.71853507,0.8696065,-3.5083518,-1.7739527,0.5558874
564,2024-05-15 22:29:45.444037,-0.1598575,-0.68241453,0.92744803,-3.512017,-1.930945,-0.18325958
565,2024-05-15 22:29:45.460339,-0.17669745,-0.5669755,0.88156533,-2.8883235,-1.5839735,-1.6737708
566,2024-05-15 22:29:45.477066,-0.45199403,-0.3648656,0.6035841,-1.8529071,-1.0396926,-2.765998
567,2024-05-15 22:29:45.494193,-0.582107,-0.27920148,0.35437113,-1.5700763,-0.8167268,-3.1312952
568,2024-05-15 22:29:45.510870,-0.582107,-0.27920148,0.35437113,-1.5700763,-0.8167268,-3.1312952
569,2024-05-15 22:29:45.527546,-0.582107,-0.27920148,0.35437113,-1.5700763,-0.8167268,-3.1312952
570,2024-05-15 22:29:45.544651,-0.582107,-0.27920148,0.35437113,-1.5700763,-0.8167268,-3.1312952
571,2024-05-15 22:29:45.560861,-0.582107,-0.27920148,0.35437113,-1.5700763,-0.8167268,-3.1312952
572,2024-05-15 22:29:45.577522,-0.582107,-0.27920148,0.35437113,-1.5700763,-0.8167268,-3.1312952
573,2024-05-15 22:29:45.594189,-0.582107,-0.27920148,0.35437113,-1.5700763,-0.8167268,-3.1312952
574,2024-05-15 22:29:45.610843,-0.582107,-0.27920148,0.35437113,-1.5700763,-0.8167268,-3.1312952
575,2024-05-15 22:29:45.627512,-0.582107,-0.27920148,0.35437113,-1.5700763,-0.8167268,-3.1312952
576,2024-05-15 22:29:45.643708,-0.582107,-0.27920148,0.35437113,-1.5700763,-0.8167268,-3.1312952
577,2024-05-15 22:29:45.660272,-0.81371737,1.6008325,1.0709537,-3.4014504,2.189952,-2.7641652
578,2024-05-15 22:29:45.678562,-1.3391726,2.1621642,0.78979975,-1.9720258,2.4483478,-2.4104743
579,2024-05-15 22:29:45.694049,-1.2671757,2.2837045,0.42563587,-1.5920676,1.46852,-1.2748758
580,2024-05-15 22:29:45.710796,-1.1907858,2.387429,0.25674823,-2.2774584,0.6951646,-0.7244862
581,2024-05-15 22:29:45.727445,-1.1300155,2.4228175,1.0223863,-3.0294335,-0.5900958,0.20708331
582,2024-05-15 22:29:45.744132,-1.1312358,2.41696,1.246919,-2.9536862,-0.66645396,0.28099802
583,2024-05-15 22:29:45.760812,-1.1143959,2.4057333,1.5486042,-0.2939789,-0.90285885,0.68477994
584,2024-05-15 22:29:45.777259,-1.6799071,1.9498343,1.4626656,3.2490394,-1.2589933,1.2144
585,2024-05-15 22:29:45.794085,-1.7184682,1.7931497,1.165892,3.8788416,-1.3836098,1.5497651
586,2024-05-15 22:29:45.810404,-1.7170037,1.391645,0.57673776,4.3137774,-1.7647897,2.3084598
587,2024-05-15 22:29:45.827459,-1.5505568,1.0150646,0.22404456,4.148233,-2.1820107,2.9553661
588,2024-05-15 22:29:45.843596,-1.3943295,0.7771088,0.12422514,3.9985712,-2.4147503,3.2253685
589,2024-05-15 22:29:45.860696,-1.1388016,0.38219365,0.22868164,4.158007,-2.411696,3.245527
590,2024-05-15 22:29:45.878102,-1.1256225,0.16644704,0.46102414,5.0211596,-1.6200147,3.0042353
591,2024-05-15 22:29:45.893699,-1.1758983,0.065163285,0.5042528,5.5831556,-1.0836749,2.9529226
592,2024-05-15 22:29:45.911099,-1.200548,-0.1330112,0.36364532,6.2893157,0.44593164,3.2577443
593,2024-05-15 22:29:45.927450,-1.0694894,-0.29604146,0.6431213,5.40967,1.4850134,3.0812044
594,2024-05-15 22:29:45.944346,-1.0707097,-0.41123646,0.7434289,5.0932417,1.5021176,2.6138923
595,2024-05-15 22:29:45.960175,-1.0450836,-0.27920148,0.4932397,4.234976,0.80573124,0.9279043
596,2024-05-15 22:29:45.978442,-1.6298753,-0.32630453,0.49177536,3.3095152,0.76174897,0.19058995
597,2024-05-15 22:29:45.993547,-1.7331116,-0.3790209,0.63726395,1.0957395,1.1178834,0.38912117
598,2024-05-15 22:29:46.010739,-1.5798436,-0.44564855,0.81371737,0.25396723,1.0519099,0.81245077
599,2024-05-15 22:29:46.027636,-0.7900438,-0.82445586,0.85813576,-1.0105238,-0.10751228,0.6969972
600,2024-05-15 22:29:46.044215,-0.014887493,-0.8915716,0.74416107,-1.6348281,-0.83260936,-0.86315256
601,2024-05-15 22:29:46.060849,0.051252022,-0.8859584,0.68705165,-1.7991508,-0.75136423,-1.7201965
602,2024-05-15 22:29:46.076478,0.03294773,-0.8488616,0.564779,-1.9365956,-0.6762278,-2.5051584
603,2024-05-15 22:29:46.093456,0.03294773,-0.8488616,0.564779,-1.9365956,-0.6762278,-2.5051584
604,2024-05-15 22:29:46.110325,-0.5337837,-0.74660164,0.29262465,-2.573728,-0.9419542,-3.8930442
605,2024-05-15 22:29:46.126988,-0.8129852,-0.5972386,0.09396204,-3.1961997,-1.219287,-4.001778
606,2024-05-15 22:29:46.143649,-0.8129852,-0.5972386,0.09396204,-3.1961997,-1.219287,-4.001778
607,2024-05-15 22:29:46.160311,-0.8129852,-0.5972386,0.09396204,-3.1961997,-1.219287,-4.001778
608,2024-05-15 22:29:46.177318,-0.8129852,-0.5972386,0.09396204,-3.1961997,-1.219287,-4.001778
609,2024-05-15 22:29:46.193992,-0.8129852,-0.5972386,0.09396204,-3.1961997,-1.219287,-4.001778
610,2024-05-15 22:29:46.210641,-0.8129852,-0.5972386,0.09396204,-3.1961997,-1.219287,-4.001778
611,2024-05-15 22:29:46.227297,-0.8129852,-0.5972386,0.09396204,-3.1961997,-1.219287,-4.001778
612,2024-05-15 22:29:46.243957,-0.8129852,-0.5972386,0.09396204,-3.1961997,-1.219287,-4.001778
613,2024-05-15 22:29:46.260625,-0.8129852,-0.5972386,0.09396204,-3.1961997,-1.219287,-4.001778
614,2024-05-15 22:29:46.277281,-0.8129852,-0.5972386,0.09396204,-3.1961997,-1.219287,-4.001778
615,2024-05-15 22:29:46.294283,-0.9550265,1.4646181,0.36462155,-4.2713227,-0.5308419,-0.8723156
616,2024-05-15 22:29:46.310594,-1.5422589,2.093584,0.9040186,-1.4650075,1.6481144,-0.5522222
617,2024-05-15 22:29:46.327704,-1.6874728,2.2390423,0.32239962,-1.2005029,1.0977248,0.5271767
618,2024-05-15 22:29:46.343700,-1.4685229,2.208047,0.20354374,-2.1253529,0.050701816,1.346347
619,2024-05-15 22:29:46.360590,-1.3972582,2.1248233,0.5640468,-2.3574817,-0.31337386,1.6059648
620,2024-05-15 22:29:46.377249,-1.2596099,2.0045033,1.2915815,-1.2878567,-0.3408628,1.7299703
621,2024-05-15 22:29:46.394560,-1.2991472,1.9168867,1.456076,0.8660542,-0.21991149,1.772731
622,2024-05-15 22:29:46.410248,-1.3316069,1.5442113,0.9850456,2.2734878,-0.59559363,2.022575
623,2024-05-15 22:29:46.427851,-1.3040284,1.3743168,0.7148742,2.5642595,-0.9718866,2.271808
624,2024-05-15 22:29:46.443906,-1.2222692,1.0414228,0.53671235,2.6186266,-1.2040154,2.4526238
625,2024-05-15 22:29:46.460089,-1.1824878,0.9447761,0.5542845,2.7108672,-1.7024814,2.9272664
626,2024-05-15 22:29:46.477834,-0.9923673,0.50791365,0.6321388,3.5752416,-2.0091357,3.2803464
627,2024-05-15 22:29:46.493911,-1.0831566,0.2809099,0.91109616,4.951521,-1.4825699,2.9211576
628,2024-05-15 22:29:46.510526,-1.2456987,0.17450093,0.9257397,5.930127,-0.9981538,2.8154778
629,2024-05-15 22:29:46.527196,-1.5129719,-0.19939478,0.48323336,7.3149586,-0.24923302,3.3298264
630,2024-05-15 22:29:46.543795,-1.2547288,-0.5198724,0.108117364,6.650337,0.34269542,4.5124617
631,2024-05-15 22:29:46.560523,-1.0921867,-0.75514364,0.12202863,5.9863267,0.5338962,4.692056
632,2024-05-15 22:29:46.577191,-0.3109289,-1.1353848,0.345341,3.9778018,0.017104227,3.3108897
633,2024-05-15 22:29:46.593883,0.059549972,-0.78857946,0.57112443,2.865416,-0.4007276,0.17898351
634,2024-05-15 22:29:46.610505,-0.42734426,-0.79663336,0.692909,2.2215643,0.21930063,-0.98471475
635,2024-05-15 22:29:46.627167,-0.94404393,-0.89303595,0.7192672,1.6473509,0.6585127,-1.4624114
636,2024-05-15 22:29:46.643530,-1.2410617,-0.81322926,0.603096,-0.88040954,0.24129178,-0.37995818
637,2024-05-15 22:29:46.660481,-0.88302964,-0.83983153,0.4275883,-1.7930422,-0.33292156,-0.43493605
638,2024-05-15 22:29:46.677213,-0.30800024,-0.9699141,0.47981656,-3.562108,-1.1209377,-1.3396275
639,2024-05-15 22:29:46.693857,-0.39268813,-1.1056099,0.7861389,-4.3263,-1.0268645,-3.104417
640,2024-05-15 22:29:46.710491,-0.6980342,-1.0812042,0.8110328,-4.1173844,-0.8576548,-3.7849212
641,2024-05-15 22:29:46.727769,-1.1348966,-0.7639297,0.6233527,-3.4784193,-0.54611355,-4.2998805
642,2024-05-15 22:29:46.744406,-1.306957,-0.5149913,0.17767367,-3.5083518,-0.32925636,-4.329813
643,2024-05-15 22:29:46.760484,-1.3992107,-0.41684976,-0.009274175,-3.802178,-0.1740966,-4.203364
644,2024-05-15 22:29:46.777118,-1.3992107,-0.41684976,-0.009274175,-3.802178,-0.1740966,-4.203364
645,2024-05-15 22:29:46.793802,-1.3992107,-0.41684976,-0.009274175,-3.802178,-0.1740966,-4.203364
646,2024-05-15 22:29:46.810440,-1.3992107,-0.41684976,-0.009274175,-3.802178,-0.1740966,-4.203364
647,2024-05-15 22:29:46.827098,-1.3992107,-0.41684976,-0.009274175,-3.802178,-0.1740966,-4.203364
648,2024-05-15 22:29:46.843766,-1.3992107,-0.41684976,-0.009274175,-3.802178,-0.1740966,-4.203364
649,2024-05-15 22:29:46.860419,-1.3992107,-0.41684976,-0.009274175,-3.802178,-0.1740966,-4.203364
650,2024-05-15 22:29:46.877087,-1.3992107,-0.41684976,-0.009274175,-3.802178,-0.1740966,-4.203364
651,2024-05-15 22:29:46.893747,-1.3992107,-0.41684976,-0.009274175,-3.802178,-0.1740966,-4.203364
652,2024-05-15 22:29:46.910410,-1.3992107,-0.41684976,-0.009274175,-3.802178,-0.1740966,-4.203364
653,2024-05-15 22:29:46.927462,-1.3992107,-0.41684976,-0.009274175,-3.802178,-0.1740966,-4.203364
654,2024-05-15 22:29:46.943719,-1.5498245,2.0442846,0.473227,-2.2224805,-0.47219884,0.6579019
655,2024-05-15 22:29:46.960404,-1.3396608,2.0045033,0.47005424,-2.4368942,-0.48380527,0.9114109
656,2024-05-15 22:29:46.978177,-1.131724,1.9276252,1.2161677,-2.0825922,-0.18387043,1.1960741
657,2024-05-15 22:29:46.993720,-1.1920061,1.9835142,1.7328674,0.098807454,-0.20952678,0.960891
658,2024-05-15 22:29:47.010391,-1.5117517,1.8451338,1.4482661,2.6284003,-0.6310238,1.1765264
659,2024-05-15 22:29:47.027072,-1.4963455,1.7338436,1.0250709,3.3253977,-0.883922,1.568702
660,2024-05-15 22:29:47.043698,-1.2435023,1.4350871,0.30604777,3.314402,-1.486846,2.3426683
661,2024-05-15 22:29:47.059719,-1.1553975,1.2915815,0.24161668,3.0114129,-1.754405,2.6193902
662,2024-05-15 22:29:47.077109,-1.0924308,0.9789441,0.56063,2.9039006,-1.990199,2.928488
663,2024-05-15 22:29:47.094414,-0.99383163,0.58576787,0.88205343,4.3137774,-1.7397442,3.2724051
664,2024-05-15 22:29:47.110298,-0.99383163,0.58576787,0.88205343,4.3137774,-1.7397442,3.2724051
665,2024-05-15 22:29:47.127173,-0.98992676,0.5701482,0.8901073,6.5348835,-0.49968776,3.3921347
666,2024-05-15 22:29:47.143667,-1.83708,0.06882414,0.5889406,7.208668,0.44837508,4.529566
667,2024-05-15 22:29:47.160972,-2.093096,0.30458343,0.80371106,6.2489986,1.4117095,5.2735996
668,2024-05-15 22:29:47.177004,-2.6012535,0.65874106,1.2417938,5.685781,1.9449949,5.3695054
669,2024-05-15 22:29:47.193532,-3.2521544,0.92085856,2.0952926,5.6155314,1.5015068,5.8905735
670,2024-05-15 22:29:47.209799,-2.7923505,-0.05515694,1.5073586,5.5868206,-1.1478158,6.359107
671,2024-05-15 22:29:47.226959,-2.1419075,-0.54330194,1.1073182,5.3064337,-2.1862867,6.1269784
672,2024-05-15 22:29:47.243637,-0.8776604,-1.234228,0.2979939,3.641215,-2.116648,5.0066514
673,2024-05-15 22:29:47.260066,-0.11543907,-1.3174515,0.21208574,1.7774651,-0.8185594,3.55829
674,2024-05-15 22:29:47.276932,0.047103047,-1.3723644,0.2545517,1.1898128,-0.312763,2.673757
675,2024-05-15 22:29:47.293522,0.3316738,-1.5468959,0.08590815,0.3352123,-0.28955013,0.79534656
676,2024-05-15 22:29:47.309823,0.5210927,-1.5695932,-0.041001618,-0.037415497,-0.33414328,-0.12889257
677,2024-05-15 22:29:47.326955,0.46956614,-1.5603191,-0.06272271,-0.95004815,-0.3005457,-2.3017402
678,2024-05-15 22:29:47.343606,0.13447554,-1.6042492,-0.15790504,-1.6256652,-0.50579643,-3.6389244
679,2024-05-15 22:29:47.360134,-0.20061506,-1.5569022,-0.2608972,-2.7081184,-0.72387534,-4.6859474
680,2024-05-15 22:29:47.377312,-0.26236153,-1.552265,-0.26187342,-2.9329166,-0.70921457,-4.8502703
681,2024-05-15 22:29:47.393591,-0.26236153,-1.552265,-0.26187342,-2.9329166,-0.70921457,-4.8502703
682,2024-05-15 22:29:47.410252,-0.85740364,-1.5600749,0.049299564,-4.4710755,-0.26450464,-5.9443297
683,2024-05-15 22:29:47.426911,-0.85740364,-1.5600749,0.049299564,-4.4710755,-0.26450464,-5.9443297
684,2024-05-15 22:29:47.443548,-0.85740364,-1.5600749,0.049299564,-4.4710755,-0.26450464,-5.9443297
685,2024-05-15 22:29:47.460211,-0.85740364,-1.5600749,0.049299564,-4.4710755,-0.26450464,-5.9443297
686,2024-05-15 22:29:47.476869,-0.85740364,-1.5600749,0.049299564,-4.4710755,-0.26450464,-5.9443297
687,2024-05-15 22:29:47.493542,-0.85740364,-1.5600749,0.049299564,-4.4710755,-0.26450464,-5.9443297
688,2024-05-15 22:29:47.510189,-0.85740364,-1.5600749,0.049299564,-4.4710755,-0.26450464,-5.9443297
689,2024-05-15 22:29:47.526848,-0.85740364,-1.5600749,0.049299564,-4.4710755,-0.26450464,-5.9443297
690,2024-05-15 22:29:47.543776,-1.539086,-0.594798,0.33435842,-4.9060116,0.050701816,-4.646241
691,2024-05-15 22:29:47.560047,-2.6354215,1.9669183,0.4378387,-4.045913,-1.2186762,-3.8881574
692,2024-05-15 22:29:47.576268,-3.42934,2.2592988,1.2242217,-4.3849435,-0.75686204,-2.5894578
693,2024-05-15 22:29:47.586953,-3.4444716,2.4579616,1.3167193,-3.815617,-0.72265357,-1.5717562
694,2024-05-15 22:29:47.609885,-2.3803513,2.5370665,0.735375,-3.384957,-0.96761054,0.52106804
695,2024-05-15 22:29:47.627456,-2.1489851,2.4079297,0.7505066,-3.3702962,-1.1453724,1.006095
696,2024-05-15 22:29:47.644125,-1.6462271,2.1663132,0.8666778,-2.8565586,-1.5613716,1.6267341
697,2024-05-15 22:29:47.660129,-1.4341109,2.080405,0.92378724,-2.0954206,-1.8044959,1.8240436
698,2024-05-15 22:29:47.676824,-0.89254785,1.7721606,0.82250345,0.5685628,-1.4758505,2.0091357
699,2024-05-15 22:29:47.693469,-0.74367297,1.4614452,0.42929673,2.3871086,-0.8313876,2.1007655
700,2024-05-15 22:29:47.709621,-0.74831,1.1800473,0.15839316,2.8965702,-0.6426302,2.1881194
701,2024-05-15 22:29:47.726810,-0.78296614,1.1173246,0.13227904,3.7517817,-0.35124752,2.4501805
702,2024-05-15 22:29:47.743295,-1.0702215,0.86155254,0.107629254,4.184274,-0.25350907,2.71102
703,2024-05-15 22:29:47.760148,-1.1292834,0.8107887,0.09445015,4.510476,-0.18936823,3.2394185
704,2024-05-15 22:29:47.776788,-1.3882282,0.6509312,0.2894519,4.611269,0.13805555,4.025602
705,2024-05-15 22:29:47.793454,-1.6254823,0.47054234,0.69559366,4.8433976,1.0341948,4.8612657
706,2024-05-15 22:29:47.809980,-1.6803951,0.38731885,1.0350773,4.9044843,1.2486086,5.042082
707,2024-05-15 22:29:47.826775,-1.7704523,0.42685616,1.2881647,4.815909,1.6316211,5.084842
708,2024-05-15 22:29:47.843459,-2.2707696,0.5721007,1.8231685,5.3272033,1.1753048,4.482529
709,2024-05-15 22:29:47.859773,-2.4994514,0.18694785,1.3572329,5.446322,-0.048258353,4.528344
710,2024-05-15 22:29:47.876765,-2.4948142,-0.18768002,1.0301962,4.870276,-0.5546656,4.6315804
711,2024-05-15 22:29:47.893436,-1.8807663,-0.75172687,0.6594732,3.0315714,-0.92057395,4.646852
712,2024-05-15 22:29:47.910077,-0.99456376,-1.0965797,0.58698815,1.2912164,-0.5375614,4.1318927
713,2024-05-15 22:29:47.927067,-0.7841864,-1.3257495,0.65019906,0.70417494,-0.42577308,3.6957347
714,2024-05-15 22:29:47.944009,-0.1769415,-1.739213,0.7153623,0.15622878,-0.71776664,2.2009475
715,2024-05-15 22:29:47.960181,0.44540447,-2.0174382,0.5867441,0.7060075,-1.0054842,0.28160888
716,2024-05-15 22:29:47.976215,0.63506746,-2.0794287,0.46541715,0.99372506,-0.93767816,-0.4550946
717,2024-05-15 22:29:47.993414,0.92500746,-2.0960245,-0.35095432,1.125672,0.08002335,-3.9608502
718,2024-05-15 22:29:48.010445,-0.093717985,-2.0001101,-0.6633781,-0.63239825,-0.09040806,-6.3713245
719,2024-05-15 22:29:48.026696,-0.7429407,-1.9220119,-0.58527976,-1.6073391,-0.56382865,-6.790378
720,2024-05-15 22:29:48.043391,-1.5566581,-1.5830163,-0.122272685,-3.4784193,-1.559539,-6.6834764
721,2024-05-15 22:29:48.060033,-1.5566581,-1.5830163,-0.122272685,-3.4784193,-1.559539,-6.6834764
722,2024-05-15 22:29:48.076676,-1.5566581,-1.5830163,-0.122272685,-3.4784193,-1.559539,-6.6834764
723,2024-05-15 22:29:48.093342,-1.5566581,-1.5830163,-0.122272685,-3.4784193,-1.559539,-6.6834764
724,2024-05-15 22:29:48.109998,-1.5566581,-1.5830163,-0.122272685,-3.4784193,-1.559539,-6.6834764
725,2024-05-15 22:29:48.126874,-1.5566581,-1.5830163,-0.122272685,-3.4784193,-1.559539,-6.6834764
726,2024-05-15 22:29:48.142789,-1.5566581,-1.5830163,-0.122272685,-3.4784193,-1.559539,-6.6834764
727,2024-05-15 22:29:48.159634,-1.5566581,-1.5830163,-0.122272685,-3.4784193,-1.559539,-6.6834764
728,2024-05-15 22:29:48.176292,-1.5566581,-1.5830163,-0.122272685,-3.4784193,-1.559539,-6.6834764
729,2024-05-15 22:29:48.192970,-1.5566581,-1.5830163,-0.122272685,-3.4784193,-1.559539,-6.6834764
730,2024-05-15 22:29:48.210778,-2.8724012,2.1777837,1.7077297,-3.0276008,-0.93951076,-3.513086
731,2024-05-15 22:29:48.226270,-2.6932633,2.3349566,0.383658,-1.6904168,-0.90469146,-0.8350528
732,2024-05-15 22:29:48.243277,-1.7828993,2.187058,-0.05344854,-3.4277177,-1.7269161,0.9309586
733,2024-05-15 22:29:48.260702,-1.3965261,1.9710674,0.41587353,-3.6592355,-1.7220291,1.7098118
734,2024-05-15 22:29:48.276369,-1.3462503,1.9342147,0.49690056,-3.398396,-1.6896533,1.8686367
735,2024-05-15 22:29:48.293295,-0.9298886,1.8475745,0.89328,-1.0844386,-1.102001,1.844813
736,2024-05-15 22:29:48.309941,-1.0709537,1.8485507,0.6994986,1.048092,-0.31764993,1.6487253
737,2024-05-15 22:29:48.326579,-1.1800473,1.824633,0.5669755,1.7029396,-0.24373524,1.7873917
738,2024-05-15 22:29:48.343299,-1.3523518,1.6230417,0.11275445,2.3425155,-0.6658431,2.5912905
739,2024-05-15 22:29:48.359440,-1.3223326,1.3450301,0.1444819,2.376724,-0.9957104,3.4562755
740,2024-05-15 22:29:48.376365,-1.3093976,1.2493596,0.30092257,2.494621,-0.9669997,3.6242635
741,2024-05-15 22:29:48.393145,-1.4802377,1.0841328,0.74831,3.555083,-0.30848694,3.8643336
742,2024-05-15 22:29:48.410138,-1.7858279,0.73220223,0.94257957,5.6387444,0.8368854,4.491081
743,2024-05-15 22:29:48.425393,-1.9495904,0.6863195,0.9301327,5.9209642,1.0910053,4.65968
744,2024-05-15 22:29:48.441622,-2.391578,0.40781966,0.72121966,5.6839485,1.3487904,6.0891047
745,2024-05-15 22:29:48.456924,-2.3786428,0.28335047,0.73220223,4.9386926,1.282817,6.574132
746,2024-05-15 22:29:48.477301,-2.2983482,0.017816179,1.1100029,3.854407,1.0897835,6.5588603
747,2024-05-15 22:29:48.493644,-1.8651465,-0.27261195,1.7633747,3.5709655,1.1545353,5.736025
748,2024-05-15 22:29:48.509858,-1.8756409,-0.7168266,1.8126743,3.850131,1.4385877,4.7757444
749,2024-05-15 22:29:48.527569,-1.8983383,-0.9047507,1.6398817,3.836081,1.1850786,4.4000626
750,2024-05-15 22:29:48.543779,-1.5442113,-1.1881012,1.0384941,3.328452,-0.6401868,3.0457742
751,2024-05-15 22:29:48.559370,-0.7258568,-1.4887798,0.4170938,2.5043948,-1.7073684,1.8142698
752,2024-05-15 22:29:48.576213,-0.564779,-1.5434791,0.31556603,2.2325597,-1.890628,1.3933836
753,2024-05-15 22:29:48.593145,0.3018988,-1.7645949,-0.21672285,1.1409435,-1.572978,-0.321926
754,2024-05-15 22:29:48.609815,0.48665017,-1.9051719,-0.43710655,-0.7631234,-1.2589933,-3.213762
755,2024-05-15 22:29:48.626464,0.358032,-1.9630134,-0.41074833,-1.1919508,-1.4080443,-3.7977493
756,2024-05-15 22:29:48.642861,-0.016351834,-1.9969374,-0.24405725,-1.8003726,-1.9040669,-5.2106805
757,2024-05-15 22:29:48.659719,-0.88888705,-1.8263415,-0.17254847,-2.4161248,-2.1209242,-6.9601984
758,2024-05-15 22:29:48.676484,-1.1056099,-1.7445823,-0.18231077,-2.527913,-1.9559906,-7.032281
759,2024-05-15 22:29:48.693174,-1.4253248,-1.4636419,-0.19060871,-2.8675542,-1.4165965,-6.822754
760,2024-05-15 22:29:48.709977,-1.4253248,-1.4636419,-0.19060871,-2.8675542,-1.4165965,-6.822754
761,2024-05-15 22:29:48.726616,-1.4253248,-1.4636419,-0.19060871,-2.8675542,-1.4165965,-6.822754
762,2024-05-15 22:29:48.742547,-1.4253248,-1.4636419,-0.19060871,-2.8675542,-1.4165965,-6.822754
763,2024-05-15 22:29:48.759076,-1.4253248,-1.4636419,-0.19060871,-2.8675542,-1.4165965,-6.822754
764,2024-05-15 22:29:48.775919,-1.4253248,-1.4636419,-0.19060871,-2.8675542,-1.4165965,-6.822754
765,2024-05-15 22:29:48.792643,-1.4253248,-1.4636419,-0.19060871,-2.8675542,-1.4165965,-6.822754
766,2024-05-15 22:29:48.810417,-1.4253248,-1.4636419,-0.19060871,-2.8675542,-1.4165965,-6.822754
767,2024-05-15 22:29:48.828553,-1.4072646,-0.9799203,0.19134088,-5.126534,-0.3371976,-5.6859336
768,2024-05-15 22:29:48.844156,-4.665063,2.5507338,1.9432448,-1.8229746,-1.210735,-4.145942
769,2024-05-15 22:29:48.859406,-3.904794,2.8045533,0.98773015,-3.2743905,-2.2821925,0.40622538
770,2024-05-15 22:29:48.876701,-3.4405668,2.606379,0.863505,-3.8986948,-2.5393667,1.5485435
771,2024-05-15 22:29:48.887356,-2.768677,2.2351372,0.86618966,-4.3336306,-2.9126055,2.6810875
772,2024-05-15 22:29:48.909931,-1.6284109,1.730915,1.1612549,-3.417333,-2.7678304,3.3542612
773,2024-05-15 22:29:48.927519,-1.1043895,1.6227976,1.0836447,-1.0490084,-1.3616186,2.8893926
774,2024-05-15 22:29:48.942830,-1.0602151,1.649644,0.7029154,0.30283645,-0.63591075,2.683531
775,2024-05-15 22:29:48.958557,-0.99041486,1.5786233,0.24918245,0.91247994,-0.9120218,3.182608
776,2024-05-15 22:29:48.976319,-0.9091437,1.4633977,0.27871338,0.9521862,-1.1911873,3.364035
777,2024-05-15 22:29:48.991961,-0.78394234,1.1690648,0.5938218,1.7102699,-1.3817772,3.4251215
778,2024-05-15 22:29:49.004769,-0.7771088,1.046548,0.7173148,2.440254,-1.2657127,3.3261611
779,2024-05-15 22:29:49.026950,-0.80371106,0.94599634,0.9150011,3.3406694,-0.98715824,3.118467
780,2024-05-15 22:29:49.043608,-1.2217811,0.64482975,1.0785195,5.61431,-0.18448131,2.9205468
781,2024-05-15 22:29:49.059231,-1.7301829,0.4756676,0.8901073,7.1029882,0.37018433,3.5576792
782,2024-05-15 22:29:49.076240,-1.999622,0.26065314,0.5481831,7.117649,0.5412266,4.787351
783,2024-05-15 22:29:49.092964,-2.1721706,0.20525214,0.65874106,6.184858,0.48502702,5.5338283
784,2024-05-15 22:29:49.110341,-2.3361769,0.07468152,1.2127509,5.435937,0.57726765,6.021299
785,2024-05-15 22:29:49.126293,-2.131901,-0.2591888,1.6672161,5.3589683,0.37018433,5.902791
786,2024-05-15 22:29:49.143373,-1.8875998,-0.5481831,1.6049815,5.862321,-0.30787608,4.946176
787,2024-05-15 22:29:49.159544,-1.7763096,-0.7361072,1.2627827,6.215401,-0.66950834,3.8899899
788,2024-05-15 22:29:49.175911,-1.7987629,-0.86570156,0.9874862,6.0932283,-0.61391956,3.1667254
789,2024-05-15 22:29:49.192917,-1.3840791,-1.046548,0.24918245,3.8702896,0.03970624,2.420248
790,2024-05-15 22:29:49.209163,-1.0431311,-1.1280631,0.102748096,2.3687828,0.06841691,2.0610592
791,2024-05-15 22:29:49.225766,-0.77198356,-1.3050046,-0.006345488,1.1678216,-0.0067195175,1.6267341
792,2024-05-15 22:29:49.242954,-0.16571487,-1.4719398,0.118855886,-1.0538952,-0.10629055,0.46914452
793,2024-05-15 22:29:49.260264,0.17303659,-1.5498245,0.29921418,-2.392301,-0.44776422,-1.1178834
794,2024-05-15 22:29:49.276157,0.26455808,-1.6254823,0.41294485,-2.4772112,-0.52412236,-1.3475688
795,2024-05-15 22:29:49.293463,0.10860548,-1.7414094,0.28359452,-2.5321891,-1.1765264,-4.5937066
796,2024-05-15 22:29:49.309096,-0.6577648,-1.6298753,0.26748675,-2.5431848,-0.22479841,-6.2900796
797,2024-05-15 22:29:49.326240,-0.93110895,-1.5583665,0.29726174,-2.5340219,0.009162978,-6.453791
798,2024-05-15 22:29:49.342935,-0.93110895,-1.5583665,0.29726174,-2.5340219,0.009162978,-6.453791
799,2024-05-15 22:29:49.359558,-0.93110895,-1.5583665,0.29726174,-2.5340219,0.009162978,-6.453791
800,2024-05-15 22:29:49.376275,-0.93110895,-1.5583665,0.29726174,-2.5340219,0.009162978,-6.453791
801,2024-05-15 22:29:49.392896,-0.93110895,-1.5583665,0.29726174,-2.5340219,0.009162978,-6.453791
802,2024-05-15 22:29:49.409595,-0.93110895,-1.5583665,0.29726174,-2.5340219,0.009162978,-6.453791
803,2024-05-15 22:29:49.425810,-1.6462271,-1.0834006,0.23331872,-2.9292517,0.16798794,-6.070779
804,2024-05-15 22:29:49.442906,-1.6462271,-1.0834006,0.23331872,-2.9292517,0.16798794,-6.070779
805,2024-05-15 22:29:49.459560,-1.6462271,-1.0834006,0.23331872,-2.9292517,0.16798794,-6.070779
806,2024-05-15 22:29:49.476228,-1.6462271,-1.0834006,0.23331872,-2.9292517,0.16798794,-6.070779
807,2024-05-15 22:29:49.493134,-1.9796093,-0.57649374,0.88156533,-4.2432227,0.2779437,-5.9773164
808,2024-05-15 22:29:49.509656,-4.3758245,2.5370665,1.692842,-3.5902078,-1.5833627,-3.8325686
809,2024-05-15 22:29:49.527856,-3.160877,2.5836816,0.9655209,-2.3116667,-1.5308284,0.36835176
810,2024-05-15 22:29:49.543056,-2.5360904,2.3220217,0.66947955,-2.351373,-2.0592268,1.8154916
811,2024-05-15 22:29:49.560669,-1.7323793,1.8871115,0.5926015,-2.1320724,-2.0842721,2.0384574
812,2024-05-15 22:29:49.576149,-1.3328272,1.7101701,0.4937278,-2.0270035,-2.057394,2.0971005
813,2024-05-15 22:29:49.593516,-1.2681519,1.6757581,0.4471129,-0.08384126,-0.5564982,2.4654522
814,2024-05-15 22:29:49.609780,-1.1900537,1.5364014,0.36559775,0.5038111,-0.24678956,2.747061
815,2024-05-15 22:29:49.626198,-1.0709537,1.4238604,0.29579738,1.0786353,-0.37384954,3.2198708
816,2024-05-15 22:29:49.642796,-1.0016415,1.3347796,0.33899552,1.3217597,-0.5235115,3.345098
817,2024-05-15 22:29:49.658985,-1.0726621,1.1070741,0.66874737,2.1989622,-0.5002986,3.50881
818,2024-05-15 22:29:49.676125,-1.1483198,0.7741801,0.78076965,3.7615554,-0.36651915,3.821573
819,2024-05-15 22:29:49.693459,-1.2234895,0.66093755,0.73781556,4.415181,-0.29932398,3.979787
820,2024-05-15 22:29:49.709511,-1.6162081,0.37999713,0.7273211,5.458539,0.26511553,4.632191
821,2024-05-15 22:29:49.726155,-1.7894888,0.27505252,0.5423257,5.504354,0.3463606,5.3456817
822,2024-05-15 22:29:49.742480,-1.9178629,0.21916342,0.28457075,4.742605,-0.06963864,5.8734694
823,2024-05-15 22:29:49.759220,-1.7555648,-0.3441207,1.858801,2.616183,-1.4434745,6.612616
824,2024-05-15 22:29:49.776117,-1.5337168,-0.45687518,2.1389787,3.5563047,-1.3139712,6.0726113
825,2024-05-15 22:29:49.793801,-1.4641299,-0.49592432,2.17876,3.7059667,-1.3041973,5.974262
826,2024-05-15 22:29:49.809428,-1.2566813,-0.5979708,1.5141922,6.6533914,-1.3316863,2.833804
827,2024-05-15 22:29:49.826674,-1.4270333,-0.5830833,1.2078698,6.7260847,-1.2999213,2.3011293
828,2024-05-15 22:29:49.842183,-1.8790578,-0.577714,-0.054668825,2.3553436,-1.028697,1.599856
829,2024-05-15 22:29:49.859381,-1.8727121,-0.77051926,0.045638707,0.7133379,-0.9682214,1.7476854
830,2024-05-15 22:29:49.876072,-1.517853,-1.1168364,0.27993366,-1.6665931,-0.9877691,2.0971005
831,2024-05-15 22:29:49.892481,-0.6836348,-1.434599,0.35315084,-2.8272371,-1.4227052,1.7800614
832,2024-05-15 22:29:49.908905,0.18011424,-1.7001638,0.24161668,-2.709951,-1.7977765,-0.21991149
833,2024-05-15 22:29:49.926388,0.43149322,-1.6745377,0.061014313,-2.174833,-0.6462954,-2.610227
834,2024-05-15 22:29:49.942743,0.18938842,-1.6911337,-0.136428,-2.0227275,0.24373524,-3.7549887
835,2024-05-15 22:29:49.959364,-0.20549619,-1.6557454,-0.33313814,-2.2120957,0.8979719,-4.470923
836,2024-05-15 22:29:49.976025,-0.46688148,-1.5966836,-0.41880223,-2.5114198,1.1007792,-4.6987753
837,2024-05-15 22:29:49.992821,-0.46688148,-1.5966836,-0.41880223,-2.5114198,1.1007792,-4.6987753
838,2024-05-15 22:29:50.009354,-0.46688148,-1.5966836,-0.41880223,-2.5114198,1.1007792,-4.6987753
839,2024-05-15 22:29:50.026031,-0.46688148,-1.5966836,-0.41880223,-2.5114198,1.1007792,-4.6987753
840,2024-05-15 22:29:50.042702,-0.46688148,-1.5966836,-0.41880223,-2.5114198,1.1007792,-4.6987753
841,2024-05-15 22:29:50.059354,-0.46688148,-1.5966836,-0.41880223,-2.5114198,1.1007792,-4.6987753
842,2024-05-15 22:29:50.076056,-0.46688148,-1.5966836,-0.41880223,-2.5114198,1.1007792,-4.6987753
843,2024-05-15 22:29:50.092662,-0.46688148,-1.5966836,-0.41880223,-2.5114198,1.1007792,-4.6987753
844,2024-05-15 22:29:50.110058,-2.0054793,1.3418572,1.033857,-3.0422616,0.047647487,-2.9364293
845,2024-05-15 22:29:50.126622,-1.8034,1.700896,1.234228,-3.5969272,-0.20341812,-2.307849
846,2024-05-15 22:29:50.159283,-2.2241547,2.0562432,1.7316471,-2.147955,-0.093462385,-1.061073
847,2024-05-15 22:29:50.170284,-1.9503224,2.1172576,0.9276921,-0.8883508,-0.7672467,0.018325957
848,2024-05-15 22:29:50.181623,-1.7826552,2.1077394,0.5301228,-0.9671524,-1.1184943,0.50640726
849,2024-05-15 22:29:50.193536,-1.6579418,2.0852861,0.3265486,-1.4265231,-1.3005321,1.097114
850,2024-05-15 22:29:50.209297,-1.6081542,2.0450168,0.36462155,-1.8791742,-1.215011,1.6181821
851,2024-05-15 22:29:50.226000,-1.6245061,1.973996,0.8500819,-1.9414824,-0.8961393,2.3597724
852,2024-05-15 22:29:50.242608,-1.6367089,1.9603289,1.0982882,-1.521818,-0.7611381,2.5619688
853,2024-05-15 22:29:50.259821,-1.6823475,1.8434254,1.383347,0.10308351,-0.6579019,2.9339857
854,2024-05-15 22:29:50.275411,-1.5332286,1.6162081,1.0443515,1.2985468,-1.3151928,3.3115005
855,2024-05-15 22:29:50.287596,-1.3330712,1.2986591,0.86423725,1.3504703,-1.368949,3.331659
856,2024-05-15 22:29:50.298586,-1.3330712,1.2986591,0.86423725,2.0059288,-1.9480493,3.549127
857,2024-05-15 22:29:50.310026,-1.2332518,1.1036574,0.95844334,2.5966353,-1.9168952,3.6462545
858,2024-05-15 22:29:50.325580,-1.2039648,0.7644178,1.1158602,4.1335726,-1.3267993,3.644422
859,2024-05-15 22:29:50.342267,-1.2886528,0.54964745,1.1280631,5.136613,-0.9285152,3.6651914
860,2024-05-15 22:29:50.359236,-1.4299619,0.15326795,1.029708,6.6491156,-0.48258355,3.726278
861,2024-05-15 22:29:50.375937,-1.6930863,-0.1889003,0.78198993,7.385208,-0.267559,4.1123447
862,2024-05-15 22:29:50.392214,-1.829026,-0.4702983,0.74611354,6.827488,0.20280726,5.1294355
863,2024-05-15 22:29:50.409217,-1.7453144,-0.6409248,0.84129584,6.3699503,0.48197266,5.4641895
864,2024-05-15 22:29:50.426825,-1.0499648,-0.8022467,1.0204339,5.2752795,-0.13316862,4.256509
865,2024-05-15 22:29:50.442558,-0.86057633,-0.74050015,1.02922,5.2001433,-0.56688297,3.2265902
866,2024-05-15 22:29:50.459209,-0.9606398,-0.7712514,0.9647888,5.137835,-0.74036866,2.130698
867,2024-05-15 22:29:50.475883,-1.2620505,-0.918662,0.6487347,4.423733,-0.3494149,0.73914695
868,2024-05-15 22:29:50.492348,-1.2064054,-0.8571595,0.4588276,3.7566686,-0.09590584,0.5571091
869,2024-05-15 22:29:50.509191,-0.87644005,-0.84129584,0.32215557,2.0248656,0.5039638,0.44593164
870,2024-05-15 22:29:50.525854,-0.4544346,-1.0074989,0.3277689,0.011453724,0.62980205,0.03176499
871,2024-05-15 22:29:50.542507,-0.09152147,-1.1678444,0.37706846,-1.186453,0.013439035,-0.76052725
872,2024-05-15 22:29:50.559158,0.14521407,-1.2117747,0.3973252,-1.6311629,-0.5644395,-1.4990633
873,2024-05-15 22:29:50.576459,0.39537275,-1.204209,0.3431445,-2.1271856,-1.4141531,-3.6658022
874,2024-05-15 22:29:50.593104,-0.016107777,-1.2352042,0.29433304,-2.414292,-1.4208726,-5.6773815
875,2024-05-15 22:29:50.609162,-0.42051062,-1.2110425,0.28042176,-2.501035,-1.2333369,-6.192341
876,2024-05-15 22:29:50.625821,-0.42051062,-1.2110425,0.28042176,-2.501035,-1.2333369,-6.192341
877,2024-05-15 22:29:50.642478,-0.42051062,-1.2110425,0.28042176,-2.501035,-1.2333369,-6.192341
878,2024-05-15 22:29:50.659126,-0.42051062,-1.2110425,0.28042176,-2.501035,-1.2333369,-6.192341
879,2024-05-15 22:29:50.675820,-0.42051062,-1.2110425,0.28042176,-2.501035,-1.2333369,-6.192341
880,2024-05-15 22:29:50.692461,-0.42051062,-1.2110425,0.28042176,-2.501035,-1.2333369,-6.192341
881,2024-05-15 22:29:50.709125,-0.42051062,-1.2110425,0.28042176,-2.501035,-1.2333369,-6.192341
882,2024-05-15 22:29:50.725771,-0.42051062,-1.2110425,0.28042176,-2.501035,-1.2333369,-6.192341
883,2024-05-15 22:29:50.742391,-0.42051062,-1.2110425,0.28042176,-2.501035,-1.2333369,-6.192341
884,2024-05-15 22:29:50.759040,-0.42051062,-1.2110425,0.28042176,-2.501035,-1.2333369,-6.192341
885,2024-05-15 22:29:50.808190,-1.636953,1.4011631,0.37658033,-1.630552,-1.1313224,-1.391551
886,2024-05-15 22:29:50.824911,-2.0679579,1.5742302,0.78003746,-1.5786285,-1.4165965,-0.81061816
887,2024-05-15 22:29:50.841459,-2.0869946,1.7026043,0.88937515,-0.7796168,-1.0189233,0.3036
888,2024-05-15 22:29:50.859762,-1.7623985,1.726522,0.9462405,-0.397826,-0.88025683,0.5815437
889,2024-05-15 22:29:50.875382,-1.7182239,1.7294507,1.0260471,0.33276883,-0.86437434,0.6646214
890,2024-05-15 22:29:50.892043,-1.6518404,1.7004079,0.90645915,2.2832615,-0.9236283,1.0708468
891,2024-05-15 22:29:50.908699,-1.5759387,1.6313397,0.72073156,2.8904617,-0.95905846,1.4153748
892,2024-05-15 22:29:50.925571,-1.4629096,1.4719398,0.35193056,3.5428658,-0.929126,2.2858577
893,2024-05-15 22:29:50.941883,-1.2644911,1.2037208,0.2208718,3.627165,-0.89858276,2.5778513
894,2024-05-15 22:29:50.958573,-1.2142153,1.1380695,0.24698594,3.8507419,-0.6627888,3.0634892
895,2024-05-15 22:29:50.975724,-1.4060442,0.7934606,0.6445857,4.760931,0.25778514,3.5375206
896,2024-05-15 22:29:50.992356,-1.5263951,0.5423257,0.67850965,5.9191313,1.0421361,4.243681
897,2024-05-15 22:29:51.009350,-1.6740497,0.3053156,0.53744453,6.069404,1.382999,4.5704937
898,2024-05-15 22:29:51.025677,-1.6684363,0.18597162,0.5623384,5.575825,1.7434094,5.476407
899,2024-05-15 22:29:51.042376,-1.4392362,-0.1786499,0.8425161,4.6271515,1.8704693,6.032905
900,2024-05-15 22:29:51.058706,-1.0487446,-0.47835222,1.2169,4.212985,1.6627752,5.929669
901,2024-05-15 22:29:51.075650,-0.8478854,-0.53744453,1.3516195,3.9216022,0.45631635,4.750699
902,2024-05-15 22:29:51.092322,-0.83104545,-0.7492863,1.3460063,4.3272166,-0.6994407,2.6004534
903,2024-05-15 22:29:51.109024,-0.8552071,-0.83275384,1.2398413,4.3962445,-0.7800749,2.2296581
904,2024-05-15 22:29:51.125671,-0.73317844,-1.0009092,0.7080406,3.4377968,0.267559,0.68111473
905,2024-05-15 22:29:51.142320,-0.6487347,-1.1422184,0.4898229,1.3938417,0.80939645,0.19730948
906,2024-05-15 22:29:51.159807,-0.38463423,-1.4231284,0.48152497,0.2759584,0.43554693,-0.18997909
907,2024-05-15 22:29:51.175635,-0.22868164,-1.4519271,0.4825012,-1.4179709,-0.98532563,-1.1569787
908,2024-05-15 22:29:51.192279,0.06418706,-1.5359132,0.5284144,-2.482098,-2.0054705,-3.1490104
909,2024-05-15 22:29:51.208411,-0.3682824,-1.4802377,0.5450104,-2.6946793,-1.7672331,-5.067738
910,2024-05-15 22:29:51.225600,-0.71975535,-1.4341109,0.5384208,-2.6225972,-1.4703526,-5.6779923
911,2024-05-15 22:29:51.242261,-1.4363074,-1.2276385,0.3995217,-2.4326181,-0.93645644,-6.076277
912,2024-05-15 22:29:51.258930,-1.4363074,-1.2276385,0.3995217,-2.4326181,-0.93645644,-6.076277
913,2024-05-15 22:29:51.275601,-1.4363074,-1.2276385,0.3995217,-2.4326181,-0.93645644,-6.076277
914,2024-05-15 22:29:51.292240,-1.4363074,-1.2276385,0.3995217,-2.4326181,-0.93645644,-6.076277
915,2024-05-15 22:29:51.308895,-1.4363074,-1.2276385,0.3995217,-2.4326181,-0.93645644,-6.076277
916,2024-05-15 22:29:51.325581,-1.4363074,-1.2276385,0.3995217,-2.4326181,-0.93645644,-6.076277
917,2024-05-15 22:29:51.342213,-1.4363074,-1.2276385,0.3995217,-2.4326181,-0.93645644,-6.076277
918,2024-05-15 22:29:51.358877,-1.4363074,-1.2276385,0.3995217,-2.4326181,-0.93645644,-6.076277
919,2024-05-15 22:29:51.374085,-1.4363074,-1.2276385,0.3995217,-2.4326181,-0.93645644,-6.076277
920,2024-05-15 22:29:51.391945,-2.9190161,1.6088864,0.65190744,-2.7936394,0.15882497,-3.657861
921,2024-05-15 22:29:51.409233,-2.64494,1.9932766,0.48176903,-5.511379,-1.7336355,-2.0390682
922,2024-05-15 22:29:51.425571,-2.5949082,1.9398282,0.8288489,-5.933487,-2.0818288,-0.9669997
923,2024-05-15 22:29:51.441978,-2.054535,1.9925444,1.4411886,-4.4075456,-1.9590448,0.20952678
924,2024-05-15 22:29:51.458871,-1.8990705,2.0191467,1.4382598,-3.9396226,-1.8362609,0.31703907
925,2024-05-15 22:29:51.476161,-1.4887798,2.1023703,0.95014536,-1.7447839,-0.59620446,0.87109387
926,2024-05-15 22:29:51.492196,-1.6913778,2.1118884,0.8090803,-1.1632402,-0.02687807,1.5351044
927,2024-05-15 22:29:51.509319,-1.7087059,2.1033463,0.81591386,-1.0453432,-0.12156218,1.8008307
928,2024-05-15 22:29:51.525211,-1.7123666,2.0259802,0.9479488,-0.6580546,-0.552833,2.3383923
929,2024-05-15 22:29:51.542000,-1.5171208,1.6513524,1.2012802,1.1152872,-1.3445144,3.0714304
930,2024-05-15 22:29:51.558659,-1.4065324,1.306469,1.2317874,3.0529518,-1.1899655,3.2907312
931,2024-05-15 22:29:51.575487,-1.4275213,1.1139078,1.1373372,4.0052905,-1.0140363,3.4092388
932,2024-05-15 22:29:51.592097,-1.4411886,0.9335495,0.99431974,4.0052905,-1.0140363,3.4092388
933,2024-05-15 22:29:51.608859,-1.5581225,0.5801546,0.6863195,5.6839485,-0.57543504,4.105625
934,2024-05-15 22:29:51.625463,-1.577647,0.35559142,0.48665017,5.8610992,-0.61941737,4.56072
935,2024-05-15 22:29:51.642197,-1.7919292,0.046614934,0.48225713,5.363855,-0.99265605,5.148372
936,2024-05-15 22:29:51.658883,-1.8429374,-0.088348724,0.5803986,5.2923837,-1.1117748,5.3481255
937,2024-05-15 22:29:51.675482,-1.6545252,-0.34704942,1.0175052,5.6381335,-0.675617,5.6272907
938,2024-05-15 22:29:51.692136,-1.6406139,-0.78198993,1.255705,6.297868,0.3933972,5.4782395
939,2024-05-15 22:29:51.708788,-1.6406139,-0.78198993,1.255705,6.297868,0.3933972,5.4782395
940,2024-05-15 22:29:51.725383,-1.4843867,-1.1639395,0.9901707,6.5348835,0.5222898,4.3463063
941,2024-05-15 22:29:51.742644,-1.1802914,-0.8737555,0.36730617,4.4054074,-0.37323865,2.1679606
942,2024-05-15 22:29:51.758293,-1.2442343,-0.8600882,0.35876414,3.9380956,-0.29626966,2.0286834
943,2024-05-15 22:29:51.775434,-1.336732,-0.8905954,0.46590528,1.8037324,-0.095294975,1.8490891
944,2024-05-15 22:29:51.792096,-0.6990105,-1.3313628,0.4971446,-0.25366178,-0.9804387,1.7831156
945,2024-05-15 22:29:51.809033,0.08078295,-1.6162081,0.43515408,-1.3458889,-1.210124,0.36896262
946,2024-05-15 22:29:51.825422,0.31190515,-1.6528167,0.42612398,-1.5096008,-1.2076806,-0.03848451
947,2024-05-15 22:29:51.842091,0.45736328,-1.5454315,0.47639978,-2.3025038,-1.2162327,-3.8099666
948,2024-05-15 22:29:51.858918,-0.66264594,-1.472672,0.54964745,-2.337934,-1.4495832,-6.073222
949,2024-05-15 22:29:51.874928,-0.8698506,-1.4414326,0.5384208,-2.2530236,-1.5283848,-6.2186084
950,2024-05-15 22:29:51.892045,-1.5161446,-1.1920061,0.34607318,-2.1241312,-1.6328428,-6.2589254
951,2024-05-15 22:29:51.908710,-1.5161446,-1.1920061,0.34607318,-2.1241312,-1.6328428,-6.2589254
952,2024-05-15 22:29:51.925364,-1.5161446,-1.1920061,0.34607318,-2.1241312,-1.6328428,-6.2589254
953,2024-05-15 22:29:51.942043,-1.5161446,-1.1920061,0.34607318,-2.1241312,-1.6328428,-6.2589254
954,2024-05-15 22:29:51.958682,-1.5161446,-1.1920061,0.34607318,-2.1241312,-1.6328428,-6.2589254
955,2024-05-15 22:29:51.975348,-1.5161446,-1.1920061,0.34607318,-2.1241312,-1.6328428,-6.2589254
956,2024-05-15 22:29:51.992020,-1.5161446,-1.1920061,0.34607318,-2.1241312,-1.6328428,-6.2589254
957,2024-05-15 22:29:52.008689,-1.5161446,-1.1920061,0.34607318,-2.1241312,-1.6328428,-6.2589254
958,2024-05-15 22:29:52.025345,-1.5161446,-1.1920061,0.34607318,-2.1241312,-1.6328428,-6.2589254
959,2024-05-15 22:29:52.042001,-1.5161446,-1.1920061,0.34607318,-2.1241312,-1.6328428,-6.2589254
960,2024-05-15 22:29:52.058866,-1.5161446,-1.1920061,0.34607318,-2.1241312,-1.6328428,-6.2589254
961,2024-05-15 22:29:52.075645,-2.5212028,2.2095113,0.7180469,-0.30008754,0.65484756,-2.9321532
962,2024-05-15 22:29:52.092015,-2.650065,2.2197618,0.4720067,-1.9958495,-2.0775528,-0.24312437
963,2024-05-15 22:29:52.109117,-1.8897963,1.9559358,0.42246306,-2.3141103,-2.4263568,1.2431108
964,2024-05-15 22:29:52.125302,-1.5981479,1.8558723,0.47542354,-2.170557,-2.0879374,1.6395624
965,2024-05-15 22:29:52.141977,-1.391889,1.7328674,0.7361072,-1.5951219,-1.3585643,1.7977765
966,2024-05-15 22:29:52.159217,-1.4448494,1.7001638,0.8896192,0.48181996,-0.15332718,1.9529362
967,2024-05-15 22:29:52.175054,-1.5678847,1.6020528,0.6091974,1.0285443,-0.11789699,2.2650883
968,2024-05-15 22:29:52.191995,-1.5295677,1.4738922,0.328257,1.2447907,-0.6365216,3.0793717
969,2024-05-15 22:29:52.208628,-1.4172709,1.3774897,0.33045352,1.2313516,-0.9407325,3.4214563
970,2024-05-15 22:29:52.225275,-1.3228208,1.2359364,0.4144092,1.3242031,-1.146594,3.6743546
971,2024-05-15 22:29:52.241979,-1.1849284,0.79077595,0.8432483,2.8764117,-0.8698721,3.9547415
972,2024-05-15 22:29:52.258611,-1.2049412,0.6538599,0.9330614,3.7163515,-0.5198463,3.961461
973,2024-05-15 22:29:52.276295,-1.4214199,0.36901456,0.9088997,5.2929945,0.14538592,4.084245
974,2024-05-15 22:29:52.292219,-1.5908262,0.2255089,0.7380596,5.8891993,0.30604348,4.402506
975,2024-05-15 22:29:52.308179,-1.7880243,0.04368625,0.6577648,5.873317,0.3903429,4.927239
976,2024-05-15 22:29:52.325563,-1.8793018,-0.1164153,0.8044432,5.4750323,0.5161811,5.370116
977,2024-05-15 22:29:52.341722,-2.1006618,-0.3824377,1.3018318,5.2062516,0.5522222,5.2888713
978,2024-05-15 22:29:52.358136,-2.156551,-0.50840175,1.4465579,5.443878,0.3555236,4.938235
979,2024-05-15 22:29:52.374731,-2.1340976,-0.6582529,1.3604056,5.817117,-0.1142318,4.0268235
980,2024-05-15 22:29:52.391740,-1.9305538,-0.7348869,0.62725765,4.8354564,0.17654006,2.977968
981,2024-05-15 22:29:52.408030,-1.9007788,-0.76295346,0.4556549,4.8354564,0.17654006,2.977968
982,2024-05-15 22:29:52.425218,-1.6855204,-1.0531375,0.38878322,1.4573717,0.54244834,3.3695326
983,2024-05-15 22:29:52.442291,-0.4702983,-2.1143289,0.09640261,-0.6507242,-1.2382239,3.9791763
984,2024-05-15 22:29:52.458530,-0.4702983,-2.1143289,0.09640261,-0.6507242,-1.2382239,3.9791763
985,2024-05-15 22:29:52.475101,-0.4702983,-2.1143289,0.09640261,-0.6507242,-1.2382239,3.9791763
986,2024-05-15 22:29:52.492464,0.9638126,-2.9331715,0.3900035,-3.470478,0.52778757,-6.754337
987,2024-05-15 22:29:52.508884,-1.0863293,-2.6988766,0.82958114,-2.6354253,0.17104226,-8.649852
988,2024-05-15 22:29:52.525765,-2.0267124,-2.3425224,0.9779679,-2.084425,-0.03848451,-8.430552
989,2024-05-15 22:29:52.541713,-2.0267124,-2.3425224,0.9779679,-2.084425,-0.03848451,-8.430552
990,2024-05-15 22:29:52.558465,-2.0267124,-2.3425224,0.9779679,-2.084425,-0.03848451,-8.430552
991,2024-05-15 22:29:52.575147,-2.0267124,-2.3425224,0.9779679,-2.084425,-0.03848451,-8.430552
992,2024-05-15 22:29:52.591787,-2.0267124,-2.3425224,0.9779679,-2.084425,-0.03848451,-8.430552
993,2024-05-15 22:29:52.608456,-2.0267124,-2.3425224,0.9779679,-2.084425,-0.03848451,-8.430552
994,2024-05-15 22:29:52.625116,-2.0267124,-2.3425224,0.9779679,-2.084425,-0.03848451,-8.430552
995,2024-05-15 22:29:52.641797,-2.0267124,-2.3425224,0.9779679,-2.084425,-0.03848451,-8.430552
996,2024-05-15 22:29:52.658788,-1.8856474,-0.78247803,0.08127106,-3.5498908,-0.15210545,-6.5167103
997,2024-05-15 22:29:52.675100,-2.8089464,0.8227475,0.8542308,-0.2762638,0.8368854,-5.021312
998,2024-05-15 22:29:52.691409,-2.8633711,1.0746145,0.28969595,-2.0221167,-0.35979962,-3.9785655
999,2024-05-15 22:29:52.708626,-2.9502554,1.2478952,0.4195344,-3.566995,-2.0525072,-2.6535985
