id,timestamp,acc_x,acc_y,acc_z,gyro_x,gyro_y,gyro_z
0,2024-05-15 22:16:57.632670,-0.81884265,-0.13471961,0.8835178,-0.71837753,0.62483877,0.3310126
1,2024-05-15 22:16:57.647825,-0.81884265,-0.13471961,0.8835178,-0.71837753,0.62483877,0.3310126
2,2024-05-15 22:16:57.663451,-0.7082847,-0.2677308,0.8261643,-1.010982,0.63278,0.65904725
3,2024-05-15 22:16:57.687862,-0.6509312,-0.1466784,0.83006924,-0.91324353,0.918665,0.69936436
4,2024-05-15 22:16:57.708506,-0.66313404,-0.058817793,0.8103006,-1.010982,0.9302714,0.664545
5,2024-05-15 22:16:57.724405,-0.8793688,0.2294138,0.9550265,-1.4422529,0.49044845,0.73235106
6,2024-05-15 22:16:57.740166,-0.9606398,0.54989153,1.1507604,-1.5338826,0.032910366,0.918665
7,2024-05-15 22:16:57.755990,-1.0077429,0.7751563,1.3311187,-1.3695599,-0.17967074,1.01396
8,2024-05-15 22:16:57.776996,-1.1478318,1.4616894,1.6310956,0.5503896,0.16791159,1.4886023
9,2024-05-15 22:16:57.792168,-1.1392897,1.5844806,1.5032096,1.5131133,0.62544966,1.8459585
10,2024-05-15 22:16:57.807963,-1.1602787,1.6867406,1.4255689,1.5131133,0.62544966,1.8459585
11,2024-05-15 22:16:57.822670,-1.391889,1.6806393,1.5015012,2.0299053,0.53259814,2.3034966
12,2024-05-15 22:16:57.838106,-1.5649561,1.4609572,1.8002273,2.666427,0.578413,3.0383673
13,2024-05-15 22:16:57.857879,-1.5742302,1.3242851,1.9083446,2.9993484,0.7543422,3.3407457
14,2024-05-15 22:16:57.873586,-1.4680349,0.82665247,1.9722877,4.0182714,1.3957508,4.147699
15,2024-05-15 22:16:57.891964,-1.3074452,0.35193056,1.9432448,4.6547933,1.5594627,4.2301655
16,2024-05-15 22:16:57.908880,-1.4084848,-0.35095432,1.696747,4.855157,1.7854828,4.118377
17,2024-05-15 22:16:57.925556,-1.6574538,-1.2764499,1.4150745,4.2919393,2.0451005,4.2827
18,2024-05-15 22:16:57.942269,-1.4690111,-1.7404332,1.3152549,3.5259142,2.6358073,4.5386524
19,2024-05-15 22:16:57.957870,-1.0218983,-2.3269029,1.2239777,2.4495697,2.4476607,4.0432405
20,2024-05-15 22:16:57.975498,-0.6492228,-2.9251177,0.84202796,1.627345,0.9870819,3.3358588
21,2024-05-15 22:16:57.992225,-0.34241232,-2.9797864,0.6570326,1.1600331,0.14469871,2.695672
22,2024-05-15 22:16:58.007829,-0.1432616,-3.1052318,0.44857723,0.852157,-0.26763535,2.092137
23,2024-05-15 22:16:58.023503,0.0024405725,-3.1667342,0.16010156,0.625526,-0.446008,1.566793
24,2024-05-15 22:16:58.042404,0.4368625,-2.8257864,-0.87253517,-0.9957104,-0.80092067,-1.1100185
25,2024-05-15 22:16:58.057816,0.23258655,-2.4311152,-1.0436193,-2.733011,-0.554742,-2.920623
26,2024-05-15 22:16:58.075486,-0.52670604,-2.0272005,-0.68656355,-4.3218718,0.20150918,-4.3610435
27,2024-05-15 22:16:58.092015,-1.208602,-1.7360402,-0.3048275,-4.832555,0.71402514,-4.5870633
28,2024-05-15 22:16:58.108593,-1.8217043,-1.3196481,0.11519502,-5.0426927,1.1190288,-4.547357
29,2024-05-15 22:16:58.124456,-2.9361002,0.084687866,1.4475341,-6.732957,2.042046,-4.4734426
30,2024-05-15 22:16:58.142170,-3.2877867,0.67118794,2.3085985,-7.225314,0.8288678,-4.3414955
31,2024-05-15 22:16:58.156245,-3.2877867,0.67118794,2.3085985,-7.225314,0.8288678,-4.3414955
32,2024-05-15 22:16:58.171428,-3.2877867,0.67118794,2.3085985,-7.225314,0.8288678,-4.3414955
33,2024-05-15 22:16:58.192123,-3.2877867,0.67118794,2.3085985,-7.225314,0.8288678,-4.3414955
34,2024-05-15 22:16:58.206255,-3.2877867,0.67118794,2.3085985,-7.225314,0.8288678,-4.3414955
35,2024-05-15 22:16:58.223460,-3.2877867,0.67118794,2.3085985,-7.225314,0.8288678,-4.3414955
36,2024-05-15 22:16:58.242076,-3.2877867,0.67118794,2.3085985,-7.225314,0.8288678,-4.3414955
37,2024-05-15 22:16:58.258723,-3.2877867,0.67118794,2.3085985,-7.225314,0.8288678,-4.3414955
38,2024-05-15 22:16:58.276053,-3.2877867,0.67118794,2.3085985,-7.225314,0.8288678,-4.3414955
39,2024-05-15 22:16:58.289501,-3.2877867,0.67118794,2.3085985,-7.225314,0.8288678,-4.3414955
40,2024-05-15 22:16:58.304710,-3.2877867,0.67118794,2.3085985,-7.225314,0.8288678,-4.3414955
41,2024-05-15 22:16:58.325307,-0.85398686,1.2500917,1.4824343,4.4214425,-1.8949803,2.9479594
42,2024-05-15 22:16:58.339519,-1.1707731,0.6868076,1.7663033,4.92785,-1.5645022,3.2649984
43,2024-05-15 22:16:58.355265,-1.2981709,0.4217309,1.8661228,5.189911,-1.4539356,3.330361
44,2024-05-15 22:16:58.374447,-1.4231284,-0.076633975,1.9847347,5.6144624,-1.2786173,3.352963
45,2024-05-15 22:16:58.392082,-1.3906687,-0.34192422,2.2534416,5.7183094,-0.117362484,2.5240188
46,2024-05-15 22:16:58.407209,-1.9942529,-0.7871151,2.37425,5.720753,0.546648,1.8196912
47,2024-05-15 22:16:58.425358,-2.2295241,-0.9540503,2.25515,5.56315,0.37866008,1.7683785
48,2024-05-15 22:16:58.440894,-2.3161643,-1.6674601,1.6066898,4.0921865,-1.1155163,2.2534056
49,2024-05-15 22:16:58.458379,-1.9730198,-2.1196983,1.2593659,3.0439415,-1.452103,2.2002602
50,2024-05-15 22:16:58.474343,-1.7626424,-2.5829494,1.0348332,2.417194,-1.3629167,1.9510273
51,2024-05-15 22:16:58.491994,-0.90060174,-2.7986958,0.39830142,0.92179567,-1.3335952,1.1465178
52,2024-05-15 22:16:58.508203,-0.3053156,-2.6373742,-0.17230442,-0.043982297,-2.14177,-0.23098342
53,2024-05-15 22:16:58.525033,-0.1952458,-2.5165658,-0.5535523,-0.5204572,-2.2841015,-0.90660036
54,2024-05-15 22:16:58.540505,-0.32996538,-2.2192736,-1.1668682,-2.080607,-1.7618117,-1.8265635
55,2024-05-15 22:16:58.557718,-0.44735694,-1.8112098,-1.1158602,-3.789808,-0.06910413,-2.1967478
56,2024-05-15 22:16:58.573353,-0.51865214,-1.6659958,-0.9611279,-4.515516,0.93149316,-2.4441483
57,2024-05-15 22:16:58.592035,-0.8739995,-1.4465579,-0.2604091,-5.3609533,2.3749678,-3.0122528
58,2024-05-15 22:16:58.608084,-1.3569888,-1.149052,0.40659937,-5.511226,3.2228487,-3.4398584
59,2024-05-15 22:16:58.623811,-1.6567216,-0.8864465,0.7114574,-5.6737165,3.5288923,-3.5522578
60,2024-05-15 22:16:58.639452,-2.430627,-0.1701079,1.5317643,-6.228993,3.3334153,-3.2046754
61,2024-05-15 22:16:58.657689,-2.6058908,0.44491637,2.3459394,-6.3859854,2.1801016,-2.2358432
62,2024-05-15 22:16:58.673644,-2.3737617,0.66362214,2.6686134,-6.128811,1.6724727,-1.8442786
63,2024-05-15 22:16:58.691640,-1.9046837,0.9623482,2.8577578,-4.773301,1.4433982,-1.352532
64,2024-05-15 22:16:58.708614,-1.67527,1.2105545,2.395727,-4.012163,1.7243962,-0.876668
65,2024-05-15 22:16:58.724313,-1.551533,1.2661995,2.123115,-4.071417,1.5692364,-0.4618905
66,2024-05-15 22:16:58.741737,-1.2269063,1.3035402,1.9054159,-4.6383,0.9528734,0.28825203
67,2024-05-15 22:16:58.757138,-0.7329344,1.5271271,2.1812007,-4.673119,0.2186134,0.7922159
68,2024-05-15 22:16:58.775695,-0.5916253,1.7397012,2.2910264,-4.148997,0.010308351,0.87712616
69,2024-05-15 22:16:58.809986,-0.33753118,2.0662498,2.151914,-2.8845057,-0.10025826,1.2155455
70,2024-05-15 22:16:58.826397,-0.33753118,2.0662498,2.151914,-2.8845057,-0.10025826,1.2155455
71,2024-05-15 22:16:58.842443,-0.33753118,2.0662498,2.151914,-2.8845057,-0.10025826,1.2155455
72,2024-05-15 22:16:58.858208,-0.33753118,2.0662498,2.151914,-2.8845057,-0.10025826,1.2155455
73,2024-05-15 22:16:58.872476,-0.33753118,2.0662498,2.151914,-2.8845057,-0.10025826,1.2155455
74,2024-05-15 22:16:58.888552,-0.33753118,2.0662498,2.151914,-2.8845057,-0.10025826,1.2155455
75,2024-05-15 22:16:58.907197,-0.33753118,2.0662498,2.151914,-2.8845057,-0.10025826,1.2155455
76,2024-05-15 22:16:58.924198,-0.33753118,2.0662498,2.151914,-2.8845057,-0.10025826,1.2155455
77,2024-05-15 22:16:58.941828,-0.17962612,2.1553304,2.0994415,-2.5961773,-0.16378824,1.299234
78,2024-05-15 22:16:58.958692,-1.1324561,0.16522676,1.714319,6.0176334,-1.7709748,1.9901226
79,2024-05-15 22:16:58.974182,-1.1522248,0.102504045,1.7016281,6.1306434,-1.6597972,2.0585396
80,2024-05-15 22:16:58.991839,-1.1373372,-0.22819352,1.772893,5.6718836,-1.1552225,2.0646482
81,2024-05-15 22:16:59.006999,-1.6694126,-0.9435558,2.4074416,5.1428747,-0.3861432,1.5967253
82,2024-05-15 22:16:59.024172,-1.8483065,-1.2747415,2.3466713,5.0115385,-0.37636936,1.4916565
83,2024-05-15 22:16:59.041735,-1.901267,-1.6276788,2.14508,4.0005565,-1.3122149,1.194776
84,2024-05-15 22:16:59.057964,-2.1838853,-2.3879173,1.7321353,2.9657507,-1.8790978,1.2039391
85,2024-05-15 22:16:59.074155,-2.1301925,-2.7589147,1.3967701,2.375044,-2.3378577,1.3383294
86,2024-05-15 22:16:59.091784,-1.3294103,-3.0996184,0.50864583,1.0531317,-3.2535446,1.0029644
87,2024-05-15 22:16:59.107471,-0.41172457,-2.7364614,-0.08932495,-0.092240654,-3.7306304,-0.640874
88,2024-05-15 22:16:59.125500,-0.32996538,-2.5561032,-0.2630937,-0.39645153,-3.4948363,-1.4600443
89,2024-05-15 22:16:59.140731,-0.5269501,-2.2693055,-0.64507383,-0.9077458,-2.5461626,-2.4557548
90,2024-05-15 22:16:59.158287,-0.7339106,-1.653549,-1.1756543,-2.7861564,-0.69768447,-2.9609401
91,2024-05-15 22:16:59.174122,-0.8027348,-1.5244426,-1.114884,-3.7635407,-0.12530373,-3.0452397
92,2024-05-15 22:16:59.191672,-1.0836447,-1.3355118,-0.4463807,-5.070792,0.8056549,-3.093498
93,2024-05-15 22:16:59.208980,-1.4214199,-1.0819362,0.23868799,-5.6248474,2.0481548,-2.8467083
94,2024-05-15 22:16:59.225891,-1.552265,-0.93062085,0.5640468,-5.7238073,2.3267093,-2.785011
95,2024-05-15 22:16:59.241279,-1.9896158,-0.23795582,1.790709,-6.170961,3.1507666,-2.485687
96,2024-05-15 22:16:59.256469,-2.4115906,0.80663973,2.5507338,-5.6657753,2.5857162,-2.2535582
97,2024-05-15 22:16:59.275768,-2.4428298,1.4241046,2.7801476,-4.97,0.9736428,-1.5846608
98,2024-05-15 22:16:59.291735,-2.35741,1.6364648,2.6595833,-4.6383,0.24610233,-1.1387292
99,2024-05-15 22:16:59.308443,-1.9971815,2.1724145,2.1736348,-4.4171667,-0.32200235,0.27725646
100,2024-05-15 22:16:59.325084,-1.3547924,2.2007253,1.8383002,-4.6022587,-0.38308886,1.7146224
101,2024-05-15 22:16:59.341771,-0.9381865,2.2021897,1.9168867,-4.46909,-0.45089492,2.3291528
102,2024-05-15 22:16:59.357850,-0.18475133,2.3088424,2.2995684,-3.1789427,-0.16928603,2.7793605
103,2024-05-15 22:16:59.373111,0.15912533,2.344231,2.3820598,-2.1960607,0.06528623,2.700559
104,2024-05-15 22:16:59.392228,0.40123013,2.2200058,2.339594,-0.18509217,0.15447254,2.1452823
105,2024-05-15 22:16:59.407892,0.26968327,1.9408044,2.0481894,1.4581354,-0.26152667,1.6236035
106,2024-05-15 22:16:59.423091,0.15180361,1.7850957,1.9044397,2.0518963,-0.5480225,1.4818827
107,2024-05-15 22:16:59.441710,0.049543623,1.6079102,1.760446,2.4959953,-0.85528773,1.4372896
108,2024-05-15 22:16:59.457429,0.049543623,1.6079102,1.760446,2.4959953,-0.85528773,1.4372896
109,2024-05-15 22:16:59.475003,0.049543623,1.6079102,1.760446,2.4959953,-0.85528773,1.4372896
110,2024-05-15 22:16:59.490649,0.049543623,1.6079102,1.760446,2.4959953,-0.85528773,1.4372896
111,2024-05-15 22:16:59.506305,0.049543623,1.6079102,1.760446,2.4959953,-0.85528773,1.4372896
112,2024-05-15 22:16:59.525090,-0.59357774,0.28042176,1.6001004,5.2882605,-2.0116556,1.2228758
113,2024-05-15 22:16:59.540678,-0.59357774,0.28042176,1.6001004,5.2882605,-2.0116556,1.2228758
114,2024-05-15 22:16:59.556329,-0.59357774,0.28042176,1.6001004,5.2882605,-2.0116556,1.2228758
115,2024-05-15 22:16:59.575177,-0.6645984,-0.8190866,1.7104142,5.4702983,-1.262124,0.05673411
116,2024-05-15 22:16:59.585289,-0.85447496,-1.0265353,1.7931497,5.211902,-0.4356233,-0.4545601
117,2024-05-15 22:16:59.608175,-1.8361037,-1.4204437,1.3572329,4.1703773,-0.33483052,-0.076434515
118,2024-05-15 22:16:59.623967,-1.8614857,-1.7987629,1.1392897,2.1569653,-0.83329654,0.8123744
119,2024-05-15 22:16:59.641561,-1.7123666,-2.012557,1.1121993,1.4092661,-1.3006085,1.0420598
120,2024-05-15 22:16:59.656267,-1.2251979,-2.3796191,0.6973021,0.48441613,-2.1301634,0.8270352
121,2024-05-15 22:16:59.671957,-1.0177492,-2.3493562,0.48006064,0.22479841,-2.3030384,0.5606979
122,2024-05-15 22:16:59.691134,-0.43710655,-1.9647218,-0.272856,-1.0995574,-2.0861812,-0.7770969
123,2024-05-15 22:16:59.707240,-0.46029195,-1.8265854,-0.3912238,-2.1777346,-0.96096736,-1.6854535
124,2024-05-15 22:16:59.725022,-0.8261643,-1.4280095,-0.5806427,-2.3518312,-0.73677987,-1.774029
125,2024-05-15 22:16:59.740548,-0.85081404,-1.3711442,-0.5950421,-3.382361,0.30779973,-2.045864
126,2024-05-15 22:16:59.758250,-1.0575305,-1.0526494,-0.23405088,-4.9290714,1.3364968,-2.1698697
127,2024-05-15 22:16:59.774945,-1.166136,-0.8949884,0.09542638,-5.416542,2.4275022,-2.2309563
128,2024-05-15 22:16:59.790169,-1.4612013,-0.45199403,0.85179025,-5.472131,2.8343384,-2.2413409
129,2024-05-15 22:16:59.808332,-1.8321989,0.119588055,1.6393934,-5.4373116,3.216129,-2.1118376
130,2024-05-15 22:16:59.823970,-1.9617932,0.33533466,1.8756409,-5.390275,3.0799062,-2.0183752
131,2024-05-15 22:16:59.839115,-1.8819865,0.72121966,2.165337,-5.1355443,1.8911624,-1.3146584
132,2024-05-15 22:16:59.857881,-1.4963455,1.110491,2.2036538,-4.8044553,0.7867181,-0.31650457
133,2024-05-15 22:16:59.874910,-1.0558221,1.3357558,2.230012,-4.4929137,0.47578767,0.36094502
134,2024-05-15 22:16:59.890314,-0.8283608,1.4419208,2.2309883,-4.2168026,0.4275293,0.60284764
135,2024-05-15 22:16:59.907688,-0.44882128,1.7807027,2.268085,-3.422678,0.2955824,0.87223923
136,2024-05-15 22:16:59.924849,-0.24112856,2.0101166,2.2095113,-2.357329,-0.10331258,1.1776718
137,2024-05-15 22:16:59.940560,-0.16205402,2.0957806,2.1794922,-1.7660115,-0.24503332,1.3645966
138,2024-05-15 22:16:59.958275,0.065407336,2.0921197,2.0440404,-0.6927212,-0.37698022,1.6303229
139,2024-05-15 22:16:59.973909,0.15912533,1.9122496,2.0657616,-0.40011674,-0.45822528,1.6407077
140,2024-05-15 22:16:59.989146,0.15595257,1.8365917,2.0979772,0.6096435,-0.7373907,1.4605024
141,2024-05-15 22:17:00.007657,-0.041001618,1.4529033,2.1419075,2.058005,-1.0153344,1.0157925
142,2024-05-15 22:17:00.023815,-0.11348662,1.3899366,2.1284842,2.3634377,-1.1124619,0.9376018
143,2024-05-15 22:17:00.041433,-0.52450955,1.01238,1.803156,3.5301902,-1.8864282,0.9021716
144,2024-05-15 22:17:00.055495,-0.6267695,0.73854774,1.6010766,3.7513235,-2.249893,0.9553169
145,2024-05-15 22:17:00.070791,-0.6267695,0.73854774,1.6010766,3.944357,-2.6054165,0.986471
146,2024-05-15 22:17:00.090489,-0.6267695,0.73854774,1.6010766,3.944357,-2.6054165,0.986471
147,2024-05-15 22:17:00.108103,-0.6267695,0.73854774,1.6010766,3.944357,-2.6054165,0.986471
148,2024-05-15 22:17:00.123810,-0.6267695,0.73854774,1.6010766,3.944357,-2.6054165,0.986471
149,2024-05-15 22:17:00.140446,-0.6267695,0.73854774,1.6010766,3.944357,-2.6054165,0.986471
150,2024-05-15 22:17:00.158128,-0.6267695,0.73854774,1.6010766,3.944357,-2.6054165,0.986471
151,2024-05-15 22:17:00.173741,-0.6267695,0.73854774,1.6010766,3.944357,-2.6054165,0.986471
152,2024-05-15 22:17:00.190460,-0.6267695,0.73854774,1.6010766,3.944357,-2.6054165,0.986471
153,2024-05-15 22:17:00.207101,-0.6267695,0.73854774,1.6010766,3.944357,-2.6054165,0.986471
154,2024-05-15 22:17:00.224233,-0.9987128,-0.14789869,1.4065324,5.411044,-1.8711566,0.39271
155,2024-05-15 22:17:00.241376,-1.9188391,-1.4824343,0.75392336,1.3567317,-1.656132,1.9943987
156,2024-05-15 22:17:00.257083,-1.3298985,-1.8138945,0.47225076,-0.051923547,-2.5498278,2.3926828
157,2024-05-15 22:17:00.274447,-0.98382527,-1.9300656,0.32728076,-0.41905355,-2.644512,2.214921
158,2024-05-15 22:17:00.290279,-0.15229172,-1.8065727,0.0134231495,-0.7892379,-1.7367662,0.96447986
159,2024-05-15 22:17:00.308245,-0.19109683,-1.5119957,-0.42929673,-1.282817,-0.019013181,-0.6653086
160,2024-05-15 22:17:00.324161,-0.5911371,-1.2701045,-0.61871564,-2.2412646,0.7928267,-1.1729376
161,2024-05-15 22:17:00.343807,-0.67948586,-1.1605227,-0.6633781,-2.85213,0.9681451,-1.1491139
162,2024-05-15 22:17:00.359451,-0.66289,-1.0404466,-0.5442782,-3.9706242,1.1007028,-1.1246793
163,2024-05-15 22:17:00.374738,-0.7563639,-0.9721105,0.054668825,-4.895474,1.8685604,-1.3922383
164,2024-05-15 22:17:00.390335,-0.8278727,-0.89718497,0.24088451,-4.968778,2.2338579,-1.4710399
165,2024-05-15 22:17:00.407645,-1.1427065,-0.5794224,0.8390993,-5.335297,3.5649333,-1.5486197
166,2024-05-15 22:17:00.423588,-1.3862756,-0.12642166,1.8736885,-5.687766,4.3621125,-1.447827
167,2024-05-15 22:17:00.441363,-1.3862756,-0.12642166,1.8736885,-5.687766,4.3621125,-1.447827
168,2024-05-15 22:17:00.456667,-1.4145863,0.53744453,2.6903346,-5.2192326,2.287003,-0.9200394
169,2024-05-15 22:17:00.474699,-1.4145863,0.53744453,2.6903346,-5.2192326,2.287003,-0.9200394
170,2024-05-15 22:17:00.490149,-0.7178029,1.4140981,2.6651967,-5.001154,0.27175868,0.18562667
171,2024-05-15 22:17:00.507703,-0.2831064,1.9503224,2.8704488,-3.9229765,0.55703276,0.69936436
172,2024-05-15 22:17:00.524879,-0.033923957,2.1975524,2.5285246,-2.9400945,0.3664428,1.1074224
173,2024-05-15 22:17:00.540591,0.035632357,2.2441673,2.4828553,-2.8386908,0.23388503,1.1880566
174,2024-05-15 22:17:00.558155,0.33753118,2.242947,2.5795326,-1.6523905,-0.8693376,1.4183527
175,2024-05-15 22:17:00.571764,0.4271002,2.1775398,2.567818,-0.9242391,-1.1460595,1.3444381
176,2024-05-15 22:17:00.587815,0.4886026,2.0128012,2.5011902,0.3359759,-1.3256539,1.0096838
177,2024-05-15 22:17:00.606894,0.23649146,1.5800875,2.1599677,2.0433443,-1.3574189,0.48861584
178,2024-05-15 22:17:00.624212,-0.061746486,1.182732,1.7541004,3.1196887,-1.5040265,0.156916
179,2024-05-15 22:17:00.640762,-0.19841854,1.0555781,1.5810639,3.25469,-1.6066519,0.14469871
180,2024-05-15 22:17:00.656006,-0.3863426,0.74831,1.3303866,3.400076,-2.4105506,0.26503915
181,2024-05-15 22:17:00.674703,-0.3743838,0.52450955,1.3852994,3.707952,-2.6029732,0.18196149
182,2024-05-15 22:17:00.690288,-0.37828872,0.46785772,1.3921331,3.8398988,-2.5345562,0.12942708
183,2024-05-15 22:17:00.707915,-0.41855815,0.19109683,1.3423454,4.4941354,-1.9945514,-0.21326832
184,2024-05-15 22:17:00.723604,-0.41855815,0.19109683,1.3423454,4.4941354,-1.9945514,-0.21326832
185,2024-05-15 22:17:00.741229,-0.41855815,0.19109683,1.3423454,4.4941354,-1.9945514,-0.21326832
186,2024-05-15 22:17:00.756385,-0.41855815,0.19109683,1.3423454,4.4941354,-1.9945514,-0.21326832
187,2024-05-15 22:17:00.773612,-0.41855815,0.19109683,1.3423454,4.4941354,-1.9945514,-0.21326832
188,2024-05-15 22:17:00.790750,-0.9211026,-0.93843067,1.6840559,4.5216246,0.23877195,-1.0379364
189,2024-05-15 22:17:00.807892,-0.9211026,-0.93843067,1.6840559,4.5216246,0.23877195,-1.0379364
190,2024-05-15 22:17:00.824594,-0.9211026,-0.93843067,1.6840559,4.5216246,0.23877195,-1.0379364
191,2024-05-15 22:17:00.840260,-1.6777105,-1.6440306,0.9628363,1.890017,0.0182496,0.3658319
192,2024-05-15 22:17:00.857861,-0.86204064,-2.33276,0.26162934,-0.118507855,-0.7929794,0.7763334
193,2024-05-15 22:17:00.869052,-0.5703923,-2.26418,0.026602242,-0.67256266,-1.0153344,0.41225767
194,2024-05-15 22:17:00.886383,-0.3973252,-2.144592,-0.23380683,-1.808772,-0.522977,-0.34216088
195,2024-05-15 22:17:00.902834,-0.47225076,-1.9315301,-0.46614933,-2.6004534,0.28275424,-0.7581601
196,2024-05-15 22:17:00.919521,-0.7832102,-1.6806393,-0.34582913,-3.7384953,1.9003254,-1.2065352
197,2024-05-15 22:17:00.936495,-0.89718497,-1.6257263,-0.25674823,-4.212527,2.2979987,-1.3971251
198,2024-05-15 22:17:00.952319,-1.1146399,-1.3213564,0.37169918,-5.34446,3.3059263,-2.1881957
199,2024-05-15 22:17:00.968990,-1.2840157,-1.1863928,0.73830366,-5.681658,3.7231474,-2.5211172
200,2024-05-15 22:17:00.985636,-1.3801743,-1.1180567,0.92744803,-5.7629027,3.8905244,-2.6261861
201,2024-05-15 22:17:01.002302,-2.034034,-0.2020794,2.366928,-5.266269,4.8917327,-2.884582
202,2024-05-15 22:17:01.018965,-2.1380026,0.42197496,2.5102203,-4.924185,3.2356768,-2.5608234
203,2024-05-15 22:17:01.036068,-2.0101166,0.67802155,2.493594,-5.0084844,2.4171174,-2.3928356
204,2024-05-15 22:17:01.052239,-1.5119957,1.366507,2.760135,-5.186246,1.1880566,-1.8998673
205,2024-05-15 22:17:01.069382,-1.3030521,2.0418441,3.2872987,-3.7158933,1.1306353,-1.5376241
206,2024-05-15 22:17:01.086258,-1.0829124,2.5412154,3.0818024,-2.6181684,0.9693668,-1.2951107
207,2024-05-15 22:17:01.102273,-0.8434923,2.8438466,2.3210454,-1.4147639,0.34933856,-0.7563275
208,2024-05-15 22:17:01.118871,-0.66044945,2.9446423,1.9854666,-0.883922,-0.41363212,0.14347698
209,2024-05-15 22:17:01.135604,-0.500836,2.8828957,1.9930325,-0.5216789,-0.6372088,0.60651284
210,2024-05-15 22:17:01.153107,-0.15619664,2.5480492,2.1301925,0.72265357,-0.618272,1.01396
211,2024-05-15 22:17:01.168877,-0.17303659,2.0638092,2.1194541,2.3695462,-0.31100675,1.000521
212,2024-05-15 22:17:01.185523,-0.28261828,1.8351275,1.9810737,3.0085113,-0.29695687,1.0035752
213,2024-05-15 22:17:01.202384,-0.63579965,1.2688842,1.5188292,3.7183368,-0.8412378,1.153848
214,2024-05-15 22:17:01.219670,-0.7563639,1.1268429,1.4826783,3.866777,-1.7092773,1.4788284
215,2024-05-15 22:17:01.236629,-0.8129852,1.0021296,1.5078467,4.01705,-2.0293708,1.6761379
216,2024-05-15 22:17:01.252187,-0.8637491,0.71438605,1.5097991,4.550946,-2.1210005,2.006005
217,2024-05-15 22:17:01.268847,-0.87131494,0.45907167,1.5320083,5.076901,-1.7135534,2.1507802
218,2024-05-15 22:17:01.284682,-0.8691184,0.3275248,1.555682,5.2424455,-1.5254068,2.1000783
219,2024-05-15 22:17:01.301901,-0.9369663,0.10494461,1.8097456,5.5161133,-1.062371,1.8245782
220,2024-05-15 22:17:01.318816,-1.0855972,-0.14960709,1.8756409,6.081774,-0.89010704,1.6993507
221,2024-05-15 22:17:01.334277,-1.0794957,-0.32850105,1.7240813,6.1672955,-0.7758752,1.6150514
222,2024-05-15 22:17:01.352162,-1.1065861,-0.63506746,1.4838986,5.957158,-0.60116774,1.4098006
223,2024-05-15 22:17:01.368800,-1.1065861,-0.63506746,1.4838986,5.957158,-0.60116774,1.4098006
224,2024-05-15 22:17:01.385479,-1.1065861,-0.63506746,1.4838986,5.957158,-0.60116774,1.4098006
225,2024-05-15 22:17:01.403258,-1.1065861,-0.63506746,1.4838986,5.957158,-0.60116774,1.4098006
226,2024-05-15 22:17:01.418762,-1.1065861,-0.63506746,1.4838986,5.957158,-0.60116774,1.4098006
227,2024-05-15 22:17:01.469652,-1.1065861,-0.63506746,1.4838986,5.957158,-0.60116774,1.4098006
228,2024-05-15 22:17:01.485501,-1.1065861,-0.63506746,1.4838986,5.957158,-0.60116774,1.4098006
229,2024-05-15 22:17:01.502156,-1.8351275,-2.2004812,1.7221289,2.2266037,1.0732139,0.37988183
230,2024-05-15 22:17:01.524658,-1.5002809,-1.5149243,0.17059602,-5.849035,2.4904213,-2.009823
231,2024-05-15 22:17:01.536141,-1.5002809,-1.5149243,0.17059602,-5.849035,2.4904213,-2.009823
232,2024-05-15 22:17:01.553072,-1.8361037,-0.9376984,1.0326368,-6.4495153,3.361515,-1.8198439
233,2024-05-15 22:17:01.568184,-2.096269,-0.30580372,2.0396473,-6.5472536,3.8361573,-1.701336
234,2024-05-15 22:17:01.586212,-2.1387346,-0.009518232,2.3332481,-6.3132925,3.5740962,-1.6591864
235,2024-05-15 22:17:01.602038,-1.9913242,0.53622425,2.3378854,-6.116594,2.2124774,-1.1588877
236,2024-05-15 22:17:01.618049,-1.3848114,1.0858412,2.467968,-6.573521,1.8105283,-0.65553474
237,2024-05-15 22:17:01.637447,-1.255461,1.3855435,3.0144427,-5.773898,2.75798,-0.46738827
238,2024-05-15 22:17:01.652919,-1.1678444,2.0706427,3.6851425,-5.02681,2.8282297,-0.3244458
239,2024-05-15 22:17:01.668772,-0.89083946,2.9102302,3.6002104,-3.2669072,1.0524445,0.66271245
240,2024-05-15 22:17:01.686298,-0.054424766,3.101571,2.823346,-2.2907448,-1.2431872,1.7152332
241,2024-05-15 22:17:01.702757,0.15741692,3.0913208,2.7042458,-2.1410828,-1.5547284,1.8203021
242,2024-05-15 22:17:01.718661,0.7431848,2.7928386,2.564157,-0.16554448,-1.8962021,1.7769307
243,2024-05-15 22:17:01.735331,0.7509947,2.7152286,2.4701643,0.36774087,-1.733712,1.6345991
244,2024-05-15 22:17:01.752058,0.29067218,2.272234,1.9966934,2.6865854,-1.529072,0.8074875
245,2024-05-15 22:17:01.768700,-0.38585448,1.8793018,1.5700814,3.3432655,-2.2749386,0.69386655
246,2024-05-15 22:17:01.784582,-0.75221497,1.7018722,1.5461637,3.5301902,-2.694603,1.0206795
247,2024-05-15 22:17:01.802970,-0.8002942,1.1588143,1.5742302,4.255287,-3.2718706,1.7689894
248,2024-05-15 22:17:01.818628,-0.7900438,0.91670954,1.692354,4.82889,-3.1576388,1.6791922
249,2024-05-15 22:17:01.836132,-0.95209783,0.5537964,1.6306075,6.0219097,-2.6665032,1.4513395
250,2024-05-15 22:17:01.850534,-1.1131755,0.4368625,1.4980844,6.3749895,-2.4325418,1.3908638
251,2024-05-15 22:17:01.868615,-1.4204437,0.32557237,1.4075086,6.404922,-2.0941224,1.507539
252,2024-05-15 22:17:01.885278,-1.6393934,0.18231077,1.5739862,5.932723,-1.833283,1.9864575
253,2024-05-15 22:17:01.903843,-1.517609,0.013179091,1.636953,5.701816,-1.8180113,2.1733823
254,2024-05-15 22:17:01.917161,-1.2437462,-0.7263449,1.8727121,5.266269,-1.4209489,1.7097355
255,2024-05-15 22:17:01.936290,-1.1375813,-1.2051852,1.9234762,5.298034,-1.0281626,0.9931905
256,2024-05-15 22:17:01.951953,-1.2832836,-1.5573903,1.6684363,5.307808,-0.42401683,-0.541303
257,2024-05-15 22:17:01.968585,-2.008408,-2.122871,1.199816,4.678617,0.69753176,-0.89010704
258,2024-05-15 22:17:01.984562,-2.1702182,-2.5075357,0.43295756,2.4049764,0.56802833,-0.095371336
259,2024-05-15 22:17:02.002047,-2.1702182,-2.5075357,0.43295756,2.4049764,0.56802833,-0.095371336
260,2024-05-15 22:17:02.019346,-2.1702182,-2.5075357,0.43295756,2.4049764,0.56802833,-0.095371336
261,2024-05-15 22:17:02.036050,-2.1702182,-2.5075357,0.43295756,2.4049764,0.56802833,-0.095371336
262,2024-05-15 22:17:02.050191,-2.1702182,-2.5075357,0.43295756,2.4049764,0.56802833,-0.095371336
263,2024-05-15 22:17:02.068389,-2.1702182,-2.5075357,0.43295756,2.4049764,0.56802833,-0.095371336
264,2024-05-15 22:17:02.085948,-2.1702182,-2.5075357,0.43295756,2.4049764,0.56802833,-0.095371336
265,2024-05-15 22:17:02.100461,-2.1702182,-2.5075357,0.43295756,2.4049764,0.56802833,-0.095371336
266,2024-05-15 22:17:02.119491,-2.1702182,-2.5075357,0.43295756,2.4049764,0.56802833,-0.095371336
267,2024-05-15 22:17:02.135249,-1.2046971,-2.0796728,-0.6999867,-3.7549887,0.45196393,-3.129539
268,2024-05-15 22:17:02.151857,-2.4450266,-0.61920375,2.1458125,-6.4397416,3.987652,-4.207716
269,2024-05-15 22:17:02.169308,-2.9685597,-0.010982576,2.4616225,-6.200282,2.9962177,-4.086154
270,2024-05-15 22:17:02.184539,-3.0312827,0.6082212,2.752325,-6.0720005,2.5240188,-3.0366874
271,2024-05-15 22:17:02.196369,-2.819929,0.86057633,2.7345088,-6.1404176,2.6132052,-2.6017513
272,2024-05-15 22:17:02.218505,-2.5844138,1.4116577,3.109869,-6.419583,2.564947,-2.128331
273,2024-05-15 22:17:02.235263,-2.3461833,2.1087155,3.6587842,-5.601023,1.4043028,-1.5052483
274,2024-05-15 22:17:02.251836,-2.0660055,2.6944835,3.5884957,-4.747645,0.47823113,-0.94447404
275,2024-05-15 22:17:02.268479,-1.1739459,2.9087658,2.5912473,-3.2785137,-1.1875983,0.45135304
276,2024-05-15 22:17:02.291613,-0.14643435,2.9592857,2.0904114,-2.4941628,-1.706223,1.1507938
277,2024-05-15 22:17:02.315637,0.076633975,2.812119,2.3674164,0.20586158,-0.7288386,1.050001
278,2024-05-15 22:17:02.331637,-0.0046370877,2.7235262,2.3264146,0.852157,-0.6695847,1.0371728
279,2024-05-15 22:17:02.347872,-0.5828392,2.1602116,1.9181069,2.4190264,-1.2462415,1.4922675
280,2024-05-15 22:17:02.368226,-0.7148742,1.9273812,1.892481,2.6267207,-1.5498415,1.7677677
281,2024-05-15 22:17:02.385661,-0.71340984,1.0563103,1.9093208,3.7604864,-2.7135398,2.259514
282,2024-05-15 22:17:02.401901,-0.748066,0.81396145,1.8717359,4.188703,-2.9365056,2.1355085
283,2024-05-15 22:17:02.418492,-0.8964527,0.38731885,1.8321989,5.105001,-2.957886,1.8422933
284,2024-05-15 22:17:02.443228,-1.2066495,0.12471326,1.7255458,5.9773164,-2.4319308,1.8044195
285,2024-05-15 22:17:02.468484,-1.4058002,-0.16058967,1.5185852,6.166074,-2.0788507,2.079309
286,2024-05-15 22:17:02.484974,-1.3355118,-0.45711923,1.5285915,6.0139685,-2.00066,1.9119319
287,2024-05-15 22:17:02.502265,-1.3765135,-0.675825,1.6376853,5.893628,-1.5895478,1.5325845
288,2024-05-15 22:17:02.518465,-1.9896158,-1.0260471,1.9408044,5.6743274,0.0035888334,0.82031566
289,2024-05-15 22:17:02.535093,-2.2378218,-1.4536355,1.7104142,5.0842314,0.5387068,1.290682
290,2024-05-15 22:17:02.551746,-2.1865697,-1.6699008,1.5449433,4.4037275,0.30841058,1.4372896
291,2024-05-15 22:17:02.567404,-2.003771,-2.3942626,1.1727256,2.557082,-1.0794753,1.5900059
292,2024-05-15 22:17:02.592451,-1.3469825,-2.9080336,0.80786,1.5228871,-1.624367,1.4214071
293,2024-05-15 22:17:02.618419,-0.23942018,-2.84946,-0.4024504,-0.26083946,-1.63353,-0.025121834
294,2024-05-15 22:17:02.635034,-0.044418417,-2.7164488,-0.6152988,-0.8717047,-1.6439147,-0.55046594
295,2024-05-15 22:17:02.651678,-0.044418417,-2.7164488,-0.6152988,-0.8717047,-1.6439147,-0.55046594
296,2024-05-15 22:17:02.668374,-0.044418417,-2.7164488,-0.6152988,-0.8717047,-1.6439147,-0.55046594
297,2024-05-15 22:17:02.684998,-0.044418417,-2.7164488,-0.6152988,-0.8717047,-1.6439147,-0.55046594
298,2024-05-15 22:17:02.701650,-0.044418417,-2.7164488,-0.6152988,-0.8717047,-1.6439147,-0.55046594
299,2024-05-15 22:17:02.718333,-0.044418417,-2.7164488,-0.6152988,-0.8717047,-1.6439147,-0.55046594
300,2024-05-15 22:17:02.734993,-0.044418417,-2.7164488,-0.6152988,-0.8717047,-1.6439147,-0.55046594
301,2024-05-15 22:17:02.751637,-0.044418417,-2.7164488,-0.6152988,-0.8717047,-1.6439147,-0.55046594
302,2024-05-15 22:17:02.767072,-0.044418417,-2.7164488,-0.6152988,-0.8717047,-1.6439147,-0.55046594
303,2024-05-15 22:17:02.785010,-0.044418417,-2.7164488,-0.6152988,-0.8717047,-1.6439147,-0.55046594
304,2024-05-15 22:17:02.801683,-2.5783124,0.84446853,2.615165,-5.6230145,0.42142066,-1.8858174
305,2024-05-15 22:17:02.818303,-1.6772224,1.4402124,3.0215204,-5.7641244,0.23755023,-1.3421474
306,2024-05-15 22:17:02.834939,-1.281087,1.9791212,3.241904,-3.7226129,0.18929186,-1.1197923
307,2024-05-15 22:17:02.851620,-1.1800473,2.1687536,2.9033966,-3.050661,-0.008628472,-1.0587058
308,2024-05-15 22:17:02.868288,-1.0965797,2.5182743,1.8351275,-1.6804903,-0.96524346,-0.23770294
309,2024-05-15 22:17:02.883529,-0.7971215,2.6227307,1.4658383,-1.8319849,-1.2773956,0.4067599
310,2024-05-15 22:17:02.901630,-0.5938218,2.568794,1.6806393,-2.0231857,-1.3910165,1.2961797
311,2024-05-15 22:17:02.916862,-0.14521407,2.3173845,2.4350202,-0.42577308,-0.69585186,1.539915
312,2024-05-15 22:17:02.934539,-0.10348027,2.15289,2.6298084,0.75441855,-0.25358543,1.290071
313,2024-05-15 22:17:02.951788,-0.75734013,1.6093745,2.4181802,3.5301902,-0.13507758,1.0530553
314,2024-05-15 22:17:02.968195,-0.9718665,1.4128779,2.2390423,3.9504654,-0.61033076,1.3248904
315,2024-05-15 22:17:02.984865,-1.0653404,1.2159237,2.088459,4.1734314,-1.161942,1.6187166
316,2024-05-15 22:17:03.001751,-1.0655844,0.8010264,1.9608169,4.433049,-2.0476966,1.9595793
317,2024-05-15 22:17:03.020449,-1.0250709,0.5547726,1.982294,4.786129,-2.2370648,1.969964
318,2024-05-15 22:17:03.036143,-1.0697334,0.16034561,1.9408044,5.761681,-1.9609538,1.8410715
319,2024-05-15 22:17:03.052422,-1.1602787,-0.07980672,1.7870481,6.365216,-1.5730543,1.7494417
320,2024-05-15 22:17:03.070169,-1.4192234,-0.3619369,1.6674601,6.563747,-1.1118511,1.8044195
321,2024-05-15 22:17:03.080214,-1.6362208,-0.6143226,1.6864966,6.454402,-0.9469175,1.8856647
322,2024-05-15 22:17:03.092373,-1.8280497,-0.8896192,1.726278,6.2485404,-0.69585186,1.911321
323,2024-05-15 22:17:03.118284,-1.9815617,-1.5078467,1.6779546,5.3823338,-0.32566753,1.9149861
324,2024-05-15 22:17:03.135100,-1.9276252,-2.037451,1.6655077,4.8038445,-0.26030496,1.9363664
325,2024-05-15 22:17:03.151089,-1.9181069,-2.2002373,1.5681288,4.7152686,-0.32688928,1.9302578
326,2024-05-15 22:17:03.167341,-1.4882916,-2.7752664,0.52426547,3.4831536,-1.1039099,1.92476
327,2024-05-15 22:17:03.186395,-1.1680884,-2.7786834,0.2020794,2.5729644,-1.2144765,1.8166369
328,2024-05-15 22:17:03.203765,-0.44906533,-2.6827688,-0.30433938,1.0494665,-1.3671927,1.4928783
329,2024-05-15 22:17:03.218483,-0.24600971,-2.5375547,-0.353883,-1.2724323,-2.3146448,0.29985848
330,2024-05-15 22:17:03.236020,-0.023673553,-2.3342245,-0.49763274,-2.2797492,-2.2431736,-0.9890672
331,2024-05-15 22:17:03.251371,0.09737884,-2.0005982,-0.8522784,-2.791654,-1.7758616,-1.5302938
332,2024-05-15 22:17:03.269227,-0.447601,-1.6784426,-0.60895336,-4.5399504,0.8135961,-2.7514133
333,2024-05-15 22:17:03.280162,-0.447601,-1.6784426,-0.60895336,-4.5399504,0.8135961,-2.7514133
334,2024-05-15 22:17:03.296786,-0.447601,-1.6784426,-0.60895336,-4.5399504,0.8135961,-2.7514133
335,2024-05-15 22:17:03.312915,-0.447601,-1.6784426,-0.60895336,-4.5399504,0.8135961,-2.7514133
336,2024-05-15 22:17:03.329434,-0.447601,-1.6784426,-0.60895336,-4.5399504,0.8135961,-2.7514133
337,2024-05-15 22:17:03.353094,-0.447601,-1.6784426,-0.60895336,-4.5399504,0.8135961,-2.7514133
338,2024-05-15 22:17:03.368774,-0.447601,-1.6784426,-0.60895336,-4.5399504,0.8135961,-2.7514133
339,2024-05-15 22:17:03.388359,-1.0655844,-1.4018954,-0.082247294,-5.1642547,2.0457113,-2.9444468
340,2024-05-15 22:17:03.403090,-1.1578381,-1.3418572,0.005857374,-5.267491,2.1843777,-2.9542208
341,2024-05-15 22:17:03.419233,-1.722617,1.8221923,2.2324526,-2.5558603,1.3474923,-2.1515439
342,2024-05-15 22:17:03.434831,-1.6337801,2.5080237,1.9854666,-2.3866506,0.5081635,-0.71051264
343,2024-05-15 22:17:03.452893,-1.2561932,2.5995452,1.990592,-2.466063,0.33223432,-0.03306308
344,2024-05-15 22:17:03.468648,-1.0824244,2.5295007,2.0955365,-2.470339,-0.08498663,1.4660002
345,2024-05-15 22:17:03.485086,-0.25650415,2.1394668,2.504119,-1.0897835,-0.49732068,2.3596961
346,2024-05-15 22:17:03.501955,-0.1432616,2.0716188,2.4916415,-0.79290307,-0.56573755,2.373746
347,2024-05-15 22:17:03.518614,0.20110317,1.7638626,2.2920027,0.698219,-0.8839984,2.1086304
348,2024-05-15 22:17:03.534785,-0.007565775,1.5395741,2.3547254,1.9095647,-1.0996338,1.8007544
349,2024-05-15 22:17:03.552275,-0.16791138,1.4250808,2.3945067,2.329229,-1.2169199,1.753107
350,2024-05-15 22:17:03.568356,-0.5040087,1.1322122,2.468456,3.0805933,-1.6097063,1.6853008
351,2024-05-15 22:17:03.584751,-0.69559366,0.9791882,2.5497575,3.6914587,-1.8503872,1.5545757
352,2024-05-15 22:17:03.601473,-0.8896192,0.82323563,2.5502458,4.6981645,-2.4502568,1.3517684
353,2024-05-15 22:17:03.618432,-1.3445419,0.4651731,2.0638092,5.23145,-2.9181798,1.3914747
354,2024-05-15 22:17:03.634782,-1.4497305,0.1044565,1.6442746,5.667608,-2.956664,1.5173129
355,2024-05-15 22:17:03.651883,-1.4716958,-0.028066583,1.4765769,5.734192,-2.8723648,1.5283085
356,2024-05-15 22:17:03.668332,-1.4250808,-0.25894472,1.3106179,5.7457986,-2.5168412,1.4776067
357,2024-05-15 22:17:03.684702,-1.5183411,-0.63579965,1.2039648,5.6737165,-1.7098882,1.1520154
358,2024-05-15 22:17:03.702938,-1.7177359,-0.98675394,1.1070741,5.6737165,-1.7098882,1.1520154
359,2024-05-15 22:17:03.717596,-1.7648389,-1.3752931,0.7797934,5.2913146,-1.3103824,1.0432814
360,2024-05-15 22:17:03.734967,-1.5791113,-1.9561797,0.45321432,4.0640864,-0.77892953,1.4592807
361,2024-05-15 22:17:03.751866,-1.3147669,-2.2734542,0.34973404,3.640146,-0.446008,1.4122441
362,2024-05-15 22:17:03.768565,-1.0475242,-2.6593392,0.059305906,2.6603181,0.32307136,1.0475576
363,2024-05-15 22:17:03.784742,-0.8200629,-2.8106549,-0.16034561,1.713477,0.49350277,0.74823356
364,2024-05-15 22:17:03.801733,-0.43295756,-2.7159605,-0.5462307,-0.4098906,-0.017180584,0.16852245
365,2024-05-15 22:17:03.818909,-0.1552204,-2.5880747,-0.6087093,-1.6151277,-0.4796056,-0.19433151
366,2024-05-15 22:17:03.835059,0.15570852,-2.2624717,-0.21672285,-3.8252382,0.01947133,-2.122833
367,2024-05-15 22:17:03.851381,-0.029042812,-2.1114001,0.011958805,-4.0311,0.814207,-2.8693104
368,2024-05-15 22:17:03.868545,-0.49738866,-1.7597138,0.4656612,-4.1300597,2.5838835,-4.1747293
369,2024-05-15 22:17:03.885529,-1.6735615,-1.3013438,1.0287318,-4.4929137,3.5081227,-4.816138
370,2024-05-15 22:17:03.901352,-1.6735615,-1.3013438,1.0287318,-4.4929137,3.5081227,-4.816138
371,2024-05-15 22:17:03.918482,-2.1262877,-0.89205974,1.3796861,-4.8539352,3.3602934,-4.7361145
372,2024-05-15 22:17:03.935154,-2.1262877,-0.89205974,1.3796861,-4.8539352,3.3602934,-4.7361145
373,2024-05-15 22:17:03.951816,-2.1262877,-0.89205974,1.3796861,-4.8539352,3.3602934,-4.7361145
374,2024-05-15 22:17:03.968468,-2.1262877,-0.89205974,1.3796861,-4.8539352,3.3602934,-4.7361145
375,2024-05-15 22:17:03.985151,-2.1262877,-0.89205974,1.3796861,-4.8539352,3.3602934,-4.7361145
376,2024-05-15 22:17:04.001826,-2.1262877,-0.89205974,1.3796861,-4.8539352,3.3602934,-4.7361145
377,2024-05-15 22:17:04.018486,-2.1262877,-0.89205974,1.3796861,-4.8539352,3.3602934,-4.7361145
378,2024-05-15 22:17:04.035124,-2.1262877,-0.89205974,1.3796861,-4.8539352,3.3602934,-4.7361145
379,2024-05-15 22:17:04.051785,-2.1262877,-0.89205974,1.3796861,-4.8539352,3.3602934,-4.7361145
380,2024-05-15 22:17:04.067876,-1.5888737,1.1449031,1.5266391,-4.13739,-0.2926808,-1.4863116
381,2024-05-15 22:17:04.085806,-0.31556603,2.2578347,2.2629597,-1.5253305,1.1569024,1.0359511
382,2024-05-15 22:17:04.101375,-0.45077375,2.20341,2.166069,-0.064751714,0.33345607,1.1428525
383,2024-05-15 22:17:04.118288,-0.5364683,2.126776,1.9923004,0.5021312,-0.3048981,1.4769958
384,2024-05-15 22:17:04.135077,-0.51621157,1.9032195,1.9278692,0.9120218,-0.7972555,1.9058232
385,2024-05-15 22:17:04.151760,-0.44467232,1.569105,2.084066,1.5241088,-0.99823016,1.9937878
386,2024-05-15 22:17:04.168835,-0.48103684,1.404336,2.1963322,2.4037547,-0.8113054,1.7463874
387,2024-05-15 22:17:04.184581,-0.6553242,1.0589949,2.3212895,3.0653217,-0.78015125,1.5411366
388,2024-05-15 22:17:04.202782,-1.0074989,0.78076965,2.0555112,4.0506473,-1.284726,1.3774247
389,2024-05-15 22:17:04.218388,-1.1278191,0.69681394,1.9200593,4.2913284,-1.6170367,1.4782175
390,2024-05-15 22:17:04.235691,-1.1649158,0.42392743,1.4375277,4.4232755,-2.000049,1.6590337
391,2024-05-15 22:17:04.251742,-1.0035939,0.17962612,1.3032962,4.387845,-2.7007115,2.0231094
392,2024-05-15 22:17:04.268231,-0.8969409,0.03099527,1.2874324,4.4929137,-2.8876364,1.9155971
393,2024-05-15 22:17:04.301858,-0.9267159,-0.49079913,1.0760789,5.117829,-1.5687783,0.6822601
394,2024-05-15 22:17:04.318538,-1.272301,-0.9328173,1.0731503,4.842329,-0.7569384,0.5228243
395,2024-05-15 22:17:04.334165,-1.272301,-0.9328173,1.0731503,4.842329,-0.7569384,0.5228243
396,2024-05-15 22:17:04.351158,-1.3757812,-1.3291663,1.0228745,4.138001,-0.44906232,0.32001704
397,2024-05-15 22:17:04.367894,-1.357965,-1.494393,0.95575863,3.7018435,-0.5101488,0.24060455
398,2024-05-15 22:17:04.384556,-1.2840157,-1.8148707,0.7414764,2.6187794,-0.69524103,0.044516806
399,2024-05-15 22:17:04.401346,-1.2744975,-2.1582592,0.5552608,1.4074335,-0.66103256,0.08972083
400,2024-05-15 22:17:04.417991,-1.1092707,-2.16192,0.47859627,0.90102625,-0.5791766,0.13920091
401,2024-05-15 22:17:04.435041,-0.6836348,-2.1968203,0.013667206,-0.15882497,-0.64331746,-7.6358156e-05
402,2024-05-15 22:17:04.452312,-0.18841219,-2.0440404,-0.47151858,-1.7849482,-1.071534,-0.65919995
403,2024-05-15 22:17:04.468076,-0.045394648,-1.9608169,-0.5396411,-2.656653,-0.9750173,-1.1888201
404,2024-05-15 22:17:04.484983,-0.16742326,-1.8165792,-0.35144243,-4.0237694,-0.11064297,-2.322586
405,2024-05-15 22:17:04.501685,-0.30287504,-1.7663033,-0.22990192,-4.5393395,1.294958,-3.025692
406,2024-05-15 22:17:04.517983,-1.182732,-1.1942025,0.3287451,-4.8081203,2.5179102,-3.2150602
407,2024-05-15 22:17:04.534512,-1.4946371,-0.9772358,0.6226205,-5.476407,2.9100857,-3.3543375
408,2024-05-15 22:17:04.552248,-1.8151147,-0.58479166,1.4126339,-5.9394426,2.7927995,-3.6084573
409,2024-05-15 22:17:04.568276,-1.8151147,-0.58479166,1.4126339,-5.9394426,2.7927995,-3.6084573
410,2024-05-15 22:17:04.584939,-1.8151147,-0.58479166,1.4126339,-5.9394426,2.7927995,-3.6084573
411,2024-05-15 22:17:04.601605,-1.8151147,-0.58479166,1.4126339,-5.9394426,2.7927995,-3.6084573
412,2024-05-15 22:17:04.617752,-1.8151147,-0.58479166,1.4126339,-5.9394426,2.7927995,-3.6084573
413,2024-05-15 22:17:04.634408,-1.8151147,-0.58479166,1.4126339,-5.9394426,2.7927995,-3.6084573
414,2024-05-15 22:17:04.649383,-1.8151147,-0.58479166,1.4126339,-5.9394426,2.7927995,-3.6084573
415,2024-05-15 22:17:04.668066,-1.8151147,-0.58479166,1.4126339,-5.9394426,2.7927995,-3.6084573
416,2024-05-15 22:17:04.684751,-0.7756444,2.4560091,1.9940087,-0.816116,0.4385249,-0.0031306844
417,2024-05-15 22:17:04.701597,-0.82128316,2.3823037,1.6186486,-0.6096435,-0.49548808,0.9718102
418,2024-05-15 22:17:04.717767,-0.5210927,2.1665573,1.7333556,-0.5204572,-0.85467684,1.475774
419,2024-05-15 22:17:04.734598,-0.24747404,1.8717359,2.0311053,0.30298916,-0.813138,2.0573177
420,2024-05-15 22:17:04.751557,-0.21721096,1.6772224,2.2073147,1.3158038,-0.4356233,1.9076558
421,2024-05-15 22:17:04.767748,-0.46492904,1.3887162,2.2614956,2.4929411,-0.328111,1.5576301
422,2024-05-15 22:17:04.784888,-0.6765572,1.2403294,2.251245,2.9297097,-0.5278639,1.5136477
423,2024-05-15 22:17:04.801517,-1.0331249,0.94916916,2.1275082,3.6334264,-1.3629167,1.7457765
424,2024-05-15 22:17:04.818246,-1.0458158,0.6211562,1.8004713,3.9608502,-2.069077,1.9522489
425,2024-05-15 22:17:04.834891,-0.94306767,0.3018988,1.5983919,4.321261,-2.7563004,1.9980638
426,2024-05-15 22:17:04.851514,-0.8349504,0.13447554,1.5105313,4.68778,-2.7758482,1.7860936
427,2024-05-15 22:17:04.869366,-0.803467,-0.11177822,1.3970143,5.223509,-2.1704805,1.3236686
428,2024-05-15 22:17:04.884844,-0.9040186,-0.27895743,1.374561,5.4599137,-1.6634624,1.07749
429,2024-05-15 22:17:04.901516,-1.1553975,-0.5579454,1.2325196,5.7183094,-1.0043389,0.7745008
430,2024-05-15 22:17:04.918103,-1.4548558,-0.8671659,1.080228,5.5826974,-0.69585186,0.7396815
431,2024-05-15 22:17:04.934834,-1.5366454,-1.1209855,1.0328808,5.0616293,-0.36781722,0.8795696
432,2024-05-15 22:17:04.951489,-1.6503762,-1.7511717,0.91622144,3.9107592,-0.082543164,0.8300895
433,2024-05-15 22:17:04.968051,-1.443385,-2.1460564,0.77906126,2.8087585,-0.1417971,0.6364452
434,2024-05-15 22:17:04.984806,-1.3257495,-2.2485604,0.73927987,2.3377812,-0.048945576,0.53748506
435,2024-05-15 22:17:05.001482,-1.0145764,-2.4338,0.2877435,1.4049901,-0.1735621,0.4366923
436,2024-05-15 22:17:05.017947,-0.51547945,-2.4403894,-0.3526627,-0.35796702,-0.71173435,0.14958562
437,2024-05-15 22:17:05.034224,-0.18084641,-2.3078663,-0.5203605,-1.4013249,-1.0275517,-0.21998784
438,2024-05-15 22:17:05.050927,0.16864355,-1.9913242,-0.3431445,-2.9743028,-0.6701955,-1.5400677
439,2024-05-15 22:17:05.068108,0.027334413,-1.8983383,-0.16547081,-3.3377676,-0.09720393,-2.2749386
440,2024-05-15 22:17:05.084762,-0.5960183,-1.6401258,0.099575356,-3.5589008,1.1678979,-3.283477
441,2024-05-15 22:17:05.101468,-1.1580821,-1.3399048,0.1513155,-4.0268235,1.8496236,-3.583412
442,2024-05-15 22:17:05.117791,-1.670877,-0.96308035,0.44857723,-4.782464,1.9455295,-3.2932508
443,2024-05-15 22:17:05.134753,-1.7602019,-0.65288365,0.739768,-5.612019,1.9772944,-3.048905
444,2024-05-15 22:17:05.151421,-1.9847347,-0.09689073,1.8880879,-6.2589254,1.8093065,-3.0440178
445,2024-05-15 22:17:05.168102,-2.2973719,0.42148685,2.5375547,-5.25283,1.0371728,-2.5113435
446,2024-05-15 22:17:05.184770,-2.2158568,0.66191375,2.4616225,-4.747645,0.66271245,-2.0183752
447,2024-05-15 22:17:05.201436,-2.2158568,0.66191375,2.4616225,-4.747645,0.66271245,-2.0183752
448,2024-05-15 22:17:05.218108,-2.2158568,0.66191375,2.4616225,-4.747645,0.66271245,-2.0183752
449,2024-05-15 22:17:05.234744,-2.2158568,0.66191375,2.4616225,-4.747645,0.66271245,-2.0183752
450,2024-05-15 22:17:05.251394,-2.2158568,0.66191375,2.4616225,-4.747645,0.66271245,-2.0183752
451,2024-05-15 22:17:05.268060,-2.2158568,0.66191375,2.4616225,-4.747645,0.66271245,-2.0183752
452,2024-05-15 22:17:05.284740,-2.2158568,0.66191375,2.4616225,-4.747645,0.66271245,-2.0183752
453,2024-05-15 22:17:05.301569,-0.6924209,2.4521043,1.8722242,-0.035430185,-0.5651267,0.95959294
454,2024-05-15 22:17:05.318034,-0.6924209,2.4521043,1.8722242,-0.035430185,-0.5651267,0.95959294
455,2024-05-15 22:17:05.334679,-0.6924209,2.4521043,1.8722242,-0.035430185,-0.5651267,0.95959294
456,2024-05-15 22:17:05.350973,-0.34168017,1.8758851,2.1802244,1.681712,-1.0110583,1.4824936
457,2024-05-15 22:17:05.367539,-0.5755175,1.6350006,2.1838853,2.6352727,-0.8442921,1.2705233
458,2024-05-15 22:17:05.384690,-0.92427534,1.2986591,2.1345856,3.4391713,-1.0953578,1.3456597
459,2024-05-15 22:17:05.401366,-1.1329442,0.90060174,1.9234762,4.013385,-1.8381699,1.643762
460,2024-05-15 22:17:05.418010,-1.1248904,0.51645565,1.7433618,4.439769,-2.5858688,1.8257998
461,2024-05-15 22:17:05.434656,-1.0692453,0.33411437,1.6843,4.723821,-2.7141507,1.8355737
462,2024-05-15 22:17:05.451212,-0.9823609,0.026846299,1.5139481,5.2833734,-2.5803711,1.7347809
463,2024-05-15 22:17:05.468003,-0.9535622,-0.24527754,1.4092171,5.8013873,-2.042199,1.4983761
464,2024-05-15 22:17:05.484676,-0.9618601,-0.39830142,1.3713882,6.0054164,-1.7538705,1.4122441
465,2024-05-15 22:17:05.501319,-1.0575305,-0.74538136,1.2798667,6.0267963,-1.1704942,1.213102
466,2024-05-15 22:17:05.518630,-1.3767574,-1.2530204,1.1693088,5.385388,-0.60544384,0.97914064
467,2024-05-15 22:17:05.534367,-1.4372836,-1.3567448,1.1261107,5.032919,-0.4734969,0.9040042
468,2024-05-15 22:17:05.551280,-1.2547288,-1.4748684,1.0978,3.3585372,-0.014737124,0.7757225
469,2024-05-15 22:17:05.567865,-1.2615625,-1.8444016,1.1539332,2.0567832,0.16791159,0.6724863
470,2024-05-15 22:17:05.584637,-1.187125,-2.0415998,1.1029252,1.7073684,-0.10209085,0.6016259
471,2024-05-15 22:17:05.601310,-0.9201263,-2.0862622,0.6392164,1.1459832,-0.849179,0.24243714
472,2024-05-15 22:17:05.617759,-0.50108004,-1.9400722,-0.11983211,-0.036651913,-1.4533248,-0.21876612
473,2024-05-15 22:17:05.634354,-0.3968371,-1.87979,-0.24088451,-0.34330627,-1.5064701,-0.3195589
474,2024-05-15 22:17:05.651289,-0.051252022,-1.5193174,-0.33948365,-2.39337,-1.1344532,-1.4105642
475,2024-05-15 22:17:05.667629,-0.3333822,-1.3147669,-0.10201593,-3.0060678,-0.22731823,-2.2614994
476,2024-05-15 22:17:05.684562,-0.42392743,-1.2020124,-0.107873306,-3.104417,0.016417004,-2.4252114
477,2024-05-15 22:17:05.701281,-0.88180935,-1.0028617,-0.08639627,-4.0060544,0.9302714,-2.8864145
478,2024-05-15 22:17:05.717955,-1.2586337,-0.7351309,0.26284966,-4.266894,1.1428525,-2.7727938
479,2024-05-15 22:17:05.734018,-1.247163,-0.4932397,0.49299565,-5.102557,2.1892648,-2.372677
480,2024-05-15 22:17:05.751197,-1.3284341,-0.35583547,0.68851596,-5.516724,2.3804655,-2.5241716
481,2024-05-15 22:17:05.767639,-1.7528801,0.10177187,1.6774664,-5.9944205,2.5533404,-2.5870907
482,2024-05-15 22:17:05.784463,-2.1765635,0.53744453,2.4106145,-5.9284472,2.5215755,-2.5333345
483,2024-05-15 22:17:05.801249,-2.14508,0.7490422,2.4367285,-4.8649306,0.96203643,-1.3519212
484,2024-05-15 22:17:05.818225,-1.6171844,1.0121359,2.1201863,-4.4941354,-0.09292787,-0.27068967
485,2024-05-15 22:17:05.834528,-1.6171844,1.0121359,2.1201863,-4.4501534,-0.24808764,-0.018402316
486,2024-05-15 22:17:05.851185,-1.6171844,1.0121359,2.1201863,-4.4501534,-0.24808764,-0.018402316
487,2024-05-15 22:17:05.867850,-1.6171844,1.0121359,2.1201863,-4.4501534,-0.24808764,-0.018402316
488,2024-05-15 22:17:05.884494,-1.6171844,1.0121359,2.1201863,-4.4501534,-0.24808764,-0.018402316
489,2024-05-15 22:17:05.901345,-1.6171844,1.0121359,2.1201863,-4.4501534,-0.24808764,-0.018402316
490,2024-05-15 22:17:05.917228,-1.6171844,1.0121359,2.1201863,-4.4501534,-0.24808764,-0.018402316
491,2024-05-15 22:17:05.933891,-1.6171844,1.0121359,2.1201863,-4.4501534,-0.24808764,-0.018402316
492,2024-05-15 22:17:05.950796,-1.6171844,1.0121359,2.1201863,-4.4501534,-0.24808764,-0.018402316
493,2024-05-15 22:17:05.967459,-0.48835856,1.6079102,2.5968606,1.65911,-0.9591348,1.3981942
494,2024-05-15 22:17:05.985847,-0.73000574,1.2574134,2.504851,3.2039883,-0.9664652,1.104368
495,2024-05-15 22:17:06.001918,-0.8771723,1.0399585,2.2305002,3.907094,-1.2914455,1.0805442
496,2024-05-15 22:17:06.017433,-1.0050583,0.7527031,1.829026,4.246735,-2.1943042,1.1996629
497,2024-05-15 22:17:06.033940,-1.0248269,0.61237013,1.7399452,4.4941354,-2.9731574,1.3047318
498,2024-05-15 22:17:06.050874,-0.9855337,0.36218095,1.7113904,4.5900416,-3.025692,1.3010666
499,2024-05-15 22:17:06.067777,-0.88156533,-0.0690682,1.5198054,5.507561,-2.9835422,1.0652727
500,2024-05-15 22:17:06.083972,-0.8210391,-0.3321619,1.3359998,6.146526,-2.348853,0.66210157
501,2024-05-15 22:17:06.101137,-0.81884265,-0.47005424,1.2120188,6.3774333,-1.9249127,0.4574617
502,2024-05-15 22:17:06.118319,-0.9479488,-0.8281168,0.9984687,6.5075474,-1.1155163,0.18623754
503,2024-05-15 22:17:06.133924,-1.2764499,-1.2915815,0.7656381,5.960212,-0.4930446,0.23021984
504,2024-05-15 22:17:06.151080,-1.3274579,-1.4787734,0.5584335,5.453194,-0.37270415,0.41409028
505,2024-05-15 22:17:06.169071,-1.1449031,-1.7638626,0.10396838,4.517959,-0.36048687,0.6303366
506,2024-05-15 22:17:06.184251,-0.93574595,-2.1067631,0.22111587,1.4110987,-0.6512587,0.87651527
507,2024-05-15 22:17:06.202087,-0.833486,-2.1970644,0.302631,0.7452556,-0.51320314,0.8001571
508,2024-05-15 22:17:06.217391,-0.62750167,-2.3337364,0.10348027,0.2125811,-0.39041924,0.72563154
509,2024-05-15 22:17:06.234253,-0.5528202,-2.3251944,0.05759751,-0.59681535,-0.42157337,0.46845728
510,2024-05-15 22:17:06.251050,-0.09567044,-2.0784526,-0.47835222,-2.4165828,-0.6017786,-0.42707115
511,2024-05-15 22:17:06.267712,-0.07858644,-1.8317106,-0.40635532,-4.012774,0.058566704,-1.5138004
512,2024-05-15 22:17:06.284254,-0.5913812,-1.6901575,0.11324256,-4.814229,1.3426055,-2.362903
513,2024-05-15 22:17:06.300881,-0.87131494,-1.5549498,0.38658667,-4.80079,2.001729,-2.5308912
514,2024-05-15 22:17:06.317644,-1.2161677,-1.1641835,0.6960818,-4.7781878,3.302872,-2.7428613
515,2024-05-15 22:17:06.334303,-1.2161677,-1.1641835,0.6960818,-4.9846606,3.706043,-2.835713
516,2024-05-15 22:17:06.351141,-1.7623985,-0.49543622,1.5551938,-5.5478783,3.8214967,-3.2865314
517,2024-05-15 22:17:06.367137,-2.3776667,0.26992732,2.6393266,-5.2418346,3.11778,-3.1851277
518,2024-05-15 22:17:06.384306,-2.476754,0.48518583,2.7698972,-4.886311,2.3981805,-2.867478
519,2024-05-15 22:17:06.400987,-2.388405,0.8107887,2.700585,-4.4892488,1.2601386,-2.2352324
520,2024-05-15 22:17:06.417686,-1.4138541,0.8874227,1.901267,-4.56072,-1.3561972,-0.8277988
521,2024-05-15 22:17:06.433867,-1.0548459,0.9298886,1.8348833,-4.252844,-0.97562814,-0.57490057
522,2024-05-15 22:17:06.450985,-0.66191375,1.323553,1.9664303,-3.7873645,-0.27435485,-0.62560236
523,2024-05-15 22:17:06.467665,-0.6497109,1.5612953,2.0345223,-3.1667254,0.34933856,-0.63965225
524,2024-05-15 22:17:06.484302,-0.6497109,1.5612953,2.0345223,-3.1667254,0.34933856,-0.63965225
525,2024-05-15 22:17:06.500979,-0.6497109,1.5612953,2.0345223,-3.1667254,0.34933856,-0.63965225
526,2024-05-15 22:17:06.517648,-0.6497109,1.5612953,2.0345223,-3.1667254,0.34933856,-0.63965225
527,2024-05-15 22:17:06.534897,-0.6497109,1.5612953,2.0345223,-3.1667254,0.34933856,-0.63965225
528,2024-05-15 22:17:06.550941,-0.6497109,1.5612953,2.0345223,-3.1667254,0.34933856,-0.63965225
529,2024-05-15 22:17:06.567622,-0.6497109,1.5612953,2.0345223,-3.1667254,0.34933856,-0.63965225
530,2024-05-15 22:17:06.584252,-0.6497109,1.5612953,2.0345223,-3.1667254,0.34933856,-0.63965225
531,2024-05-15 22:17:06.601209,-0.6497109,1.5612953,2.0345223,-3.1667254,0.34933856,-0.63965225
532,2024-05-15 22:17:06.616534,-0.6497109,1.5612953,2.0345223,-3.1667254,0.34933856,-0.63965225
533,2024-05-15 22:17:06.633186,-1.2549728,0.829337,1.555682,4.0054436,-2.436207,1.9052123
534,2024-05-15 22:17:06.650406,-0.99505186,0.34949,1.4397242,4.621196,-2.7495809,2.042046
535,2024-05-15 22:17:06.667241,-0.8427602,0.088348724,1.2918255,5.2290063,-2.290821,1.7805958
536,2024-05-15 22:17:06.683733,-0.8432483,-0.015375607,1.2456987,5.649282,-1.4857006,1.4733306
537,2024-05-15 22:17:06.700559,-0.995296,-0.26455808,1.1600347,5.7280836,-1.2993867,1.4470634
538,2024-05-15 22:17:06.717477,-1.1141518,-0.5806427,1.0841328,5.526498,-0.7196756,1.5344172
539,2024-05-15 22:17:06.734074,-1.1141518,-0.5806427,1.0841328,5.1960196,-0.53824866,1.539915
540,2024-05-15 22:17:06.750870,-1.1724815,-1.2456987,1.2022566,4.191757,0.1379792,1.1336895
541,2024-05-15 22:17:06.767536,-1.2752296,-1.4541235,1.1449031,3.1025846,0.041462477,0.5222134
542,2024-05-15 22:17:06.783630,-1.4331347,-1.5742302,1.0787636,2.6126707,-0.15096007,0.53076553
543,2024-05-15 22:17:06.800848,-1.534937,-1.8732004,0.778085,1.2675453,-0.76854485,1.1294135
544,2024-05-15 22:17:06.818551,-1.0619236,-2.251245,0.46736962,0.017104227,-1.3225996,1.5661821
545,2024-05-15 22:17:06.834453,-0.7468457,-2.2780914,0.37023485,-0.86742866,-1.2999976,0.87468266
546,2024-05-15 22:17:06.850817,-0.18255483,-2.1560626,0.15570852,-0.86742866,-1.2999976,0.87468266
547,2024-05-15 22:17:06.867474,-0.18255483,-2.1560626,0.15570852,-0.86742866,-1.2999976,0.87468266
548,2024-05-15 22:17:06.884170,-0.41611758,-1.3518636,-0.09005712,-2.7000244,-0.095371336,-2.2517257
549,2024-05-15 22:17:06.900830,-0.5828392,-1.2269063,-0.107385196,-2.802039,0.010919216,-2.3238077
550,2024-05-15 22:17:06.917496,-0.96771747,-0.91719764,0.061746486,-3.6786306,0.9876927,-2.3439662
551,2024-05-15 22:17:06.933696,-1.106342,-0.5467188,0.39586085,-4.062254,1.4550047,-2.282269
552,2024-05-15 22:17:06.950776,-1.1785829,-0.43661842,0.6113939,-4.7390924,1.847791,-2.2376757
553,2024-05-15 22:17:06.968030,-1.5134599,-0.009030119,1.4509509,-4.9296827,1.8966602,-2.09229
554,2024-05-15 22:17:06.983617,-1.6681923,0.19988288,1.7138311,-4.501466,1.7085137,-1.5278504
555,2024-05-15 22:17:07.000777,-1.7504396,0.5782021,1.8614857,-4.4067817,1.5295302,-1.3134366
556,2024-05-15 22:17:07.017431,-1.5063823,0.92476344,1.6674601,-4.4538183,0.46540296,-0.43806675
557,2024-05-15 22:17:07.033803,-0.982849,1.2361805,1.7758216,-4.8753157,0.015195273,0.12454015
558,2024-05-15 22:17:07.051016,-0.64434165,1.675514,2.260031,-4.2815547,0.59001946,0.19845484
559,2024-05-15 22:17:07.067632,-0.4724948,2.1802244,2.5099761,-3.566842,0.7427358,0.10132727
560,2024-05-15 22:17:07.083518,-0.4724948,2.1802244,2.5099761,-2.6865854,0.8276461,0.04879286
561,2024-05-15 22:17:07.100052,-0.43491003,2.3691247,2.454789,-1.4269812,0.81542873,0.021914791
562,2024-05-15 22:17:07.117543,-0.43491003,2.3691247,2.454789,-1.4269812,0.81542873,0.021914791
563,2024-05-15 22:17:07.133735,-0.43491003,2.3691247,2.454789,-1.4269812,0.81542873,0.021914791
564,2024-05-15 22:17:07.150366,-0.43491003,2.3691247,2.454789,-1.4269812,0.81542873,0.021914791
565,2024-05-15 22:17:07.167052,-0.43491003,2.3691247,2.454789,-1.4269812,0.81542873,0.021914791
566,2024-05-15 22:17:07.183716,-0.43491003,2.3691247,2.454789,-1.4269812,0.81542873,0.021914791
567,2024-05-15 22:17:07.200324,-0.43491003,2.3691247,2.454789,-1.4269812,0.81542873,0.021914791
568,2024-05-15 22:17:07.217383,-0.43491003,2.3691247,2.454789,-1.4269812,0.81542873,0.021914791
569,2024-05-15 22:17:07.234028,-0.43491003,2.3691247,2.454789,-1.4269812,0.81542873,0.021914791
570,2024-05-15 22:17:07.250599,-0.7151182,0.4702983,1.0106715,4.01705,-1.8357264,1.7922022
571,2024-05-15 22:17:07.261458,-0.62140024,0.32166746,1.0079869,4.0378194,-1.8882608,1.7659351
572,2024-05-15 22:17:07.283899,-0.45858356,0.110801995,1.0699775,4.3713517,-1.5309047,1.4647785
573,2024-05-15 22:17:07.300710,-0.49470404,-0.11226633,1.1451471,4.8991394,-0.82169014,0.9345475
574,2024-05-15 22:17:07.317373,-0.9718665,-0.46736962,1.1629633,5.208237,0.20212004,0.7812203
575,2024-05-15 22:17:07.334037,-1.4802377,-1.0323926,1.1541772,4.6028695,1.072603,0.9308823
576,2024-05-15 22:17:07.350626,-1.5144362,-1.2754737,1.0855972,4.083023,1.1165853,1.0310642
577,2024-05-15 22:17:07.367016,-1.3967701,-1.76069,0.9762595,1.9761491,0.48128545,0.90828025
578,2024-05-15 22:17:07.383688,-1.5366454,-2.288586,0.95331806,0.74281216,0.19784398,0.8789587
579,2024-05-15 22:17:07.400673,-1.4653502,-2.3078663,0.91036403,0.44715336,0.0322995,0.9290497
580,2024-05-15 22:17:07.417317,-0.594798,-2.2392864,0.43320164,-0.6719518,-0.8516225,0.33712125
581,2024-05-15 22:17:07.434310,-0.30848834,-2.00792,-0.04490653,-1.6811012,-1.1662182,-0.76487964
582,2024-05-15 22:17:07.450653,-0.29042813,-1.8961419,-0.10860548,-2.0305161,-1.0299952,-1.193707
583,2024-05-15 22:17:07.468224,-0.5537964,-1.5012572,-0.10958171,-2.8502972,0.06895141,-2.223626
584,2024-05-15 22:17:07.483412,-0.73147005,-1.3501551,-0.12056428,-3.236975,0.49716794,-2.499126
585,2024-05-15 22:17:07.500636,-1.1029252,-1.102437,-0.04637088,-4.174042,0.91194546,-2.6799421
586,2024-05-15 22:17:07.516776,-1.2849919,-0.8742436,0.42783237,-4.8270574,1.2754103,-2.6658924
587,2024-05-15 22:17:07.533986,-1.362358,-0.6914447,0.7261008,-5.0249777,1.7500526,-2.7208703
588,2024-05-15 22:17:07.550666,-1.6042492,-0.3746279,1.0733943,-4.9522843,1.9528599,-2.625575
589,2024-05-15 22:17:07.567841,-1.6401258,0.16278619,1.5283475,-4.682282,2.2833378,-2.4068854
590,2024-05-15 22:17:07.583565,-1.692842,0.37975308,1.6279229,-4.5564437,2.0041726,-2.1747565
591,2024-05-15 22:17:07.600622,-1.6447629,0.5044969,1.6598942,-4.595539,1.7329483,-1.9921079
592,2024-05-15 22:17:07.617247,-1.5837485,0.6426332,1.6879609,-4.714047,1.5356388,-1.8009071
593,2024-05-15 22:17:07.633933,-1.3301425,1.0260471,2.1057868,-4.9852715,1.3981942,-1.4087316
594,2024-05-15 22:17:07.651087,-1.0323926,1.4123898,2.6298084,-4.393954,1.8031979,-1.2914455
595,2024-05-15 22:17:07.667096,-0.9865099,1.8739326,2.9380527,-3.43123,1.9302578,-1.2676218
596,2024-05-15 22:17:07.683383,-1.2444785,2.459914,2.4779742,-1.201572,0.08972083,-0.45883617
597,2024-05-15 22:17:07.700006,-1.2444785,2.459914,2.4779742,-0.92485,-0.69218665,-0.011682798
598,2024-05-15 22:17:07.717184,-0.79614526,2.5058272,1.9398282,-0.70738196,-1.483868,0.501444
599,2024-05-15 22:17:07.734223,-0.675825,2.455765,2.0667377,0.6969972,-1.1185706,0.9748646
600,2024-05-15 22:17:07.750522,-0.6836348,2.3383737,2.170706,0.6969972,-1.1185706,0.9748646
601,2024-05-15 22:17:07.767182,-0.6836348,2.3383737,2.170706,0.6969972,-1.1185706,0.9748646
602,2024-05-15 22:17:07.783840,-0.6836348,2.3383737,2.170706,0.6969972,-1.1185706,0.9748646
603,2024-05-15 22:17:07.800507,-0.6836348,2.3383737,2.170706,0.6969972,-1.1185706,0.9748646
604,2024-05-15 22:17:07.817154,-0.6836348,2.3383737,2.170706,0.6969972,-1.1185706,0.9748646
605,2024-05-15 22:17:07.833829,-0.6836348,2.3383737,2.170706,0.6969972,-1.1185706,0.9748646
606,2024-05-15 22:17:07.850605,-0.6836348,2.3383737,2.170706,0.6969972,-1.1185706,0.9748646
607,2024-05-15 22:17:07.867163,-0.6836348,2.3383737,2.170706,0.6969972,-1.1185706,0.9748646
608,2024-05-15 22:17:07.883841,-0.6836348,2.3383737,2.170706,0.6969972,-1.1185706,0.9748646
609,2024-05-15 22:17:07.900655,-1.2701045,-0.49250755,1.6062018,5.8985147,-1.8687131,1.838628
610,2024-05-15 22:17:07.916926,-1.3269697,-0.75465554,1.5290797,5.879578,-1.7465401,1.7030159
611,2024-05-15 22:17:07.933337,-1.3565006,-1.3228208,1.4424088,5.53505,-0.9841803,1.2717451
612,2024-05-15 22:17:07.949945,-1.3565006,-1.3228208,1.4424088,5.53505,-0.9841803,1.2717451
613,2024-05-15 22:17:07.967121,-1.3203802,-1.522246,1.3464943,5.0261993,-0.3635412,0.88689995
614,2024-05-15 22:17:07.983478,-1.0353214,-2.297616,0.46029195,3.997502,-0.92675894,0.6700428
615,2024-05-15 22:17:08.000329,-1.0353214,-2.297616,0.46029195,3.408628,-1.4392749,0.48678324
616,2024-05-15 22:17:08.017150,-0.6912006,-2.3998759,0.13032657,1.6255124,-1.488144,-0.32200235
617,2024-05-15 22:17:08.033481,-0.4544346,-2.3383737,-0.08297946,0.20341812,-1.0617602,-0.92675894
618,2024-05-15 22:17:08.050508,-0.034168016,-2.0616126,-0.31434575,-1.2131784,-1.2383002,-1.7123317
619,2024-05-15 22:17:08.067005,-0.0690682,-1.8456221,-0.33753118,-2.1606305,-1.2248611,-2.408718
620,2024-05-15 22:17:08.083303,-0.302631,-1.6576978,-0.52377737,-3.3652565,-0.73189294,-2.9426143
621,2024-05-15 22:17:08.100158,-0.44857723,-1.5756946,-0.5440341,-4.097684,-0.41302127,-3.1325934
622,2024-05-15 22:17:08.116590,-0.72292805,-1.4936609,-0.3360668,-4.954728,0.09216429,-3.220558
623,2024-05-15 22:17:08.134698,-1.2122629,-1.2942661,0.34387666,-5.799555,1.0939833,-3.0727286
624,2024-05-15 22:17:08.150440,-1.4407004,-1.1602787,0.6077331,-5.998697,1.6523142,-2.992705
625,2024-05-15 22:17:08.167098,-1.705045,-0.8566714,1.0951153,-6.2418213,2.0273855,-2.9737685
626,2024-05-15 22:17:08.183896,-2.285413,-0.3121492,2.4208648,-6.387207,2.5160775,-3.0146964
627,2024-05-15 22:17:08.200183,-2.285413,-0.3121492,2.4208648,-4.958393,2.155667,-2.508289
628,2024-05-15 22:17:08.217197,-2.1646047,0.4886026,2.3300755,-4.724432,1.3847551,-2.086792
629,2024-05-15 22:17:08.234401,-1.8895522,0.7153623,2.269061,-4.6077566,0.116598904,-1.2822825
630,2024-05-15 22:17:08.250379,-1.8895522,0.7153623,2.269061,-4.6077566,0.116598904,-1.2822825
631,2024-05-15 22:17:08.267409,-1.2522882,1.0946273,2.3671722,-4.3053784,-0.3207806,-0.69524103
632,2024-05-15 22:17:08.283165,-1.336244,1.4912204,2.5956402,-3.186273,0.17340937,-0.3488804
633,2024-05-15 22:17:08.300238,-1.3059808,1.653549,2.3688805,-2.2363777,-0.18333593,0.013362677
634,2024-05-15 22:17:08.317009,-1.183464,1.8497709,2.1753433,-1.890628,-0.541303,0.14592044
635,2024-05-15 22:17:08.334090,-0.94453204,2.0193906,1.6877168,-1.3005321,-1.2627348,0.9583712
636,2024-05-15 22:17:08.351192,-0.81615794,2.0621006,1.7572733,-0.95539325,-0.7202865,1.4873805
637,2024-05-15 22:17:08.367016,-0.62603736,1.9620372,2.1802244,-0.95539325,-0.7202865,1.4873805
638,2024-05-15 22:17:08.383675,-0.5728329,1.8209721,2.5077798,0.24312437,-0.08498663,1.4501177
639,2024-05-15 22:17:08.400310,-0.5728329,1.8209721,2.5077798,0.24312437,-0.08498663,1.4501177
640,2024-05-15 22:17:08.416973,-0.5728329,1.8209721,2.5077798,0.24312437,-0.08498663,1.4501177
641,2024-05-15 22:17:08.433638,-0.5728329,1.8209721,2.5077798,0.24312437,-0.08498663,1.4501177
642,2024-05-15 22:17:08.450304,-0.5728329,1.8209721,2.5077798,0.24312437,-0.08498663,1.4501177
643,2024-05-15 22:17:08.466969,-0.5728329,1.8209721,2.5077798,0.24312437,-0.08498663,1.4501177
644,2024-05-15 22:17:08.483628,-0.5728329,1.8209721,2.5077798,0.24312437,-0.08498663,1.4501177
645,2024-05-15 22:17:08.500295,-0.5728329,1.8209721,2.5077798,0.24312437,-0.08498663,1.4501177
646,2024-05-15 22:17:08.517187,-1.0978,1.1807795,2.2998126,4.424497,-1.5803847,1.3792573
647,2024-05-15 22:17:08.533776,-1.2166559,-0.5699042,1.5637358,6.393316,-0.663476,1.6449838
648,2024-05-15 22:17:08.551809,-1.3555244,-0.9716224,1.4270333,6.2082233,-0.23525947,1.8740582
649,2024-05-15 22:17:08.567176,-1.4409444,-1.4416767,1.421908,5.3291883,0.40798163,1.7158442
650,2024-05-15 22:17:08.583583,-1.2842598,-1.8034,1.3640665,4.8802023,0.46234864,1.3340533
651,2024-05-15 22:17:08.600165,-1.1007288,-2.0520942,1.2823073,4.369519,0.72563154,0.72990763
652,2024-05-15 22:17:08.616387,-1.0738825,-2.0918758,1.2493596,4.293161,0.8264243,0.6474408
653,2024-05-15 22:17:08.633604,-0.6973021,-2.35741,0.46492904,3.0983086,0.17096591,0.4171446
654,2024-05-15 22:17:08.650252,-0.18621568,-2.5016785,0.07468152,1.5149459,-0.9432523,-0.4282929
655,2024-05-15 22:17:08.666912,0.09859913,-2.4721167,-0.11006982,0.79290307,-1.3830752,-1.1100185
656,2024-05-15 22:17:08.683574,0.3687705,-2.1631403,-0.4127008,-0.66156703,-1.6775123,-2.4759133
657,2024-05-15 22:17:08.700234,0.022453265,-1.8978502,-0.50156814,-1.9431623,-1.5174656,-3.332957
658,2024-05-15 22:17:08.716783,-0.16547081,-1.7233493,-0.5635587,-3.4153476,-0.8986591,-3.5773032
659,2024-05-15 22:17:08.733554,-0.59284556,-1.4694992,-0.33460248,-4.1233406,-0.44967318,-3.551647
660,2024-05-15 22:17:08.750221,-1.046792,-1.2591219,0.20281157,-4.831333,0.26870435,-3.265151
661,2024-05-15 22:17:08.766849,-1.2791345,-1.076323,0.34241232,-5.1288247,0.45501825,-3.0818915
662,2024-05-15 22:17:08.784665,-1.7875364,-0.5889406,1.0192136,-6.061616,0.7250207,-2.603584
663,2024-05-15 22:17:08.800294,-1.9861989,-0.24161668,1.590094,-6.114761,0.7934376,-2.0660226
664,2024-05-15 22:17:08.816345,-2.0642972,-0.054424766,1.8744206,-6.0084705,0.8814022,-1.8082374
665,2024-05-15 22:17:08.833580,-2.1843734,0.39268813,2.3432548,-5.421429,0.8453611,-1.1320096
666,2024-05-15 22:17:08.849984,-1.9508107,0.60211974,2.216101,-5.1618114,-0.22731823,-0.37636936
667,2024-05-15 22:17:08.866851,-1.366507,0.8381231,2.3893814,-4.860044,-0.83512914,-0.03611741
668,2024-05-15 22:17:08.883515,-1.1483198,1.153445,2.5451205,-3.630372,-0.43317983,-0.19738583
669,2024-05-15 22:17:08.900163,-1.1912739,1.3684595,2.3264146,-2.6090055,-0.24381159,-0.26763535
670,2024-05-15 22:17:08.916821,-1.2376448,1.6379292,2.0049913,-2.0592268,-0.3580434,-0.14851661
671,2024-05-15 22:17:08.933516,-1.3015878,1.8326868,1.4577844,-1.8209893,-1.0721449,0.46967903
672,2024-05-15 22:17:08.950165,-1.1368492,1.982538,1.4533914,-1.9230038,-1.461266,1.4470634
673,2024-05-15 22:17:08.966803,-1.0001771,1.9832702,1.5896058,-1.8484782,-1.4423292,1.6987399
674,2024-05-15 22:17:08.983451,-0.5555048,1.8978502,2.006944,-0.70921457,-0.7935903,1.9314796
675,2024-05-15 22:17:08.999897,-0.49055508,1.7304269,2.2519772,0.90224797,-0.20349449,1.3364968
676,2024-05-15 22:17:09.016650,-0.7673465,1.5088229,2.135318,2.4459045,-0.05505423,1.1013137
677,2024-05-15 22:17:09.033437,-0.8905954,1.374561,1.9432448,2.4459045,-0.05505423,1.1013137
678,2024-05-15 22:17:09.050117,-0.8905954,1.374561,1.9432448,2.4459045,-0.05505423,1.1013137
679,2024-05-15 22:17:09.066753,-0.8905954,1.374561,1.9432448,2.4459045,-0.05505423,1.1013137
680,2024-05-15 22:17:09.083422,-0.8905954,1.374561,1.9432448,2.4459045,-0.05505423,1.1013137
681,2024-05-15 22:17:09.100079,-0.8905954,1.374561,1.9432448,2.4459045,-0.05505423,1.1013137
682,2024-05-15 22:17:09.116744,-0.8905954,1.374561,1.9432448,2.4459045,-0.05505423,1.1013137
683,2024-05-15 22:17:09.133404,-0.8905954,1.374561,1.9432448,2.4459045,-0.05505423,1.1013137
684,2024-05-15 22:17:09.150067,-0.8905954,1.374561,1.9432448,2.4459045,-0.05505423,1.1013137
685,2024-05-15 22:17:09.166738,-0.8905954,1.374561,1.9432448,2.4459045,-0.05505423,1.1013137
686,2024-05-15 22:17:09.182828,-0.8105446,0.12666571,1.4548558,5.304143,-1.1185706,1.2974014
687,2024-05-15 22:17:09.200666,-0.86570156,-1.6545252,1.4199556,4.967556,1.0463358,-0.33055446
688,2024-05-15 22:17:09.216730,-1.0731503,-1.9534953,1.1378254,4.7696357,1.6510924,-0.78564906
689,2024-05-15 22:17:09.233365,-1.2461867,-2.055023,0.9091437,4.4238863,1.6743053,-0.69768447
690,2024-05-15 22:17:09.250052,-1.2715688,-2.2956636,0.22599702,2.7421741,0.49167016,0.08422305
691,2024-05-15 22:17:09.267312,-0.6228646,-2.4462469,-0.23112221,0.39950588,-0.9902889,0.67676234
692,2024-05-15 22:17:09.283348,-0.36852646,-2.4267223,-0.32557237,-0.5479461,-1.5767195,0.64499736
693,2024-05-15 22:17:09.300004,0.26748675,-2.1965764,-0.35119838,-2.3506095,-2.1429915,-0.3103959
694,2024-05-15 22:17:09.316490,0.15180361,-1.932018,-0.15546446,-3.109915,-1.3171018,-1.5571718
695,2024-05-15 22:17:09.333339,-0.127886,-1.7724047,-0.09152147,-3.4684927,-0.4563927,-2.186974
696,2024-05-15 22:17:09.350011,-0.6428773,-1.5307881,0.06345488,-4.0506473,0.44280094,-2.6316838
697,2024-05-15 22:17:09.366396,-1.1585703,-1.1090267,0.456143,-5.0029864,1.0219012,-2.739196
698,2024-05-15 22:17:09.383917,-1.2993913,-0.9806526,0.6655746,-5.312084,1.1526264,-2.7599654
699,2024-05-15 22:17:09.399965,-1.6642874,-0.50718147,1.4321585,-5.4739633,1.3951398,-2.8369346
700,2024-05-15 22:17:09.416663,-1.9886395,0.026846299,1.8453778,-5.045136,1.3621532,-2.7062094
701,2024-05-15 22:17:09.434465,-2.2295241,0.3392396,2.003039,-4.8795915,1.2283736,-2.4465916
702,2024-05-15 22:17:09.449691,-2.267597,0.6311625,1.8688073,-4.5912633,0.19173533,-1.3372604
703,2024-05-15 22:17:09.466684,-1.76069,0.74708974,1.3709,-5.2174,-1.2218069,-0.19372064
704,2024-05-15 22:17:09.483338,-1.4890238,0.79516906,1.38774,-5.585752,-1.4850898,0.16791159
705,2024-05-15 22:17:09.499943,-0.8964527,1.085353,1.9666743,-5.494122,-0.6097199,0.6004042
706,2024-05-15 22:17:09.516621,-0.6228646,1.5847247,2.6556783,-3.676187,1.1562916,0.18257235
707,2024-05-15 22:17:09.533285,-0.7146301,1.8012035,2.684477,-2.4697282,1.5228107,-0.04772385
708,2024-05-15 22:17:09.549945,-0.95282996,2.0296412,2.123359,-0.8979719,0.92477363,-0.031841353
709,2024-05-15 22:17:09.567189,-0.94087124,2.12702,1.7018722,-0.7855727,-0.44967318,0.68042755
710,2024-05-15 22:17:09.582757,-0.6665509,2.0323257,1.9427568,-0.3585779,-0.9927324,1.2680799
711,2024-05-15 22:17:09.599917,-0.5459866,1.8985823,2.0542908,0.16065755,-0.92431545,1.3236686
712,2024-05-15 22:17:09.616059,-0.48640612,1.7360402,2.1702182,1.5723672,-0.43989933,0.99441224
713,2024-05-15 22:17:09.633231,-0.5830833,1.4009191,2.199749,2.3671029,-0.2138792,0.791605
714,2024-05-15 22:17:09.650505,-0.8859584,1.0926747,1.9303099,3.5705073,-0.18333593,0.69020134
715,2024-05-15 22:17:09.666478,-1.0960916,0.8422721,1.5022334,3.998724,-0.9041569,1.1257483
716,2024-05-15 22:17:09.683228,-1.0960916,0.8422721,1.5022334,3.998724,-0.9041569,1.1257483
717,2024-05-15 22:17:09.699883,-1.0960916,0.8422721,1.5022334,3.998724,-0.9041569,1.1257483
718,2024-05-15 22:17:09.716536,-1.0960916,0.8422721,1.5022334,3.998724,-0.9041569,1.1257483
719,2024-05-15 22:17:09.733200,-1.0960916,0.8422721,1.5022334,3.998724,-0.9041569,1.1257483
720,2024-05-15 22:17:09.749850,-1.0960916,0.8422721,1.5022334,3.998724,-0.9041569,1.1257483
721,2024-05-15 22:17:09.766516,-1.0960916,0.8422721,1.5022334,3.998724,-0.9041569,1.1257483
722,2024-05-15 22:17:09.781042,-1.0960916,0.8422721,1.5022334,3.998724,-0.9041569,1.1257483
723,2024-05-15 22:17:09.799610,-1.0960916,0.8422721,1.5022334,3.998724,-0.9041569,1.1257483
724,2024-05-15 22:17:09.816498,-1.0960916,0.8422721,1.5022334,3.998724,-0.9041569,1.1257483
725,2024-05-15 22:17:09.833446,-1.4153185,-1.4424088,1.4365515,3.7458258,1.5838972,0.101938136
726,2024-05-15 22:17:09.849843,-1.521758,-1.5305439,1.3098857,3.4843755,1.439733,0.18807013
727,2024-05-15 22:17:09.866258,-1.3508874,-1.7753334,0.8061516,2.3890939,0.22411118,0.7928267
728,2024-05-15 22:17:09.883151,-1.1893214,-1.8548961,0.6221324,1.9285016,-0.26946792,0.9009499
729,2024-05-15 22:17:09.899827,-0.65337175,-1.8956536,0.17718557,0.39828414,-1.2890021,0.8105418
730,2024-05-15 22:17:09.916791,0.03465613,-1.670877,-0.108117364,-1.1710287,-1.1992048,-0.17539468
731,2024-05-15 22:17:09.933690,0.13032657,-1.4167827,-0.15229172,-1.6200147,-0.87178105,-0.71601045
732,2024-05-15 22:17:09.949995,-0.002928687,-1.3474706,-0.18987654,-2.3066273,-0.29817858,-1.7434858
733,2024-05-15 22:17:09.965622,-0.18963248,-1.2759619,-0.21550256,-2.6621506,-0.20471622,-2.1179461
734,2024-05-15 22:17:09.983412,-0.3414361,-1.1798033,-0.20110317,-2.886949,-0.1662317,-2.276771
735,2024-05-15 22:17:09.999524,-0.6809502,-0.9540503,-0.14570218,-3.7873645,-0.031841353,-2.3616815
736,2024-05-15 22:17:10.017507,-0.78223395,-0.76270944,-0.0024405725,-4.6712866,0.19784398,-2.1991913
737,2024-05-15 22:17:10.031316,-0.85179025,-0.6480025,0.21574661,-5.0481906,0.61139977,-2.2059107
738,2024-05-15 22:17:10.050112,-1.1776067,-0.38829508,0.9047507,-5.3774467,1.7757089,-2.3848944
739,2024-05-15 22:17:10.060251,-1.4289857,-0.22135992,1.2530204,-5.2216763,2.1813235,-2.3787856
740,2024-05-15 22:17:10.082746,-1.7057772,0.019280521,1.5749625,-4.797125,1.4898239,-1.7392097
741,2024-05-15 22:17:10.100499,-1.8441576,0.56941605,1.7362843,-5.126381,0.9009499,-1.4404966
742,2024-05-15 22:17:10.117653,-1.6742936,0.8842499,2.276139,-5.670662,-0.16317739,-0.6799694
743,2024-05-15 22:17:10.132722,-1.6513524,0.90645915,2.319581,-5.621182,-0.29206994,-0.54680073
744,2024-05-15 22:17:10.150714,-1.1805354,1.3977463,2.7996721,-4.0982947,-0.51503575,-0.10025826
745,2024-05-15 22:17:10.166037,-1.0150646,1.862706,2.5002139,-2.0983222,-0.5602398,0.017027868
746,2024-05-15 22:17:10.183644,-1.0502088,1.9617932,1.9278692,-1.1374311,-1.0477103,0.6340018
747,2024-05-15 22:17:10.199612,-0.95258594,1.990592,1.7492193,-1.0274754,-1.2010374,0.8814022
748,2024-05-15 22:17:10.216308,-0.73000574,1.9708232,1.7777741,-0.72143185,-1.1601094,1.399416
749,2024-05-15 22:17:10.233955,-0.5384208,1.7804586,2.144592,-0.4343252,-0.9695195,1.5264759
750,2024-05-15 22:17:10.249502,-0.4803047,1.6267025,2.3876731,0.84665924,-0.2755766,1.3132839
751,2024-05-15 22:17:10.266158,-0.6526396,1.238865,2.520959,2.8930578,0.061621033,0.7543422
752,2024-05-15 22:17:10.283723,-0.9633245,0.9725986,2.1453242,4.09463,-0.5248096,0.6688211
753,2024-05-15 22:17:10.299425,-1.0836447,0.8022467,1.7631307,4.4306054,-1.2248611,0.8997281
754,2024-05-15 22:17:10.316337,-1.0836447,0.8022467,1.7631307,4.4306054,-1.2248611,0.8997281
755,2024-05-15 22:17:10.333003,-1.0836447,0.8022467,1.7631307,4.4306054,-1.2248611,0.8997281
756,2024-05-15 22:17:10.349654,-1.0836447,0.8022467,1.7631307,4.4306054,-1.2248611,0.8997281
757,2024-05-15 22:17:10.366303,-1.0836447,0.8022467,1.7631307,4.4306054,-1.2248611,0.8997281
758,2024-05-15 22:17:10.382964,-1.0836447,0.8022467,1.7631307,4.4306054,-1.2248611,0.8997281
759,2024-05-15 22:17:10.399652,-1.0836447,0.8022467,1.7631307,4.4306054,-1.2248611,0.8997281
760,2024-05-15 22:17:10.420367,-1.0836447,0.8022467,1.7631307,4.4306054,-1.2248611,0.8997281
761,2024-05-15 22:17:10.436249,-1.0836447,0.8022467,1.7631307,4.4306054,-1.2248611,0.8997281
762,2024-05-15 22:17:10.451671,-1.0836447,0.8022467,1.7631307,4.4306054,-1.2248611,0.8997281
763,2024-05-15 22:17:10.466437,-0.7170707,-2.1677775,0.47225076,2.4544566,-0.40752348,0.8471937
764,2024-05-15 22:17:10.482385,-0.7536793,-2.4948142,0.46273252,1.3304645,-0.3384957,0.437914
765,2024-05-15 22:17:10.499445,-0.7478219,-2.5358462,0.30555966,0.8008443,-0.4264603,0.38599047
766,2024-05-15 22:17:10.516004,-0.45907167,-2.4157395,-0.23746772,0.116675265,-0.7227299,0.34139732
767,2024-05-15 22:17:10.532915,-0.25040275,-2.3010328,-0.40952805,-1.4831808,-1.4007903,-0.048945576
768,2024-05-15 22:17:10.549575,0.05296042,-1.9317741,-0.38146147,-3.5564575,-1.2951107,-1.3238213
769,2024-05-15 22:17:10.566136,-0.10348027,-1.8321989,-0.16107778,-4.0921865,-0.7050148,-1.9297997
770,2024-05-15 22:17:10.582412,-0.6426332,-1.6511083,0.2613853,-4.4446554,0.65904725,-2.7379744
771,2024-05-15 22:17:10.599546,-1.2615625,-1.2466749,0.49031103,-4.4275513,1.6877443,-3.021416
772,2024-05-15 22:17:10.616667,-1.5725219,-0.9191501,0.61017364,-5.2216763,2.087861,-2.992705
773,2024-05-15 22:17:10.632379,-1.8348833,-0.4932397,1.5168768,-6.1269784,2.3126595,-3.0757828
774,2024-05-15 22:17:10.649048,-2.0167062,-0.2796896,1.9683827,-5.9498277,2.0212767,-3.0049224
775,2024-05-15 22:17:10.665754,-2.0743036,0.24478942,2.3427665,-4.8130074,1.1153636,-2.4172702
776,2024-05-15 22:17:10.682528,-2.0743036,0.24478942,2.3427665,-4.8130074,1.1153636,-2.4172702
777,2024-05-15 22:17:10.699194,-1.7772858,0.6731404,1.9454412,-3.9736784,0.53259814,-1.6323082
778,2024-05-15 22:17:10.715939,-1.3757812,0.786627,1.5737422,-3.685961,0.1306488,-0.5492442
779,2024-05-15 22:17:10.733871,-0.97381896,1.0238507,1.4590046,-4.034154,0.15630515,0.13920091
780,2024-05-15 22:17:10.749471,-0.8217713,1.1985956,1.7494634,-4.130671,0.37132972,0.32490396
781,2024-05-15 22:17:10.766154,-0.6650865,1.4565641,2.3637555,-3.1306844,0.8807913,0.38476875
782,2024-05-15 22:17:10.782836,-0.6563005,1.5407945,2.4489315,-2.506991,1.0017426,0.27786732
783,2024-05-15 22:17:10.799212,-0.88107723,1.7172477,2.2412388,-1.6872098,0.96142554,0.18012889
784,2024-05-15 22:17:10.816000,-0.8901073,1.8341513,1.7316471,-0.47158796,-0.51625746,1.0701596
785,2024-05-15 22:17:10.832282,-0.7871151,1.8263415,1.7099261,-0.29565877,-1.0507646,1.6174948
786,2024-05-15 22:17:10.849484,-0.61237013,1.5952193,2.0662498,0.13439035,-0.9725738,1.6816356
787,2024-05-15 22:17:10.865672,-0.60114354,1.4326465,2.293467,0.9236283,-0.6512587,1.4721088
788,2024-05-15 22:17:10.882838,-0.7375715,1.2286147,2.4035368,1.9370537,-0.3488804,1.177061
789,2024-05-15 22:17:10.899486,-1.0587507,0.9787001,2.1902306,2.933375,-0.44967318,1.036562
790,2024-05-15 22:17:10.915944,-1.2283707,0.77100736,1.6171844,3.721391,-1.1081859,1.2253193
791,2024-05-15 22:17:10.932351,-1.2283707,0.77100736,1.6171844,3.8026361,-2.037312,1.6895769
792,2024-05-15 22:17:10.949480,-1.0040821,0.42514774,1.387984,3.889379,-2.376342,1.8484019
793,2024-05-15 22:17:10.966115,-1.0040821,0.42514774,1.387984,3.889379,-2.376342,1.8484019
794,2024-05-15 22:17:10.982771,-1.0040821,0.42514774,1.387984,3.889379,-2.376342,1.8484019
795,2024-05-15 22:17:10.999424,-1.0040821,0.42514774,1.387984,3.889379,-2.376342,1.8484019
796,2024-05-15 22:17:11.016102,-1.0040821,0.42514774,1.387984,3.889379,-2.376342,1.8484019
797,2024-05-15 22:17:11.032775,-1.0040821,0.42514774,1.387984,3.889379,-2.376342,1.8484019
798,2024-05-15 22:17:11.049404,-1.0040821,0.42514774,1.387984,3.889379,-2.376342,1.8484019
799,2024-05-15 22:17:11.066083,-1.0040821,0.42514774,1.387984,3.889379,-2.376342,1.8484019
800,2024-05-15 22:17:11.083012,-1.3882282,-1.2547288,1.443141,4.8618765,0.20273091,0.32734743
801,2024-05-15 22:17:11.098892,-1.6296312,-1.594487,1.3486909,4.692667,0.524046,0.31940615
802,2024-05-15 22:17:11.115925,-1.5891178,-2.0938282,0.5413495,3.196658,-0.04222606,1.1202505
803,2024-05-15 22:17:11.133290,-1.4504627,-2.174123,0.33118567,0.95722586,-0.7380016,1.8215238
804,2024-05-15 22:17:11.149396,-1.0384941,-2.3859646,0.24527754,0.21502456,-1.067258,1.9986748
805,2024-05-15 22:17:11.166067,-0.036608588,-2.3373973,0.12739788,-1.3206906,-2.168648,1.3371077
806,2024-05-15 22:17:11.182734,0.18694785,-2.1953561,0.07199689,-1.3206906,-2.168648,1.3371077
807,2024-05-15 22:17:11.199760,0.026846299,-1.8856474,-0.01854835,-1.9633209,-2.069077,-0.48876855
808,2024-05-15 22:17:11.216005,-0.65459204,-1.5473839,-0.22306833,-2.6841419,-1.7935767,-0.7709883
809,2024-05-15 22:17:11.233242,-0.69364125,-1.3164753,-0.47591165,-4.6205845,-1.0739775,-0.7111235
810,2024-05-15 22:17:11.249345,-0.52597386,-1.0211661,-0.3145898,-5.4269266,-0.36293033,-0.8656724
811,2024-05-15 22:17:11.266052,-0.66118157,-0.9262278,0.49985978,-6.169128,1.2845732,-1.3348169
812,2024-05-15 22:17:11.283185,-1.2564372,-0.41172457,1.3865197,-5.027421,2.7598128,-2.0611358
813,2024-05-15 22:17:11.299207,-1.4153185,-0.09200958,1.3103738,-4.819116,2.6626852,-2.1197789
814,2024-05-15 22:17:11.316012,-1.6001004,0.28261828,1.4704754,-5.3914967,2.2527947,-1.8430568
815,2024-05-15 22:17:11.332672,-1.7072414,0.41026023,1.7782621,-5.5955257,2.0353267,-1.5272394
816,2024-05-15 22:17:11.349325,-1.5429909,0.62652546,2.140199,-5.3481255,1.4983761,-0.8833875
817,2024-05-15 22:17:11.365544,-1.0702215,0.88888705,2.2915146,-4.538118,1.4171311,-0.58528525
818,2024-05-15 22:17:11.383305,-0.93257326,0.9699141,2.2414827,-3.9461894,1.4653894,-0.53519434
819,2024-05-15 22:17:11.399071,-0.78979975,1.1737018,2.1035905,-3.2015448,1.434846,-0.3580434
820,2024-05-15 22:17:11.415982,-0.58527976,1.6796631,1.8300022,-2.5864034,1.108644,0.0603993
821,2024-05-15 22:17:11.432619,-0.58527976,1.6796631,1.8300022,-2.5864034,1.108644,0.0603993
822,2024-05-15 22:17:11.449302,-0.45370242,1.8556283,2.012557,-1.981036,0.6315583,0.6847036
823,2024-05-15 22:17:11.465899,-0.3031191,1.8954096,2.3034732,-0.96944314,0.4275293,0.769003
824,2024-05-15 22:17:11.482612,-0.31507793,1.888576,2.3564336,-0.35430184,0.3627776,0.7421249
825,2024-05-15 22:17:11.499453,-0.4842096,1.8321989,2.3632672,0.68539083,0.090331696,0.81726134
826,2024-05-15 22:17:11.515339,-0.82323563,1.5998563,2.4518602,1.4569136,-0.36537376,1.1098658
827,2024-05-15 22:17:11.531999,-0.94404393,1.3940855,2.4154956,1.9456058,-0.90843296,1.3450489
828,2024-05-15 22:17:11.548908,-0.94868106,1.2571694,2.3522847,2.2290473,-1.307328,1.4385113
829,2024-05-15 22:17:11.565570,-0.8703387,0.89864933,2.0743036,2.9358184,-2.3286946,1.4110223
830,2024-05-15 22:17:11.582225,-0.80786,0.57917833,1.7628864,3.6010506,-2.7972283,1.249754
831,2024-05-15 22:17:11.598886,-0.80786,0.57917833,1.7628864,3.6010506,-2.7972283,1.249754
832,2024-05-15 22:17:11.615876,-0.80786,0.57917833,1.7628864,3.6010506,-2.7972283,1.249754
833,2024-05-15 22:17:11.632563,-0.80786,0.57917833,1.7628864,3.6010506,-2.7972283,1.249754
834,2024-05-15 22:17:11.649241,-0.80786,0.57917833,1.7628864,3.6010506,-2.7972283,1.249754
835,2024-05-15 22:17:11.665907,-0.80786,0.57917833,1.7628864,3.6010506,-2.7972283,1.249754
836,2024-05-15 22:17:11.682537,-0.80786,0.57917833,1.7628864,3.6010506,-2.7972283,1.249754
837,2024-05-15 22:17:11.699207,-0.80786,0.57917833,1.7628864,3.6010506,-2.7972283,1.249754
838,2024-05-15 22:17:11.715893,-0.80786,0.57917833,1.7628864,3.6010506,-2.7972283,1.249754
839,2024-05-15 22:17:11.733552,-0.80786,0.57917833,1.7628864,3.6010506,-2.7972283,1.249754
840,2024-05-15 22:17:11.748876,-1.3467383,-2.576604,-0.4195344,0.032986723,-0.51870096,1.7469982
841,2024-05-15 22:17:11.766977,-0.82030696,-2.688626,-0.12178457,-2.0140228,-1.235246,2.2442427
842,2024-05-15 22:17:11.783521,0.036852647,-2.4748015,0.118855886,-2.7800477,-1.765477,1.0842094
843,2024-05-15 22:17:11.798710,0.17132819,-2.3093307,0.04905551,-2.8252518,-1.343369,0.07933612
844,2024-05-15 22:17:11.815828,0.11861181,-2.0484335,-0.11153416,-2.9712486,-0.60544384,-0.9542479
845,2024-05-15 22:17:11.832497,-0.52450955,-1.6747819,-0.045394648,-3.8069122,2.2931118,-2.6701684
846,2024-05-15 22:17:11.848852,-1.0643642,-1.3347796,0.23844394,-4.1685443,3.130608,-2.7868435
847,2024-05-15 22:17:11.865516,-1.5381098,-0.8703387,1.1473436,-4.9260173,4.296139,-2.889469
848,2024-05-15 22:17:11.882008,-1.7767979,-0.5974827,1.8387884,-4.7934594,4.040797,-2.8796952
849,2024-05-15 22:17:11.899123,-1.9688708,-0.30677995,2.2837045,-4.7934594,4.040797,-2.8796952
850,2024-05-15 22:17:11.915814,-2.1311688,0.17767367,2.5870984,-4.2723913,1.4678328,-2.4398723
851,2024-05-15 22:17:11.932592,-2.0430644,0.62921005,2.4796827,-3.8704422,0.45135304,-1.5620588
852,2024-05-15 22:17:11.948930,-1.5058943,0.66313404,1.8683193,-3.6957347,-0.4796056,-0.18150334
853,2024-05-15 22:17:11.965269,-0.8639931,0.7029154,1.5676408,-3.9419134,-0.58711785,0.5991824
854,2024-05-15 22:17:11.982415,-0.6782656,0.7173148,1.5893619,-3.9144244,-0.30550897,0.83314383
855,2024-05-15 22:17:11.999136,-0.55867755,0.75416744,1.6079102,-3.8099666,-0.08132143,0.98280585
856,2024-05-15 22:17:12.016311,-0.16595893,1.1690648,1.7687438,-3.368311,0.39393172,1.3389403
857,2024-05-15 22:17:12.033630,0.12910628,1.4367956,2.071375,-2.3512204,0.41531202,1.2363149
858,2024-05-15 22:17:12.049125,0.23917611,1.5442113,2.1380026,-1.7427986,0.37866008,1.0041862
859,2024-05-15 22:17:12.065767,0.28408262,1.6728295,2.1626523,-1.0983357,0.34078646,0.7207446
860,2024-05-15 22:17:12.082435,0.091033354,1.7289624,2.1340976,0.13133603,0.3450625,0.26259568
861,2024-05-15 22:17:12.099100,-0.22990192,1.6720972,2.1087155,0.9138544,0.23571762,0.33773214
862,2024-05-15 22:17:12.115749,-0.3660859,1.5771589,2.092608,1.4428637,0.0017562376,0.58513254
863,2024-05-15 22:17:12.131915,-0.53500396,1.3960379,2.0391593,1.9083431,-0.53641605,0.9076694
864,2024-05-15 22:17:12.148702,-0.65215147,1.1229379,2.1448362,2.3854287,-1.1100185,1.0206795
865,2024-05-15 22:17:12.165395,-0.68656355,1.0226303,2.1624084,2.7641652,-1.3775775,0.9883036
866,2024-05-15 22:17:12.182195,-0.89669687,0.6409248,1.8190197,4.0048327,-1.7941875,1.0029644
867,2024-05-15 22:17:12.198529,-0.95209783,0.52597386,1.7035805,4.177707,-1.9139172,1.1281917
868,2024-05-15 22:17:12.215673,-0.9623482,0.45077375,1.6613587,4.288274,-2.033036,1.2442561
869,2024-05-15 22:17:12.232774,-0.95551467,0.31581008,1.6066898,4.5759916,-2.372677,1.4366786
870,2024-05-15 22:17:12.249031,-0.95551467,0.31581008,1.6066898,4.5759916,-2.372677,1.4366786
871,2024-05-15 22:17:12.265676,-0.95551467,0.31581008,1.6066898,4.5759916,-2.372677,1.4366786
872,2024-05-15 22:17:12.282336,-0.95551467,0.31581008,1.6066898,4.5759916,-2.372677,1.4366786
873,2024-05-15 22:17:12.299000,-0.95551467,0.31581008,1.6066898,4.5759916,-2.372677,1.4366786
874,2024-05-15 22:17:12.315651,-0.95551467,0.31581008,1.6066898,4.5759916,-2.372677,1.4366786
875,2024-05-15 22:17:12.332333,-0.95551467,0.31581008,1.6066898,4.5759916,-2.372677,1.4366786
876,2024-05-15 22:17:12.348975,-0.95551467,0.31581008,1.6066898,4.5759916,-2.372677,1.4366786
877,2024-05-15 22:17:12.365168,-1.4926846,-2.1299486,0.45980385,2.384207,-0.9292024,0.55336756
878,2024-05-15 22:17:12.382333,-1.148808,-2.2773592,0.12349297,0.98471475,-1.5168548,1.0298425
879,2024-05-15 22:17:12.398989,-0.4803047,-2.135318,-0.42368335,-0.3915646,-1.5443437,0.96203643
880,2024-05-15 22:17:12.415647,-0.28432667,-2.0225635,-0.58479166,-1.2290609,-1.4062881,0.71035993
881,2024-05-15 22:17:12.432701,-0.08859278,-1.6555014,-0.42587993,-3.25469,0.13370313,-0.5761223
882,2024-05-15 22:17:12.448966,-0.22990192,-1.5141922,-0.26211748,-3.7110064,1.2234868,-1.1918745
883,2024-05-15 22:17:12.465628,-0.37096703,-1.4253248,-0.15302388,-3.9138136,1.7317266,-1.4814246
884,2024-05-15 22:17:12.482290,-0.6836348,-1.2566813,0.09640261,-4.3676863,2.6309202,-2.0024927
885,2024-05-15 22:17:12.498910,-0.98626584,-0.9965162,0.37609223,-4.8557677,3.0078242,-2.1741457
886,2024-05-15 22:17:12.515580,-1.1524688,-0.8261643,0.6848551,-5.095838,3.1880293,-2.191861
887,2024-05-15 22:17:12.532309,-1.4053122,-0.38561043,1.3511314,-5.2882605,3.4897969,-2.1662045
888,2024-05-15 22:17:12.548691,-1.5612953,-0.24991462,1.5930227,-5.3859987,3.1617622,-2.0195968
889,2024-05-15 22:17:12.565602,-1.6608706,-0.08102701,1.8961419,-5.3914967,2.9650636,-1.9310215
890,2024-05-15 22:17:12.582850,-1.8631941,0.36950266,2.4028046,-4.7952924,2.1489475,-1.3616949
891,2024-05-15 22:17:12.598729,-1.6054696,0.68778384,2.2226903,-4.705495,0.81665045,-0.50465107
892,2024-05-15 22:17:12.615582,-1.2398413,0.901578,2.2671087,-4.8942523,0.29680416,-0.20044015
893,2024-05-15 22:17:12.632451,-0.94257957,1.3516195,2.819929,-4.1325035,0.3554472,0.09216429
894,2024-05-15 22:17:12.649065,-0.85593927,1.8019358,2.6271238,-1.7550159,0.30779973,0.4104251
895,2024-05-15 22:17:12.664966,-0.85593927,1.8019358,2.6271238,-1.7550159,0.30779973,0.4104251
896,2024-05-15 22:17:12.681337,-0.8276287,1.8192637,1.9791212,-1.0146471,-0.8094728,1.0157925
897,2024-05-15 22:17:12.698341,-0.57527345,1.7680118,1.7602019,-0.90041536,-1.6805667,1.5283085
898,2024-05-15 22:17:12.716283,-0.4424758,1.7260338,1.909809,-0.6945538,-1.6420821,1.6474272
899,2024-05-15 22:17:12.731856,-0.3360668,1.4951252,2.3010328,0.41355577,-0.87544626,1.5521322
900,2024-05-15 22:17:12.748511,-0.39586085,1.1949348,2.4355083,1.8735237,-0.24503332,1.1080332
901,2024-05-15 22:17:12.765170,-0.6143226,0.9972484,2.3642435,2.5247061,-0.27924177,0.9327149
902,2024-05-15 22:17:12.782190,-0.81566983,0.7700311,2.092608,3.3444872,-1.3897948,0.91377807
903,2024-05-15 22:17:12.798823,-0.8654575,0.53500396,1.8412288,3.5436292,-2.753857,1.0157925
904,2024-05-15 22:17:12.815537,-0.83983153,0.47005424,1.8197519,3.6071594,-2.992705,1.0347294
905,2024-05-15 22:17:12.832174,-0.65459204,0.026358182,1.709194,4.251622,-3.4068718,0.8313112
906,2024-05-15 22:17:12.848837,-0.6040722,-0.2596769,1.6191368,5.126381,-2.8546495,0.3120758
907,2024-05-15 22:17:12.865481,-0.66240185,-0.47810817,1.4870713,5.5674257,-2.4527004,0.014584408
908,2024-05-15 22:17:12.882152,-0.66240185,-0.47810817,1.4870713,5.5674257,-2.4527004,0.014584408
909,2024-05-15 22:17:12.898818,-0.66240185,-0.47810817,1.4870713,5.5674257,-2.4527004,0.014584408
910,2024-05-15 22:17:12.915523,-0.66240185,-0.47810817,1.4870713,5.5674257,-2.4527004,0.014584408
911,2024-05-15 22:17:12.932137,-0.66240185,-0.47810817,1.4870713,5.5674257,-2.4527004,0.014584408
912,2024-05-15 22:17:12.948810,-0.66240185,-0.47810817,1.4870713,5.5674257,-2.4527004,0.014584408
913,2024-05-15 22:17:12.965450,-0.66240185,-0.47810817,1.4870713,5.5674257,-2.4527004,0.014584408
914,2024-05-15 22:17:12.982125,-0.66240185,-0.47810817,1.4870713,5.5674257,-2.4527004,0.014584408
915,2024-05-15 22:17:12.999725,-0.66240185,-0.47810817,1.4870713,5.5674257,-2.4527004,0.014584408
916,2024-05-15 22:17:13.015405,-0.66240185,-0.47810817,1.4870713,5.5674257,-2.4527004,0.014584408
917,2024-05-15 22:17:13.031976,-0.22184804,-1.9163984,-0.21525851,-2.8820622,-0.59933513,0.8514698
918,2024-05-15 22:17:13.048803,-0.18865626,-1.6757581,0.14741059,-3.3805282,0.338343,-0.45517096
919,2024-05-15 22:17:13.065978,-0.55648106,-1.4619334,0.14301755,-3.626096,1.0738248,-1.4356097
920,2024-05-15 22:17:13.082776,-0.7507506,-1.3345355,0.07028849,-3.9235876,1.3981942,-1.629254
921,2024-05-15 22:17:13.098746,-0.9494132,-1.2034768,0.16571487,-4.9345694,1.902158,-1.7557031
922,2024-05-15 22:17:13.114896,-1.0172611,-1.1285512,0.5454985,-5.2968125,2.7152197,-1.8852065
923,2024-05-15 22:17:13.132051,-1.0704657,-0.9779679,1.1341646,-5.2112913,3.2002466,-2.004936
924,2024-05-15 22:17:13.148708,-1.383591,-0.5447663,2.140443,-4.2571197,4.5844674,-2.4960718
925,2024-05-15 22:17:13.165251,-1.8043762,-0.16229807,2.2231784,-3.4800992,4.128762,-2.603584
926,2024-05-15 22:17:13.182045,-1.9076124,0.014643434,2.110668,-3.581503,3.0817387,-2.3537402
927,2024-05-15 22:17:13.198689,-1.802912,0.37877685,1.9923004,-4.347528,1.0646617,-1.352532
928,2024-05-15 22:17:13.214882,-1.3272138,0.5389089,2.2058504,-4.745201,0.22411118,-0.33177617
929,2024-05-15 22:17:13.232003,-1.0250709,0.63701993,2.3168964,-4.572326,0.18073976,-0.06910413
930,2024-05-15 22:17:13.248703,-0.59357774,1.0045701,2.6083314,-3.5918877,0.75250965,-0.2138792
931,2024-05-15 22:17:13.265331,-0.6199359,1.2110425,2.6883821,-2.8533516,1.0701596,-0.45822528
932,2024-05-15 22:17:13.282020,-0.92403126,1.5500686,2.4137871,-1.4465289,0.82092655,-0.4563927
933,2024-05-15 22:17:13.298666,-0.9201263,1.926649,1.8697835,-0.8546005,-0.41485387,0.18012889
934,2024-05-15 22:17:13.314932,-0.76270944,1.9378756,1.7924175,-0.7959574,-0.82474446,0.5038875
935,2024-05-15 22:17:13.332976,-0.64360946,1.9083446,1.9078566,-0.15149458,-0.94936097,0.96081465
936,2024-05-15 22:17:13.348661,-0.58772033,1.7653271,2.0403795,1.0525209,-0.27313313,0.932104
937,2024-05-15 22:17:13.365276,-0.65117526,1.5615393,2.1594796,2.370768,0.28947377,0.7409032
938,2024-05-15 22:17:13.381986,-0.7944369,1.4143422,2.135318,3.0860913,0.31574097,0.7494553
939,2024-05-15 22:17:13.398533,-1.0736383,1.1519806,1.6872289,3.980398,-0.5119814,1.1330787
940,2024-05-15 22:17:13.415281,-1.0792516,0.8644812,1.4194674,3.84051,-1.5938238,1.6926312
941,2024-05-15 22:17:13.431959,-1.0138444,0.7707633,1.4548558,3.876551,-1.8430568,1.9235383
942,2024-05-15 22:17:13.448115,-0.8469091,0.4893348,1.6064458,4.0872993,-1.8406134,2.060983
943,2024-05-15 22:17:13.465318,-0.8469091,0.4893348,1.6064458,4.0872993,-1.8406134,2.060983
944,2024-05-15 22:17:13.481600,-0.82714057,-0.019768637,1.7987629,5.5820866,-0.9145416,1.74822
945,2024-05-15 22:17:13.498113,-0.9711343,-0.30848834,1.6367089,6.3340616,-1.1540008,1.6419294
946,2024-05-15 22:17:13.515252,-0.9711343,-0.30848834,1.6367089,6.3340616,-1.1540008,1.6419294
947,2024-05-15 22:17:13.531921,-0.9711343,-0.30848834,1.6367089,6.3340616,-1.1540008,1.6419294
948,2024-05-15 22:17:13.548576,-0.9711343,-0.30848834,1.6367089,6.3340616,-1.1540008,1.6419294
949,2024-05-15 22:17:13.565229,-0.9711343,-0.30848834,1.6367089,6.3340616,-1.1540008,1.6419294
950,2024-05-15 22:17:13.581904,-0.9711343,-0.30848834,1.6367089,6.3340616,-1.1540008,1.6419294
951,2024-05-15 22:17:13.598543,-0.9711343,-0.30848834,1.6367089,6.3340616,-1.1540008,1.6419294
952,2024-05-15 22:17:13.615232,-0.9711343,-0.30848834,1.6367089,6.3340616,-1.1540008,1.6419294
953,2024-05-15 22:17:13.631877,-0.9711343,-0.30848834,1.6367089,6.3340616,-1.1540008,1.6419294
954,2024-05-15 22:17:13.648610,-0.23868799,-2.585146,-0.35974038,-1.7776178,-1.8045723,1.335275
955,2024-05-15 22:17:13.665159,0.15790504,-2.323242,-0.07175283,-2.9999592,-1.7673095,-0.13385585
956,2024-05-15 22:17:13.681900,0.12178457,-2.1089597,-0.117391534,-3.0976977,-0.91270906,-1.1918745
957,2024-05-15 22:17:13.698576,-0.44394013,-1.7975426,-0.38878322,-3.440393,0.49594623,-2.0171535
958,2024-05-15 22:17:13.714749,-0.918662,-1.5307881,-0.50693744,-4.520403,1.6339881,-2.0837376
959,2024-05-15 22:17:13.731860,-1.0716859,-1.4807258,-0.38975942,-5.4232616,1.9889009,-1.9707277
960,2024-05-15 22:17:13.748528,-1.2618065,-1.4145863,0.06638357,-6.4214153,2.2674553,-1.783192
961,2024-05-15 22:17:13.764818,-1.3384404,-1.2801107,0.72097564,-6.9327097,2.872212,-2.0257056
962,2024-05-15 22:17:13.781845,-1.3840791,-1.2352042,0.88522613,-6.9430943,3.0884583,-2.131385
963,2024-05-15 22:17:13.798498,-1.3840791,-1.2352042,0.88522613,-6.9430943,3.0884583,-2.131385
964,2024-05-15 22:17:13.815064,-2.480903,-0.2711476,2.2883418,-6.2845817,4.1806855,-2.3286946
965,2024-05-15 22:17:13.832692,-2.2658885,0.51718783,2.8780146,-5.9724293,1.9693532,-1.701947
966,2024-05-15 22:17:13.848491,-2.0396473,0.6836348,2.93488,-5.6950965,1.335275,-1.5150222
967,2024-05-15 22:17:13.865588,-1.7201765,1.1693088,3.0844872,-5.122716,0.8270352,-1.1662182
968,2024-05-15 22:17:13.882393,-1.6618468,1.2720569,3.1677105,-4.937624,0.85513496,-1.098412
969,2024-05-15 22:17:13.898531,-1.3943295,1.7911973,3.4207978,-2.7232373,0.85024804,-0.75021887
970,2024-05-15 22:17:13.914903,-1.0319046,2.0984652,2.5548828,-1.028697,-0.8253553,-0.5419138
971,2024-05-15 22:17:13.931831,-0.94819295,2.1680214,2.2534416,-0.65057147,-1.511357,-0.2859613
972,2024-05-15 22:17:13.948467,-0.71902317,2.272478,1.8919927,0.052534413,-1.9878318,0.33895385
973,2024-05-15 22:17:13.965729,-0.64360946,2.1221387,1.7897328,1.1233811,-1.3061062,0.7757225
974,2024-05-15 22:17:13.982777,-0.7002308,1.8392764,1.7409214,2.1594086,-0.7019605,1.0115165
975,2024-05-15 22:17:13.998492,-0.74489325,1.7274982,1.7653271,2.4966063,-0.650037,1.122694
976,2024-05-15 22:17:14.014780,-0.8937682,1.3374642,1.7182239,3.2351422,-1.0721449,1.4507287
977,2024-05-15 22:17:14.031519,-0.93208516,1.1419744,1.6857644,3.5643988,-1.5376241,1.6626989
978,2024-05-15 22:17:14.048422,-0.9752833,0.8256762,1.6423222,4.020715,-2.082516,1.933923
979,2024-05-15 22:17:14.065375,-0.88107723,0.47835222,1.6166962,4.433049,-2.2511148,2.0029507
980,2024-05-15 22:17:14.081743,-0.8879108,0.24649782,1.6918658,4.661513,-2.2572234,1.9033798
981,2024-05-15 22:17:14.098401,-0.95917547,-0.042221904,1.8104776,5.4819045,-2.124055,1.6523142
982,2024-05-15 22:17:14.115068,-1.046548,-0.3802412,1.6642874,6.298021,-1.8271743,1.5845081
983,2024-05-15 22:17:14.131730,-1.131724,-0.5657552,1.5603191,6.3371162,-1.6213127,1.616273
984,2024-05-15 22:17:14.148416,-1.4058002,-1.1231819,1.6789309,5.997475,-1.0501537,1.6138296
985,2024-05-15 22:17:14.165029,-1.4058002,-1.1231819,1.6789309,5.997475,-1.0501537,1.6138296
986,2024-05-15 22:17:14.181703,-1.4058002,-1.1231819,1.6789309,5.997475,-1.0501537,1.6138296
987,2024-05-15 22:17:14.198345,-1.4058002,-1.1231819,1.6789309,5.997475,-1.0501537,1.6138296
988,2024-05-15 22:17:14.214999,-1.4058002,-1.1231819,1.6789309,5.997475,-1.0501537,1.6138296
989,2024-05-15 22:17:14.231673,-1.4058002,-1.1231819,1.6789309,5.997475,-1.0501537,1.6138296
990,2024-05-15 22:17:14.247831,-1.4058002,-1.1231819,1.6789309,5.997475,-1.0501537,1.6138296
991,2024-05-15 22:17:14.264504,-1.4058002,-1.1231819,1.6789309,5.997475,-1.0501537,1.6138296
992,2024-05-15 22:17:14.280540,-1.4058002,-1.1231819,1.6789309,5.997475,-1.0501537,1.6138296
993,2024-05-15 22:17:14.297792,-1.4058002,-1.1231819,1.6789309,5.997475,-1.0501537,1.6138296
994,2024-05-15 22:17:14.314438,-0.52499765,-1.2962185,-0.633115,-2.406809,0.06956228,-2.3219752
995,2024-05-15 22:17:14.331121,-0.6155429,-1.2330077,-0.66874737,-2.720183,0.49228102,-2.4294875
996,2024-05-15 22:17:14.348895,-0.9574671,-1.0060345,-0.5867441,-3.8136318,1.1654545,-2.3665683
997,2024-05-15 22:17:14.365745,-1.1261107,-0.78394234,-0.13886857,-4.837442,1.5209781,-2.0556378
998,2024-05-15 22:17:14.381280,-1.1446589,-0.7341547,-0.0388051,-4.92113,1.6254361,-2.018986
999,2024-05-15 22:17:14.398260,-1.4555879,-0.28579104,0.7754004,-5.442809,2.627255,-1.9004781
